condition,consent_key.keys,consent_key.rt,done_with_instructions.keys,done_with_instructions.rt,instr_loop.thisRepN,instr_loop.thisTrialN,instr_loop.thisN,instr_loop.thisIndex,instr_loop.ran,Student ID #,date,expName,psychopyVersion,OS,frameRate,instr_learning_key.keys,instr_learning_key.rt,card_gen_loop.thisRepN,card_gen_loop.thisTrialN,card_gen_loop.thisN,card_gen_loop.thisIndex,card_gen_loop.ran,swa,eng,choose_pile.x,choose_pile.y,choose_pile.leftButton,choose_pile.midButton,choose_pile.rightButton,choose_pile.time,choose_pile.clicked_name,choices.thisRepN,choices.thisTrialN,choices.thisN,choices.thisIndex,choices.ran,card_to_show,mouse_pick.x,mouse_pick.y,mouse_pick.leftButton,mouse_pick.midButton,mouse_pick.rightButton,mouse_pick.time,mouse_pick.clicked_name,key_instr_study.keys,key_instr_study.rt,next_study.keys,next_study.rt,study_loop.thisRepN,study_loop.thisTrialN,study_loop.thisN,study_loop.thisIndex,study_loop.ran,key_instr_test.keys,learn_loop.thisRepN,learn_loop.thisTrialN,learn_loop.thisN,learn_loop.thisIndex,learn_loop.ran,trials.thisRepN,trials.thisTrialN,trials.thisN,trials.thisIndex,trials.ran,key_instr_test.rt,duration,yes_or_no.x,yes_or_no.y,yes_or_no.leftButton,yes_or_no.midButton,yes_or_no.rightButton,yes_or_no.time,yes_or_no.clicked_name,test_response.stim,test_response.resp,test_response.eval,test_loop.thisRepN,test_loop.thisTrialN,test_loop.thisN,test_loop.thisIndex,test_loop.ran,instr_movie_key.keys,instr_movie_key.rt,return_to_exp.keys,return_to_exp.rt,instr_assess_key.keys,instr_assess_key.rt,assess_loop.thisRepN,assess_loop.thisTrialN,assess_loop.thisN,assess_loop.thisIndex,assess_loop.ran,ans_gen_loop.thisRepN,ans_gen_loop.thisTrialN,ans_gen_loop.thisN,ans_gen_loop.thisIndex,ans_gen_loop.ran,sen,ans,instr_transfer_key.keys,instr_transfer_key.rt,transfer_response.resp,transfer_response.eval,select_word.x,select_word.y,select_word.leftButton,select_word.midButton,select_word.rightButton,select_word.time,select_word.clicked_name,transfers.thisRepN,transfers.thisTrialN,transfers.thisN,transfers.thisIndex,transfers.ran,end_experiment.keys,end_experiment.rt
2,return,44.07879,return,28.7285,0,0,0,0,1,00001527445,2020-10-25_13h06.35.570,swahili,2020.2.4,MacIntel,60,,,,,,,,,,,,,,,,,,,,,,,,,,,,,,,,,,,,,,,,,,,,,,,,,,,,,,,,,,,,,,,,,,,,,,,,,,,,,,,,,,,,,,,,,,,,,,,,,,,,,,
,,,return,29.634595,1,0,1,0,1,00001527445,2020-10-25_13h06.35.570,swahili,2020.2.4,MacIntel,60,,,,,,,,,,,,,,,,,,,,,,,,,,,,,,,,,,,,,,,,,,,,,,,,,,,,,,,,,,,,,,,,,,,,,,,,,,,,,,,,,,,,,,,,,,,,,,,,,,,,,,
,,,,,,,,,,00001527445,2020-10-25_13h06.35.570,swahili,2020.2.4,MacIntel,60,return,18.722215,0,0,0,0,1,TAJIRI,MERCHANT,,,,,,,,,,,,,,,,,,,,,,,,,,,,,,,,,,,,,,,,,,,,,,,,,,,,,,,,,,,,,,,,,,,,,,,,,,,,,,,,,,,,,,,,,,,,,
,,,,,,,,,,00001527445,2020-10-25_13h06.35.570,swahili,2020.2.4,MacIntel,60,,,0,1,1,1,1,KASUKU,PARROT,,,,,,,,,,,,,,,,,,,,,,,,,,,,,,,,,,,,,,,,,,,,,,,,,,,,,,,,,,,,,,,,,,,,,,,,,,,,,,,,,,,,,,,,,,,,,
,,,,,,,,,,00001527445,2020-10-25_13h06.35.570,swahili,2020.2.4,MacIntel,60,,,0,2,2,2,1,FAHILI,BULL,,,,,,,,,,,,,,,,,,,,,,,,,,,,,,,,,,,,,,,,,,,,,,,,,,,,,,,,,,,,,,,,,,,,,,,,,,,,,,,,,,,,,,,,,,,,,
,,,,,,,,,,00001527445,2020-10-25_13h06.35.570,swahili,2020.2.4,MacIntel,60,,,0,3,3,3,1,SAHANI,PLATE,,,,,,,,,,,,,,,,,,,,,,,,,,,,,,,,,,,,,,,,,,,,,,,,,,,,,,,,,,,,,,,,,,,,,,,,,,,,,,,,,,,,,,,,,,,,,
,,,,,,,,,,00001527445,2020-10-25_13h06.35.570,swahili,2020.2.4,MacIntel,60,,,0,4,4,4,1,HAMIRA,YEAST,,,,,,,,,,,,,,,,,,,,,,,,,,,,,,,,,,,,,,,,,,,,,,,,,,,,,,,,,,,,,,,,,,,,,,,,,,,,,,,,,,,,,,,,,,,,,
,,,,,,,,,,00001527445,2020-10-25_13h06.35.570,swahili,2020.2.4,MacIntel,60,,,0,5,5,5,1,LAWAMA,BLAME,,,,,,,,,,,,,,,,,,,,,,,,,,,,,,,,,,,,,,,,,,,,,,,,,,,,,,,,,,,,,,,,,,,,,,,,,,,,,,,,,,,,,,,,,,,,,
,,,,,,,,,,00001527445,2020-10-25_13h06.35.570,swahili,2020.2.4,MacIntel,60,,,0,6,6,6,1,YAMINI,OATH,,,,,,,,,,,,,,,,,,,,,,,,,,,,,,,,,,,,,,,,,,,,,,,,,,,,,,,,,,,,,,,,,,,,,,,,,,,,,,,,,,,,,,,,,,,,,
,,,,,,,,,,00001527445,2020-10-25_13h06.35.570,swahili,2020.2.4,MacIntel,60,,,0,7,7,7,1,NAFAKA,CORN,,,,,,,,,,,,,,,,,,,,,,,,,,,,,,,,,,,,,,,,,,,,,,,,,,,,,,,,,,,,,,,,,,,,,,,,,,,,,,,,,,,,,,,,,,,,,
,,,,,,,,,,00001527445,2020-10-25_13h06.35.570,swahili,2020.2.4,MacIntel,60,,,0,8,8,8,1,UTENZI,POEM,,,,,,,,,,,,,,,,,,,,,,,,,,,,,,,,,,,,,,,,,,,,,,,,,,,,,,,,,,,,,,,,,,,,,,,,,,,,,,,,,,,,,,,,,,,,,
,,,,,,,,,,00001527445,2020-10-25_13h06.35.570,swahili,2020.2.4,MacIntel,60,,,0,9,9,9,1,MSHONI,TAILOR,,,,,,,,,,,,,,,,,,,,,,,,,,,,,,,,,,,,,,,,,,,,,,,,,,,,,,,,,,,,,,,,,,,,,,,,,,,,,,,,,,,,,,,,,,,,,
,,,,,,,,,,00001527445,2020-10-25_13h06.35.570,swahili,2020.2.4,MacIntel,60,,,0,10,10,10,1,JIBINI,CHEESE,,,,,,,,,,,,,,,,,,,,,,,,,,,,,,,,,,,,,,,,,,,,,,,,,,,,,,,,,,,,,,,,,,,,,,,,,,,,,,,,,,,,,,,,,,,,,
,,,,,,,,,,00001527445,2020-10-25_13h06.35.570,swahili,2020.2.4,MacIntel,60,,,0,11,11,11,1,ZABIBU,GRAPES,,,,,,,,,,,,,,,,,,,,,,,,,,,,,,,,,,,,,,,,,,,,,,,,,,,,,,,,,,,,,,,,,,,,,,,,,,,,,,,,,,,,,,,,,,,,,
,,,,,,,,,,00001527445,2020-10-25_13h06.35.570,swahili,2020.2.4,MacIntel,60,,,0,12,12,12,1,KABURI,GRAVE,,,,,,,,,,,,,,,,,,,,,,,,,,,,,,,,,,,,,,,,,,,,,,,,,,,,,,,,,,,,,,,,,,,,,,,,,,,,,,,,,,,,,,,,,,,,,
,,,,,,,,,,00001527445,2020-10-25_13h06.35.570,swahili,2020.2.4,MacIntel,60,,,0,13,13,13,1,SAMADI,MANURE,,,,,,,,,,,,,,,,,,,,,,,,,,,,,,,,,,,,,,,,,,,,,,,,,,,,,,,,,,,,,,,,,,,,,,,,,,,,,,,,,,,,,,,,,,,,,
,,,,,,,,,,00001527445,2020-10-25_13h06.35.570,swahili,2020.2.4,MacIntel,60,,,0,14,14,14,1,WAKILI,AGENT,,,,,,,,,,,,,,,,,,,,,,,,,,,,,,,,,,,,,,,,,,,,,,,,,,,,,,,,,,,,,,,,,,,,,,,,,,,,,,,,,,,,,,,,,,,,,
,,,,,,,,,,00001527445,2020-10-25_13h06.35.570,swahili,2020.2.4,MacIntel,60,,,0,15,15,15,1,RUSHWA,BRIBE,,,,,,,,,,,,,,,,,,,,,,,,,,,,,,,,,,,,,,,,,,,,,,,,,,,,,,,,,,,,,,,,,,,,,,,,,,,,,,,,,,,,,,,,,,,,,
,,,,,,,,,,00001527445,2020-10-25_13h06.35.570,swahili,2020.2.4,MacIntel,60,,,0,16,16,16,1,YATIMA,ORPHAN,,,,,,,,,,,,,,,,,,,,,,,,,,,,,,,,,,,,,,,,,,,,,,,,,,,,,,,,,,,,,,,,,,,,,,,,,,,,,,,,,,,,,,,,,,,,,
,,,,,,,,,,00001527445,2020-10-25_13h06.35.570,swahili,2020.2.4,MacIntel,60,,,0,17,17,17,1,TALAKA,DIVORCE,,,,,,,,,,,,,,,,,,,,,,,,,,,,,,,,,,,,,,,,,,,,,,,,,,,,,,,,,,,,,,,,,,,,,,,,,,,,,,,,,,,,,,,,,,,,,
,,,,,,,,,,00001527445,2020-10-25_13h06.35.570,swahili,2020.2.4,MacIntel,60,,,0,18,18,18,1,MASHUA,BOAT,,,,,,,,,,,,,,,,,,,,,,,,,,,,,,,,,,,,,,,,,,,,,,,,,,,,,,,,,,,,,,,,,,,,,,,,,,,,,,,,,,,,,,,,,,,,,
,,,,,,,,,,00001527445,2020-10-25_13h06.35.570,swahili,2020.2.4,MacIntel,60,,,0,19,19,19,1,DAFINA,TREASURE,,,,,,,,,,,,,,,,,,,,,,,,,,,,,,,,,,,,,,,,,,,,,,,,,,,,,,,,,,,,,,,,,,,,,,,,,,,,,,,,,,,,,,,,,,,,,
,,,,,,,,,,00001527445,2020-10-25_13h06.35.570,swahili,2020.2.4,MacIntel,60,,,,,,,,,,-0.265960693,-0.054287109,1,0,0,11.58824,unsorted_card,0,0,0,0,1,,,,,,,,,,,,,,,,,,,,,,,,,,,,,,,,,,,,,,,,,,,,,,,,,,,,,,,,,,,,,,,,,,,,,,,,,,,,,,,,,
,,,,,,,,,,00001527445,2020-10-25_13h06.35.570,swahili,2020.2.4,MacIntel,60,,,,,,,,,,-0.265960693,-0.054287109,1,0,0,5.980115,unsorted_card,1,0,1,0,1,MERCHANT - TAJIRI,,,,,,,,,,,,,,,,,,,,,,,,,,,,,,,,,,,,,,,,,,,,,,,,,,,,,,,,,,,,,,,,,,,,,,,,,,,,,,,,
,,,,,,,,,,00001527445,2020-10-25_13h06.35.570,swahili,2020.2.4,MacIntel,60,,,,,,,,,,0.489099121,0.538525391,1,0,0,5.06415,study_pile,2,0,2,0,1,MERCHANT - TAJIRI,,,,,,,,,,,,,,,,,,,,,,,,,,,,,,,,,,,,,,,,,,,,,,,,,,,,,,,,,,,,,,,,,,,,,,,,,,,,,,,,
,,,,,,,,,,00001527445,2020-10-25_13h06.35.570,swahili,2020.2.4,MacIntel,60,,,,,,,,,,-0.218969727,-0.114560547,1,0,0,1.830555,unsorted_card,3,0,3,0,1,,,,,,,,,,,,,,,,,,,,,,,,,,,,,,,,,,,,,,,,,,,,,,,,,,,,,,,,,,,,,,,,,,,,,,,,,,,,,,,,,
,,,,,,,,,,00001527445,2020-10-25_13h06.35.570,swahili,2020.2.4,MacIntel,60,,,,,,,,,,0.409570312,0.512207031,1,0,0,6.47909,study_pile,4,0,4,0,1,PARROT - KASUKU,,,,,,,,,,,,,,,,,,,,,,,,,,,,,,,,,,,,,,,,,,,,,,,,,,,,,,,,,,,,,,,,,,,,,,,,,,,,,,,,
,,,,,,,,,,00001527445,2020-10-25_13h06.35.570,swahili,2020.2.4,MacIntel,60,,,,,,,,,,-0.170001221,-0.019404297,1,0,0,1.29957,unsorted_card,5,0,5,0,1,,,,,,,,,,,,,,,,,,,,,,,,,,,,,,,,,,,,,,,,,,,,,,,,,,,,,,,,,,,,,,,,,,,,,,,,,,,,,,,,,
,,,,,,,,,,00001527445,2020-10-25_13h06.35.570,swahili,2020.2.4,MacIntel,60,,,,,,,,,,0.451629639,0.412353516,1,0,0,6.749075,study_pile,6,0,6,0,1,BULL - FAHILI,,,,,,,,,,,,,,,,,,,,,,,,,,,,,,,,,,,,,,,,,,,,,,,,,,,,,,,,,,,,,,,,,,,,,,,,,,,,,,,,
,,,,,,,,,,00001527445,2020-10-25_13h06.35.570,swahili,2020.2.4,MacIntel,60,,,,,,,,,,-0.166534424,-0.031269531,1,0,0,1.547835,unsorted_card,7,0,7,0,1,,,,,,,,,,,,,,,,,,,,,,,,,,,,,,,,,,,,,,,,,,,,,,,,,,,,,,,,,,,,,,,,,,,,,,,,,,,,,,,,,
,,,,,,,,,,00001527445,2020-10-25_13h06.35.570,swahili,2020.2.4,MacIntel,60,,,,,,,,,,0.438586426,0.512646484,1,0,0,4.66467,study_pile,8,0,8,0,1,PLATE - SAHANI,,,,,,,,,,,,,,,,,,,,,,,,,,,,,,,,,,,,,,,,,,,,,,,,,,,,,,,,,,,,,,,,,,,,,,,,,,,,,,,,
,,,,,,,,,,00001527445,2020-10-25_13h06.35.570,swahili,2020.2.4,MacIntel,60,,,,,,,,,,-0.226092529,0.0415625,1,0,0,0.932525,unsorted_card,9,0,9,0,1,,,,,,,,,,,,,,,,,,,,,,,,,,,,,,,,,,,,,,,,,,,,,,,,,,,,,,,,,,,,,,,,,,,,,,,,,,,,,,,,,
,,,,,,,,,,00001527445,2020-10-25_13h06.35.570,swahili,2020.2.4,MacIntel,60,,,,,,,,,,0.386035156,0.467294922,1,0,0,4.713145,study_pile,10,0,10,0,1,YEAST - HAMIRA,,,,,,,,,,,,,,,,,,,,,,,,,,,,,,,,,,,,,,,,,,,,,,,,,,,,,,,,,,,,,,,,,,,,,,,,,,,,,,,,
,,,,,,,,,,00001527445,2020-10-25_13h06.35.570,swahili,2020.2.4,MacIntel,60,,,,,,,,,,-0.188769531,0.090410156,1,0,0,0.91598,unsorted_card,11,0,11,0,1,,,,,,,,,,,,,,,,,,,,,,,,,,,,,,,,,,,,,,,,,,,,,,,,,,,,,,,,,,,,,,,,,,,,,,,,,,,,,,,,,
,,,,,,,,,,00001527445,2020-10-25_13h06.35.570,swahili,2020.2.4,MacIntel,60,,,,,,,,,,0.441345215,0.47046875,1,0,0,4.5488,study_pile,12,0,12,0,1,BLAME - LAWAMA,,,,,,,,,,,,,,,,,,,,,,,,,,,,,,,,,,,,,,,,,,,,,,,,,,,,,,,,,,,,,,,,,,,,,,,,,,,,,,,,
,,,,,,,,,,00001527445,2020-10-25_13h06.35.570,swahili,2020.2.4,MacIntel,60,,,,,,,,,,-0.176062012,-0.123476562,1,0,0,1.04236,unsorted_card,13,0,13,0,1,,,,,,,,,,,,,,,,,,,,,,,,,,,,,,,,,,,,,,,,,,,,,,,,,,,,,,,,,,,,,,,,,,,,,,,,,,,,,,,,,
,,,,,,,,,,00001527445,2020-10-25_13h06.35.570,swahili,2020.2.4,MacIntel,60,,,,,,,,,,0.398284912,0.464316406,1,0,0,4.40759,study_pile,14,0,14,0,1,OATH - YAMINI,,,,,,,,,,,,,,,,,,,,,,,,,,,,,,,,,,,,,,,,,,,,,,,,,,,,,,,,,,,,,,,,,,,,,,,,,,,,,,,,
,,,,,,,,,,00001527445,2020-10-25_13h06.35.570,swahili,2020.2.4,MacIntel,60,,,,,,,,,,-0.152929687,-0.077744141,1,0,0,1.24929,unsorted_card,15,0,15,0,1,,,,,,,,,,,,,,,,,,,,,,,,,,,,,,,,,,,,,,,,,,,,,,,,,,,,,,,,,,,,,,,,,,,,,,,,,,,,,,,,,
,,,,,,,,,,00001527445,2020-10-25_13h06.35.570,swahili,2020.2.4,MacIntel,60,,,,,,,,,,0.336236572,0.399199219,1,0,0,4.53353,study_pile,16,0,16,0,1,CORN - NAFAKA,,,,,,,,,,,,,,,,,,,,,,,,,,,,,,,,,,,,,,,,,,,,,,,,,,,,,,,,,,,,,,,,,,,,,,,,,,,,,,,,
,,,,,,,,,,00001527445,2020-10-25_13h06.35.570,swahili,2020.2.4,MacIntel,60,,,,,,,,,,-0.19251709,-0.067460937,1,0,0,1.21395,unsorted_card,17,0,17,0,1,,,,,,,,,,,,,,,,,,,,,,,,,,,,,,,,,,,,,,,,,,,,,,,,,,,,,,,,,,,,,,,,,,,,,,,,,,,,,,,,,
,,,,,,,,,,00001527445,2020-10-25_13h06.35.570,swahili,2020.2.4,MacIntel,60,,,,,,,,,,0.364971924,0.472304687,1,0,0,5.26396,study_pile,18,0,18,0,1,POEM - UTENZI,,,,,,,,,,,,,,,,,,,,,,,,,,,,,,,,,,,,,,,,,,,,,,,,,,,,,,,,,,,,,,,,,,,,,,,,,,,,,,,,
,,,,,,,,,,00001527445,2020-10-25_13h06.35.570,swahili,2020.2.4,MacIntel,60,,,,,,,,,,-0.155303955,-0.088271484,1,0,0,1.04834,unsorted_card,19,0,19,0,1,,,,,,,,,,,,,,,,,,,,,,,,,,,,,,,,,,,,,,,,,,,,,,,,,,,,,,,,,,,,,,,,,,,,,,,,,,,,,,,,,
,,,,,,,,,,00001527445,2020-10-25_13h06.35.570,swahili,2020.2.4,MacIntel,60,,,,,,,,,,0.369915771,0.436738281,1,0,0,4.16659,study_pile,20,0,20,0,1,TAILOR - MSHONI,,,,,,,,,,,,,,,,,,,,,,,,,,,,,,,,,,,,,,,,,,,,,,,,,,,,,,,,,,,,,,,,,,,,,,,,,,,,,,,,
,,,,,,,,,,00001527445,2020-10-25_13h06.35.570,swahili,2020.2.4,MacIntel,60,,,,,,,,,,-0.143286133,-0.06515625,1,0,0,1.163265,unsorted_card,21,0,21,0,1,,,,,,,,,,,,,,,,,,,,,,,,,,,,,,,,,,,,,,,,,,,,,,,,,,,,,,,,,,,,,,,,,,,,,,,,,,,,,,,,,
,,,,,,,,,,00001527445,2020-10-25_13h06.35.570,swahili,2020.2.4,MacIntel,60,,,,,,,,,,0.346258545,0.432949219,1,0,0,2.197625,study_pile,22,0,22,0,1,CHEESE - JIBINI,,,,,,,,,,,,,,,,,,,,,,,,,,,,,,,,,,,,,,,,,,,,,,,,,,,,,,,,,,,,,,,,,,,,,,,,,,,,,,,,
,,,,,,,,,,00001527445,2020-10-25_13h06.35.570,swahili,2020.2.4,MacIntel,60,,,,,,,,,,-0.265124512,0.090380859,1,0,0,0.965415,unsorted_card,23,0,23,0,1,,,,,,,,,,,,,,,,,,,,,,,,,,,,,,,,,,,,,,,,,,,,,,,,,,,,,,,,,,,,,,,,,,,,,,,,,,,,,,,,,
,,,,,,,,,,00001527445,2020-10-25_13h06.35.570,swahili,2020.2.4,MacIntel,60,,,,,,,,,,0.366156006,0.429960937,1,0,0,2.79895,study_pile,24,0,24,0,1,GRAPES - ZABIBU,,,,,,,,,,,,,,,,,,,,,,,,,,,,,,,,,,,,,,,,,,,,,,,,,,,,,,,,,,,,,,,,,,,,,,,,,,,,,,,,
,,,,,,,,,,00001527445,2020-10-25_13h06.35.570,swahili,2020.2.4,MacIntel,60,,,,,,,,,,-0.152319336,-0.003623047,1,0,0,1.19716,unsorted_card,25,0,25,0,1,,,,,,,,,,,,,,,,,,,,,,,,,,,,,,,,,,,,,,,,,,,,,,,,,,,,,,,,,,,,,,,,,,,,,,,,,,,,,,,,,
,,,,,,,,,,00001527445,2020-10-25_13h06.35.570,swahili,2020.2.4,MacIntel,60,,,,,,,,,,0.321234131,0.428847656,1,0,0,3.39942,study_pile,26,0,26,0,1,GRAVE - KABURI,,,,,,,,,,,,,,,,,,,,,,,,,,,,,,,,,,,,,,,,,,,,,,,,,,,,,,,,,,,,,,,,,,,,,,,,,,,,,,,,
,,,,,,,,,,00001527445,2020-10-25_13h06.35.570,swahili,2020.2.4,MacIntel,60,,,,,,,,,,-0.161694336,-0.062470703,1,0,0,1.06388,unsorted_card,27,0,27,0,1,,,,,,,,,,,,,,,,,,,,,,,,,,,,,,,,,,,,,,,,,,,,,,,,,,,,,,,,,,,,,,,,,,,,,,,,,,,,,,,,,
,,,,,,,,,,00001527445,2020-10-25_13h06.35.570,swahili,2020.2.4,MacIntel,60,,,,,,,,,,0.361419678,0.41046875,1,0,0,3.032505,study_pile,28,0,28,0,1,MANURE - SAMADI,,,,,,,,,,,,,,,,,,,,,,,,,,,,,,,,,,,,,,,,,,,,,,,,,,,,,,,,,,,,,,,,,,,,,,,,,,,,,,,,
,,,,,,,,,,00001527445,2020-10-25_13h06.35.570,swahili,2020.2.4,MacIntel,60,,,,,,,,,,-0.120758057,-0.089003906,1,0,0,1.297535,unsorted_card,29,0,29,0,1,,,,,,,,,,,,,,,,,,,,,,,,,,,,,,,,,,,,,,,,,,,,,,,,,,,,,,,,,,,,,,,,,,,,,,,,,,,,,,,,,
,,,,,,,,,,00001527445,2020-10-25_13h06.35.570,swahili,2020.2.4,MacIntel,60,,,,,,,,,,0.342834473,0.446396484,1,0,0,2.71593,study_pile,30,0,30,0,1,AGENT - WAKILI,,,,,,,,,,,,,,,,,,,,,,,,,,,,,,,,,,,,,,,,,,,,,,,,,,,,,,,,,,,,,,,,,,,,,,,,,,,,,,,,
,,,,,,,,,,00001527445,2020-10-25_13h06.35.570,swahili,2020.2.4,MacIntel,60,,,,,,,,,,-0.13505249,-0.059658203,1,0,0,0.848915,unsorted_card,31,0,31,0,1,,,,,,,,,,,,,,,,,,,,,,,,,,,,,,,,,,,,,,,,,,,,,,,,,,,,,,,,,,,,,,,,,,,,,,,,,,,,,,,,,
,,,,,,,,,,00001527445,2020-10-25_13h06.35.570,swahili,2020.2.4,MacIntel,60,,,,,,,,,,0.393029785,0.434355469,1,0,0,3.68216,study_pile,32,0,32,0,1,BRIBE - RUSHWA,,,,,,,,,,,,,,,,,,,,,,,,,,,,,,,,,,,,,,,,,,,,,,,,,,,,,,,,,,,,,,,,,,,,,,,,,,,,,,,,
,,,,,,,,,,00001527445,2020-10-25_13h06.35.570,swahili,2020.2.4,MacIntel,60,,,,,,,,,,-0.128717041,-0.130634766,1,0,0,0.865445,unsorted_card,33,0,33,0,1,,,,,,,,,,,,,,,,,,,,,,,,,,,,,,,,,,,,,,,,,,,,,,,,,,,,,,,,,,,,,,,,,,,,,,,,,,,,,,,,,
,,,,,,,,,,00001527445,2020-10-25_13h06.35.570,swahili,2020.2.4,MacIntel,60,,,,,,,,,,0.340258789,0.390751953,1,0,0,2.0996,study_pile,34,0,34,0,1,ORPHAN - YATIMA,,,,,,,,,,,,,,,,,,,,,,,,,,,,,,,,,,,,,,,,,,,,,,,,,,,,,,,,,,,,,,,,,,,,,,,,,,,,,,,,
,,,,,,,,,,00001527445,2020-10-25_13h06.35.570,swahili,2020.2.4,MacIntel,60,,,,,,,,,,-0.172467041,-0.140371094,1,0,0,0.86749,unsorted_card,35,0,35,0,1,,,,,,,,,,,,,,,,,,,,,,,,,,,,,,,,,,,,,,,,,,,,,,,,,,,,,,,,,,,,,,,,,,,,,,,,,,,,,,,,,
,,,,,,,,,,00001527445,2020-10-25_13h06.35.570,swahili,2020.2.4,MacIntel,60,,,,,,,,,,0.335150146,0.493447266,1,0,0,2.296605,study_pile,36,0,36,0,1,DIVORCE - TALAKA,,,,,,,,,,,,,,,,,,,,,,,,,,,,,,,,,,,,,,,,,,,,,,,,,,,,,,,,,,,,,,,,,,,,,,,,,,,,,,,,
,,,,,,,,,,00001527445,2020-10-25_13h06.35.570,swahili,2020.2.4,MacIntel,60,,,,,,,,,,-0.147906494,-0.044101562,1,0,0,1.113785,unsorted_card,37,0,37,0,1,,,,,,,,,,,,,,,,,,,,,,,,,,,,,,,,,,,,,,,,,,,,,,,,,,,,,,,,,,,,,,,,,,,,,,,,,,,,,,,,,
,,,,,,,,,,00001527445,2020-10-25_13h06.35.570,swahili,2020.2.4,MacIntel,60,,,,,,,,,,0.418963623,0.455058594,1,0,0,3.48259,study_pile,38,0,38,0,1,BOAT - MASHUA,,,,,,,,,,,,,,,,,,,,,,,,,,,,,,,,,,,,,,,,,,,,,,,,,,,,,,,,,,,,,,,,,,,,,,,,,,,,,,,,
,,,,,,,,,,00001527445,2020-10-25_13h06.35.570,swahili,2020.2.4,MacIntel,60,,,,,,,,,,-0.115905762,-0.096748047,1,0,0,1.09848,unsorted_card,39,0,39,0,1,,,,,,,,,,,,,,,,,,,,,,,,,,,,,,,,,,,,,,,,,,,,,,,,,,,,,,,,,,,,,,,,,,,,,,,,,,,,,,,,,
,,,,,,,,,,00001527445,2020-10-25_13h06.35.570,swahili,2020.2.4,MacIntel,60,,,,,,,,,,0.369396973,0.387714844,1,0,0,2.51508,study_pile,40,0,40,0,1,TREASURE - DAFINA,,,,,,,,,,,,,,,,,,,,,,,,,,,,,,,,,,,,,,,,,,,,,,,,,,,,,,,,,,,,,,,,,,,,,,,,,,,,,,,,
,,,,,,,,,,00001527445,2020-10-25_13h06.35.570,swahili,2020.2.4,MacIntel,60,,,,,,,,,,,,,,,,,,,,,,ORPHAN - YATIMA,,,,,,,,return,11.07132,return,7.26448,0,0,0,0,1,,,,,,,,,,,,,,,,,,,,,,,,,,,,,,,,,,,,,,,,,,,,,,,,,,,,,,,,,,,,,,,,
,,,,,,,,,,00001527445,2020-10-25_13h06.35.570,swahili,2020.2.4,MacIntel,60,,,,,,,,,,,,,,,,,,,,,,CORN - NAFAKA,,,,,,,,,,return,2.45008,1,0,1,0,1,,,,,,,,,,,,,,,,,,,,,,,,,,,,,,,,,,,,,,,,,,,,,,,,,,,,,,,,,,,,,,,,
,,,,,,,,,,00001527445,2020-10-25_13h06.35.570,swahili,2020.2.4,MacIntel,60,,,,,,,,,,,,,,,,,,,,,,PARROT - KASUKU,,,,,,,,,,return,5.404855,2,0,2,0,1,,,,,,,,,,,,,,,,,,,,,,,,,,,,,,,,,,,,,,,,,,,,,,,,,,,,,,,,,,,,,,,,
,,,,,,,,,,00001527445,2020-10-25_13h06.35.570,swahili,2020.2.4,MacIntel,60,,,,,,,,,,,,,,,,,,,,,,MANURE - SAMADI,,,,,,,,,,return,2.25282,3,0,3,0,1,,,,,,,,,,,,,,,,,,,,,,,,,,,,,,,,,,,,,,,,,,,,,,,,,,,,,,,,,,,,,,,,
,,,,,,,,,,00001527445,2020-10-25_13h06.35.570,swahili,2020.2.4,MacIntel,60,,,,,,,,,,,,,,,,,,,,,,GRAVE - KABURI,,,,,,,,,,return,3.61668,4,0,4,0,1,,,,,,,,,,,,,,,,,,,,,,,,,,,,,,,,,,,,,,,,,,,,,,,,,,,,,,,,,,,,,,,,
,,,,,,,,,,00001527445,2020-10-25_13h06.35.570,swahili,2020.2.4,MacIntel,60,,,,,,,,,,,,,,,,,,,,,,OATH - YAMINI,,,,,,,,,,return,2.551055,5,0,5,0,1,,,,,,,,,,,,,,,,,,,,,,,,,,,,,,,,,,,,,,,,,,,,,,,,,,,,,,,,,,,,,,,,
,,,,,,,,,,00001527445,2020-10-25_13h06.35.570,swahili,2020.2.4,MacIntel,60,,,,,,,,,,,,,,,,,,,,,,PLATE - SAHANI,,,,,,,,,,return,2.83416,6,0,6,0,1,,,,,,,,,,,,,,,,,,,,,,,,,,,,,,,,,,,,,,,,,,,,,,,,,,,,,,,,,,,,,,,,
,,,,,,,,,,00001527445,2020-10-25_13h06.35.570,swahili,2020.2.4,MacIntel,60,,,,,,,,,,,,,,,,,,,,,,DIVORCE - TALAKA,,,,,,,,,,return,2.268055,7,0,7,0,1,,,,,,,,,,,,,,,,,,,,,,,,,,,,,,,,,,,,,,,,,,,,,,,,,,,,,,,,,,,,,,,,
,,,,,,,,,,00001527445,2020-10-25_13h06.35.570,swahili,2020.2.4,MacIntel,60,,,,,,,,,,,,,,,,,,,,,,YEAST - HAMIRA,,,,,,,,,,return,2.317315,8,0,8,0,1,,,,,,,,,,,,,,,,,,,,,,,,,,,,,,,,,,,,,,,,,,,,,,,,,,,,,,,,,,,,,,,,
,,,,,,,,,,00001527445,2020-10-25_13h06.35.570,swahili,2020.2.4,MacIntel,60,,,,,,,,,,,,,,,,,,,,,,GRAPES - ZABIBU,,,,,,,,,,return,2.81723,9,0,9,0,1,,,,,,,,,,,,,,,,,,,,,,,,,,,,,,,,,,,,,,,,,,,,,,,,,,,,,,,,,,,,,,,,
,,,,,,,,,,00001527445,2020-10-25_13h06.35.570,swahili,2020.2.4,MacIntel,60,,,,,,,,,,,,,,,,,,,,,,TREASURE - DAFINA,,,,,,,,,,return,2.250545,10,0,10,0,1,,,,,,,,,,,,,,,,,,,,,,,,,,,,,,,,,,,,,,,,,,,,,,,,,,,,,,,,,,,,,,,,
,,,,,,,,,,00001527445,2020-10-25_13h06.35.570,swahili,2020.2.4,MacIntel,60,,,,,,,,,,,,,,,,,,,,,,AGENT - WAKILI,,,,,,,,,,return,2.802425,11,0,11,0,1,,,,,,,,,,,,,,,,,,,,,,,,,,,,,,,,,,,,,,,,,,,,,,,,,,,,,,,,,,,,,,,,
,,,,,,,,,,00001527445,2020-10-25_13h06.35.570,swahili,2020.2.4,MacIntel,60,,,,,,,,,,,,,,,,,,,,,,BLAME - LAWAMA,,,,,,,,,,return,2.421075,12,0,12,0,1,,,,,,,,,,,,,,,,,,,,,,,,,,,,,,,,,,,,,,,,,,,,,,,,,,,,,,,,,,,,,,,,
,,,,,,,,,,00001527445,2020-10-25_13h06.35.570,swahili,2020.2.4,MacIntel,60,,,,,,,,,,,,,,,,,,,,,,BOAT - MASHUA,,,,,,,,,,return,2.53437,13,0,13,0,1,,,,,,,,,,,,,,,,,,,,,,,,,,,,,,,,,,,,,,,,,,,,,,,,,,,,,,,,,,,,,,,,
,,,,,,,,,,00001527445,2020-10-25_13h06.35.570,swahili,2020.2.4,MacIntel,60,,,,,,,,,,,,,,,,,,,,,,BULL - FAHILI,,,,,,,,,,return,1.35135,14,0,14,0,1,,,,,,,,,,,,,,,,,,,,,,,,,,,,,,,,,,,,,,,,,,,,,,,,,,,,,,,,,,,,,,,,
,,,,,,,,,,00001527445,2020-10-25_13h06.35.570,swahili,2020.2.4,MacIntel,60,,,,,,,,,,,,,,,,,,,,,,POEM - UTENZI,,,,,,,,,,return,3.052405,15,0,15,0,1,,,,,,,,,,,,,,,,,,,,,,,,,,,,,,,,,,,,,,,,,,,,,,,,,,,,,,,,,,,,,,,,
,,,,,,,,,,00001527445,2020-10-25_13h06.35.570,swahili,2020.2.4,MacIntel,60,,,,,,,,,,,,,,,,,,,,,,TAILOR - MSHONI,,,,,,,,,,return,1.98381,16,0,16,0,1,,,,,,,,,,,,,,,,,,,,,,,,,,,,,,,,,,,,,,,,,,,,,,,,,,,,,,,,,,,,,,,,
,,,,,,,,,,00001527445,2020-10-25_13h06.35.570,swahili,2020.2.4,MacIntel,60,,,,,,,,,,,,,,,,,,,,,,CHEESE - JIBINI,,,,,,,,,,return,1.96805,17,0,17,0,1,,,,,,,,,,,,,,,,,,,,,,,,,,,,,,,,,,,,,,,,,,,,,,,,,,,,,,,,,,,,,,,,
,,,,,,,,,,00001527445,2020-10-25_13h06.35.570,swahili,2020.2.4,MacIntel,60,,,,,,,,,,,,,,,,,,,,,,BRIBE - RUSHWA,,,,,,,,,,return,2.404195,18,0,18,0,1,,,,,,,,,,,,,,,,,,,,,,,,,,,,,,,,,,,,,,,,,,,,,,,,,,,,,,,,,,,,,,,,
,,,,,,,,,,00001527445,2020-10-25_13h06.35.570,swahili,2020.2.4,MacIntel,60,,,,,,,,,,,,,,,,,,,,,,MERCHANT - TAJIRI,,,,,,,,,,return,3.46896,19,0,19,0,1,,,,,,,,,,,,,,,,,,,,,,,,,,,,,,,,,,,,,,,,,,,,,,,,,,,,,,,,,,,,,,,,
,,,,,,,,,,00001527445,2020-10-25_13h06.35.570,swahili,2020.2.4,MacIntel,60,,,,,,,,,,,,,,,,,,,,,,,,,,,,,,,,,,,,,,,,0,0,0,0,1,,,,,,,,,,,,,,,,,,,,,,,,,,,,,,,,,,,,,,,,,,,,,,,,,,,,,,,,,,
,,,,,,,,,,00001527445,2020-10-25_13h06.35.570,swahili,2020.2.4,MacIntel,60,,,,,,,,,,,,,,,,,,,,,,,,,,,,,,,,,,,,,,,,1,0,1,0,1,,,,,,,,,,,,,,,,,,,,,,,,,,,,,,,,,,,,,,,,,,,,,,,,,,,,,,,,,,
,,,,,,,,,,00001527445,2020-10-25_13h06.35.570,swahili,2020.2.4,MacIntel,60,,,,,,,,,,,,,,,,,,,,,,,,,,,,,,,,,,,,,,,,,,,,,0,0,0,0,1,,,,,,,,,,,,,,,,,,,,,,,,,,,,,,,,,,,,,,,,,,,,,,,,,,,,,
,,,,,,,,,,00001527445,2020-10-25_13h06.35.570,swahili,2020.2.4,MacIntel,60,,,,,,,,,,-0.363659668,-0.214179687,1,0,0,4.43818,unsorted_card,0,0,0,0,1,,,,,,,,,,,,,,,,,,,,,,,,,,,,,,,,,,,,,,,,,,,,,,,,,,,,,,,,,,,,,,,,,,,,,,,,,,,,,,,,,
,,,,,,,,,,00001527445,2020-10-25_13h06.35.570,swahili,2020.2.4,MacIntel,60,,,,,,,,,,0.364984131,-0.004960938,1,0,0,3.42945,test_pile,1,0,1,0,1,MERCHANT - TAJIRI,,,,,,,,,,,,,,,,,,,,,,,,,,,,,,,,,,,,,,,,,,,,,,,,,,,,,,,,,,,,,,,,,,,,,,,,,,,,,,,,
,,,,,,,,,,00001527445,2020-10-25_13h06.35.570,swahili,2020.2.4,MacIntel,60,,,,,,,,,,-0.131848145,-0.077998047,1,0,0,1.64804,unsorted_card,2,0,2,0,1,,,,,,,,,,,,,,,,,,,,,,,,,,,,,,,,,,,,,,,,,,,,,,,,,,,,,,,,,,,,,,,,,,,,,,,,,,,,,,,,,
,,,,,,,,,,00001527445,2020-10-25_13h06.35.570,swahili,2020.2.4,MacIntel,60,,,,,,,,,,0.469610596,-0.053808594,1,0,0,5.465605,test_pile,3,0,3,0,1,PARROT - KASUKU,,,,,,,,,,,,,,,,,,,,,,,,,,,,,,,,,,,,,,,,,,,,,,,,,,,,,,,,,,,,,,,,,,,,,,,,,,,,,,,,
,,,,,,,,,,00001527445,2020-10-25_13h06.35.570,swahili,2020.2.4,MacIntel,60,,,,,,,,,,-0.168395996,-0.010996094,1,0,0,1.099195,unsorted_card,4,0,4,0,1,,,,,,,,,,,,,,,,,,,,,,,,,,,,,,,,,,,,,,,,,,,,,,,,,,,,,,,,,,,,,,,,,,,,,,,,,,,,,,,,,
,,,,,,,,,,00001527445,2020-10-25_13h06.35.570,swahili,2020.2.4,MacIntel,60,,,,,,,,,,0.367016602,-0.050507812,1,0,0,3.264975,test_pile,5,0,5,0,1,BULL - FAHILI,,,,,,,,,,,,,,,,,,,,,,,,,,,,,,,,,,,,,,,,,,,,,,,,,,,,,,,,,,,,,,,,,,,,,,,,,,,,,,,,
,,,,,,,,,,00001527445,2020-10-25_13h06.35.570,swahili,2020.2.4,MacIntel,60,,,,,,,,,,-0.242205811,-0.172011719,1,0,0,0.814125,unsorted_card,6,0,6,0,1,,,,,,,,,,,,,,,,,,,,,,,,,,,,,,,,,,,,,,,,,,,,,,,,,,,,,,,,,,,,,,,,,,,,,,,,,,,,,,,,,
,,,,,,,,,,00001527445,2020-10-25_13h06.35.570,swahili,2020.2.4,MacIntel,60,,,,,,,,,,0.421911621,-0.040957031,1,0,0,2.382265,test_pile,7,0,7,0,1,PLATE - SAHANI,,,,,,,,,,,,,,,,,,,,,,,,,,,,,,,,,,,,,,,,,,,,,,,,,,,,,,,,,,,,,,,,,,,,,,,,,,,,,,,,
,,,,,,,,,,00001527445,2020-10-25_13h06.35.570,swahili,2020.2.4,MacIntel,60,,,,,,,,,,-0.165258789,-0.049326172,1,0,0,1.101155,unsorted_card,8,0,8,0,1,,,,,,,,,,,,,,,,,,,,,,,,,,,,,,,,,,,,,,,,,,,,,,,,,,,,,,,,,,,,,,,,,,,,,,,,,,,,,,,,,
,,,,,,,,,,00001527445,2020-10-25_13h06.35.570,swahili,2020.2.4,MacIntel,60,,,,,,,,,,0.369567871,-0.043261719,1,0,0,2.16724,test_pile,9,0,9,0,1,YEAST - HAMIRA,,,,,,,,,,,,,,,,,,,,,,,,,,,,,,,,,,,,,,,,,,,,,,,,,,,,,,,,,,,,,,,,,,,,,,,,,,,,,,,,
,,,,,,,,,,00001527445,2020-10-25_13h06.35.570,swahili,2020.2.4,MacIntel,60,,,,,,,,,,-0.170471191,-0.101962891,1,0,0,1.080895,unsorted_card,10,0,10,0,1,,,,,,,,,,,,,,,,,,,,,,,,,,,,,,,,,,,,,,,,,,,,,,,,,,,,,,,,,,,,,,,,,,,,,,,,,,,,,,,,,
,,,,,,,,,,00001527445,2020-10-25_13h06.35.570,swahili,2020.2.4,MacIntel,60,,,,,,,,,,0.349328613,-0.092451172,1,0,0,2.59582,test_pile,11,0,11,0,1,BLAME - LAWAMA,,,,,,,,,,,,,,,,,,,,,,,,,,,,,,,,,,,,,,,,,,,,,,,,,,,,,,,,,,,,,,,,,,,,,,,,,,,,,,,,
,,,,,,,,,,00001527445,2020-10-25_13h06.35.570,swahili,2020.2.4,MacIntel,60,,,,,,,,,,-0.113262939,-0.141396484,1,0,0,0.979865,unsorted_card,12,0,12,0,1,,,,,,,,,,,,,,,,,,,,,,,,,,,,,,,,,,,,,,,,,,,,,,,,,,,,,,,,,,,,,,,,,,,,,,,,,,,,,,,,,
,,,,,,,,,,00001527445,2020-10-25_13h06.35.570,swahili,2020.2.4,MacIntel,60,,,,,,,,,,0.390887451,-0.05796875,1,0,0,2.865175,test_pile,13,0,13,0,1,OATH - YAMINI,,,,,,,,,,,,,,,,,,,,,,,,,,,,,,,,,,,,,,,,,,,,,,,,,,,,,,,,,,,,,,,,,,,,,,,,,,,,,,,,
,,,,,,,,,,00001527445,2020-10-25_13h06.35.570,swahili,2020.2.4,MacIntel,60,,,,,,,,,,-0.142547607,-0.132294922,1,0,0,0.866225,unsorted_card,14,0,14,0,1,,,,,,,,,,,,,,,,,,,,,,,,,,,,,,,,,,,,,,,,,,,,,,,,,,,,,,,,,,,,,,,,,,,,,,,,,,,,,,,,,
,,,,,,,,,,00001527445,2020-10-25_13h06.35.570,swahili,2020.2.4,MacIntel,60,,,,,,,,,,0.414752197,-0.046240234,1,0,0,1.630395,test_pile,15,0,15,0,1,CORN - NAFAKA,,,,,,,,,,,,,,,,,,,,,,,,,,,,,,,,,,,,,,,,,,,,,,,,,,,,,,,,,,,,,,,,,,,,,,,,,,,,,,,,
,,,,,,,,,,00001527445,2020-10-25_13h06.35.570,swahili,2020.2.4,MacIntel,60,,,,,,,,,,-0.115045166,-0.063310547,1,0,0,0.83246,unsorted_card,16,0,16,0,1,,,,,,,,,,,,,,,,,,,,,,,,,,,,,,,,,,,,,,,,,,,,,,,,,,,,,,,,,,,,,,,,,,,,,,,,,,,,,,,,,
,,,,,,,,,,00001527445,2020-10-25_13h06.35.570,swahili,2020.2.4,MacIntel,60,,,,,,,,,,0.340039062,-0.042089844,1,0,0,2.514575,test_pile,17,0,17,0,1,POEM - UTENZI,,,,,,,,,,,,,,,,,,,,,,,,,,,,,,,,,,,,,,,,,,,,,,,,,,,,,,,,,,,,,,,,,,,,,,,,,,,,,,,,
,,,,,,,,,,00001527445,2020-10-25_13h06.35.570,swahili,2020.2.4,MacIntel,60,,,,,,,,,,-0.233654785,-0.200566406,1,0,0,0.66552,unsorted_card,18,0,18,0,1,,,,,,,,,,,,,,,,,,,,,,,,,,,,,,,,,,,,,,,,,,,,,,,,,,,,,,,,,,,,,,,,,,,,,,,,,,,,,,,,,
,,,,,,,,,,00001527445,2020-10-25_13h06.35.570,swahili,2020.2.4,MacIntel,60,,,,,,,,,,0.39118042,-0.058085937,1,0,0,1.83233,test_pile,19,0,19,0,1,TAILOR - MSHONI,,,,,,,,,,,,,,,,,,,,,,,,,,,,,,,,,,,,,,,,,,,,,,,,,,,,,,,,,,,,,,,,,,,,,,,,,,,,,,,,
,,,,,,,,,,00001527445,2020-10-25_13h06.35.570,swahili,2020.2.4,MacIntel,60,,,,,,,,,,-0.139227295,-0.126494141,1,0,0,0.766515,unsorted_card,20,0,20,0,1,,,,,,,,,,,,,,,,,,,,,,,,,,,,,,,,,,,,,,,,,,,,,,,,,,,,,,,,,,,,,,,,,,,,,,,,,,,,,,,,,
,,,,,,,,,,00001527445,2020-10-25_13h06.35.570,swahili,2020.2.4,MacIntel,60,,,,,,,,,,0.347052002,-0.077509766,1,0,0,1.78022,test_pile,21,0,21,0,1,CHEESE - JIBINI,,,,,,,,,,,,,,,,,,,,,,,,,,,,,,,,,,,,,,,,,,,,,,,,,,,,,,,,,,,,,,,,,,,,,,,,,,,,,,,,
,,,,,,,,,,00001527445,2020-10-25_13h06.35.570,swahili,2020.2.4,MacIntel,60,,,,,,,,,,-0.16305542,-0.120322266,1,0,0,0.896755,unsorted_card,22,0,22,0,1,,,,,,,,,,,,,,,,,,,,,,,,,,,,,,,,,,,,,,,,,,,,,,,,,,,,,,,,,,,,,,,,,,,,,,,,,,,,,,,,,
,,,,,,,,,,00001527445,2020-10-25_13h06.35.570,swahili,2020.2.4,MacIntel,60,,,,,,,,,,0.336956787,-0.021220703,1,0,0,3.333505,test_pile,23,0,23,0,1,GRAPES - ZABIBU,,,,,,,,,,,,,,,,,,,,,,,,,,,,,,,,,,,,,,,,,,,,,,,,,,,,,,,,,,,,,,,,,,,,,,,,,,,,,,,,
,,,,,,,,,,00001527445,2020-10-25_13h06.35.570,swahili,2020.2.4,MacIntel,60,,,,,,,,,,-0.149194336,-0.087060547,1,0,0,0.746765,unsorted_card,24,0,24,0,1,,,,,,,,,,,,,,,,,,,,,,,,,,,,,,,,,,,,,,,,,,,,,,,,,,,,,,,,,,,,,,,,,,,,,,,,,,,,,,,,,
,,,,,,,,,,00001527445,2020-10-25_13h06.35.570,swahili,2020.2.4,MacIntel,60,,,,,,,,,,0.392193604,-0.015273438,1,0,0,1.81661,test_pile,25,0,25,0,1,GRAVE - KABURI,,,,,,,,,,,,,,,,,,,,,,,,,,,,,,,,,,,,,,,,,,,,,,,,,,,,,,,,,,,,,,,,,,,,,,,,,,,,,,,,
,,,,,,,,,,00001527445,2020-10-25_13h06.35.570,swahili,2020.2.4,MacIntel,60,,,,,,,,,,-0.114898682,-0.132109375,1,0,0,0.946895,unsorted_card,26,0,26,0,1,,,,,,,,,,,,,,,,,,,,,,,,,,,,,,,,,,,,,,,,,,,,,,,,,,,,,,,,,,,,,,,,,,,,,,,,,,,,,,,,,
,,,,,,,,,,00001527445,2020-10-25_13h06.35.570,swahili,2020.2.4,MacIntel,60,,,,,,,,,,0.338171387,-0.098837891,1,0,0,1.55001,test_pile,27,0,27,0,1,MANURE - SAMADI,,,,,,,,,,,,,,,,,,,,,,,,,,,,,,,,,,,,,,,,,,,,,,,,,,,,,,,,,,,,,,,,,,,,,,,,,,,,,,,,
,,,,,,,,,,00001527445,2020-10-25_13h06.35.570,swahili,2020.2.4,MacIntel,60,,,,,,,,,,-0.157775879,-0.102255859,1,0,0,0.96412,unsorted_card,28,0,28,0,1,,,,,,,,,,,,,,,,,,,,,,,,,,,,,,,,,,,,,,,,,,,,,,,,,,,,,,,,,,,,,,,,,,,,,,,,,,,,,,,,,
,,,,,,,,,,00001527445,2020-10-25_13h06.35.570,swahili,2020.2.4,MacIntel,60,,,,,,,,,,0.311956787,-0.128085937,1,0,0,1.349415,test_pile,29,0,29,0,1,AGENT - WAKILI,,,,,,,,,,,,,,,,,,,,,,,,,,,,,,,,,,,,,,,,,,,,,,,,,,,,,,,,,,,,,,,,,,,,,,,,,,,,,,,,
,,,,,,,,,,00001527445,2020-10-25_13h06.35.570,swahili,2020.2.4,MacIntel,60,,,,,,,,,,-0.195654297,-0.179433594,1,0,0,0.932475,unsorted_card,30,0,30,0,1,,,,,,,,,,,,,,,,,,,,,,,,,,,,,,,,,,,,,,,,,,,,,,,,,,,,,,,,,,,,,,,,,,,,,,,,,,,,,,,,,
,,,,,,,,,,00001527445,2020-10-25_13h06.35.570,swahili,2020.2.4,MacIntel,60,,,,,,,,,,0.348114014,-0.091923828,1,0,0,1.916825,test_pile,31,0,31,0,1,BRIBE - RUSHWA,,,,,,,,,,,,,,,,,,,,,,,,,,,,,,,,,,,,,,,,,,,,,,,,,,,,,,,,,,,,,,,,,,,,,,,,,,,,,,,,
,,,,,,,,,,00001527445,2020-10-25_13h06.35.570,swahili,2020.2.4,MacIntel,60,,,,,,,,,,-0.155145264,-0.145703125,1,0,0,0.6806,unsorted_card,32,0,32,0,1,,,,,,,,,,,,,,,,,,,,,,,,,,,,,,,,,,,,,,,,,,,,,,,,,,,,,,,,,,,,,,,,,,,,,,,,,,,,,,,,,
,,,,,,,,,,00001527445,2020-10-25_13h06.35.570,swahili,2020.2.4,MacIntel,60,,,,,,,,,,0.369763184,-0.092060547,1,0,0,2.13271,test_pile,33,0,33,0,1,ORPHAN - YATIMA,,,,,,,,,,,,,,,,,,,,,,,,,,,,,,,,,,,,,,,,,,,,,,,,,,,,,,,,,,,,,,,,,,,,,,,,,,,,,,,,
,,,,,,,,,,00001527445,2020-10-25_13h06.35.570,swahili,2020.2.4,MacIntel,60,,,,,,,,,,-0.136468506,-0.151787109,1,0,0,0.747245,unsorted_card,34,0,34,0,1,,,,,,,,,,,,,,,,,,,,,,,,,,,,,,,,,,,,,,,,,,,,,,,,,,,,,,,,,,,,,,,,,,,,,,,,,,,,,,,,,
,,,,,,,,,,00001527445,2020-10-25_13h06.35.570,swahili,2020.2.4,MacIntel,60,,,,,,,,,,0.405541992,-0.083320312,1,0,0,1.53293,test_pile,35,0,35,0,1,DIVORCE - TALAKA,,,,,,,,,,,,,,,,,,,,,,,,,,,,,,,,,,,,,,,,,,,,,,,,,,,,,,,,,,,,,,,,,,,,,,,,,,,,,,,,
,,,,,,,,,,00001527445,2020-10-25_13h06.35.570,swahili,2020.2.4,MacIntel,60,,,,,,,,,,-0.150085449,-0.160517578,1,0,0,0.69747,unsorted_card,36,0,36,0,1,,,,,,,,,,,,,,,,,,,,,,,,,,,,,,,,,,,,,,,,,,,,,,,,,,,,,,,,,,,,,,,,,,,,,,,,,,,,,,,,,
,,,,,,,,,,00001527445,2020-10-25_13h06.35.570,swahili,2020.2.4,MacIntel,60,,,,,,,,,,0.332568359,-0.063046875,1,0,0,1.71711,test_pile,37,0,37,0,1,BOAT - MASHUA,,,,,,,,,,,,,,,,,,,,,,,,,,,,,,,,,,,,,,,,,,,,,,,,,,,,,,,,,,,,,,,,,,,,,,,,,,,,,,,,
,,,,,,,,,,00001527445,2020-10-25_13h06.35.570,swahili,2020.2.4,MacIntel,60,,,,,,,,,,-0.108618164,-0.144257812,1,0,0,0.763045,unsorted_card,38,0,38,0,1,,,,,,,,,,,,,,,,,,,,,,,,,,,,,,,,,,,,,,,,,,,,,,,,,,,,,,,,,,,,,,,,,,,,,,,,,,,,,,,,,
,,,,,,,,,,00001527445,2020-10-25_13h06.35.570,swahili,2020.2.4,MacIntel,60,,,,,,,,,,0.355792236,-0.047705078,1,0,0,1.6987,test_pile,39,0,39,0,1,TREASURE - DAFINA,,,,,,,,,,,,,,,,,,,,,,,,,,,,,,,,,,,,,,,,,,,,,,,,,,,,,,,,,,,,,,,,,,,,,,,,,,,,,,,,
,,,,,,,,,,00001527445,2020-10-25_13h06.35.570,swahili,2020.2.4,MacIntel,60,,,,,,,,,,,,,,,,,,,,,,,,,,,,,,,,,,0,0,0,0,1,,,,,,,,,,,,,,,,,,,,,,,,,,,,,,,,,,,,,,,,,,,,,,,,,,,,,,,,,,,,,,,,
,,,,,,,,,,00001527445,2020-10-25_13h06.35.570,swahili,2020.2.4,MacIntel,60,,,,,,,,,,,,,,,,,,,,,,,,,,,,,,,,,,,,,,,return,,,,,,,,,,,2.86521,20.04824,0.431243896,-0.11296875,1,0,0,3.030455,yes,BLAME,MALAWI,incorrect,0,0,0,0,1,,,,,,,,,,,,,,,,,,,,,,,,,,,,,,,,,,,,
,,,,,,,,,,00001527445,2020-10-25_13h06.35.570,swahili,2020.2.4,MacIntel,60,,,,,,,,,,,,,,,,,,,,,,,,,,,,,,,,,,,,,,,,,,,,,,,,,,,53.132065,0.510620117,0.047265625,1,0,0,0.88372,yes,OATH,MALAWI,incorrect,1,0,1,0,1,,,,,,,,,,,,,,,,,,,,,,,,,,,,,,,,,,,,
,,,,,,,,,,00001527445,2020-10-25_13h06.35.570,swahili,2020.2.4,MacIntel,60,,,,,,,,,,,,,,,,,,,,,,,,,,,,,,,,,,,,,,,,,,,,,,,,,,,3.59881,0.409344482,-0.190859375,1,0,0,0.70006,yes,GRAPES,ZABIBU,incorrect,2,0,2,0,1,,,,,,,,,,,,,,,,,,,,,,,,,,,,,,,,,,,,
,,,,,,,,,,00001527445,2020-10-25_13h06.35.570,swahili,2020.2.4,MacIntel,60,,,,,,,,,,,,,,,,,,,,,,,,,,,,,,,,,,,,,,,,,,,,,,,,,,,8.964605,0.417059326,-0.185527344,1,0,0,0.83388,yes,MERCHANT,TAJIRI,incorrect,3,0,3,0,1,,,,,,,,,,,,,,,,,,,,,,,,,,,,,,,,,,,,
,,,,,,,,,,00001527445,2020-10-25_13h06.35.570,swahili,2020.2.4,MacIntel,60,,,,,,,,,,,,,,,,,,,,,,,,,,,,,,,,,,,,,,,,,,,,,,,,,,,3.01501,0.418029785,-0.183183594,1,0,0,0.715795,yes,POEM,UTENZI,incorrect,4,0,4,0,1,,,,,,,,,,,,,,,,,,,,,,,,,,,,,,,,,,,,
,,,,,,,,,,00001527445,2020-10-25_13h06.35.570,swahili,2020.2.4,MacIntel,60,,,,,,,,,,,,,,,,,,,,,,,,,,,,,,,,,,,,,,,,,,,,,,,,,,,8.1649,0.341796875,-0.284414063,1,0,0,0.7337,yes,BOAT,MASHOA,incorrect,5,0,5,0,1,,,,,,,,,,,,,,,,,,,,,,,,,,,,,,,,,,,,
,,,,,,,,,,00001527445,2020-10-25_13h06.35.570,swahili,2020.2.4,MacIntel,60,,,,,,,,,,,,,,,,,,,,,,,,,,,,,,,,,,,,,,,,,,,,,,,,,,,4.647285,0.330108643,-0.291054688,1,0,0,0.616815,yes,BULL,MALAWI,incorrect,6,0,6,0,1,,,,,,,,,,,,,,,,,,,,,,,,,,,,,,,,,,,,
,,,,,,,,,,00001527445,2020-10-25_13h06.35.570,swahili,2020.2.4,MacIntel,60,,,,,,,,,,,,,,,,,,,,,,,,,,,,,,,,,,,,,,,,,,,,,,,,,,,5.76572,0.347009277,-0.158251953,1,0,0,0.666505,yes,PARROT,MALAWI,incorrect,7,0,7,0,1,,,,,,,,,,,,,,,,,,,,,,,,,,,,,,,,,,,,
,,,,,,,,,,00001527445,2020-10-25_13h06.35.570,swahili,2020.2.4,MacIntel,60,,,,,,,,,,,,,,,,,,,,,,,,,,,,,,,,,,,,,,,,,,,,,,,,,,,6.015465,0.301379395,-0.297333984,1,0,0,0.49963,yes,PLATE,PASHINI,incorrect,8,0,8,0,1,,,,,,,,,,,,,,,,,,,,,,,,,,,,,,,,,,,,
,,,,,,,,,,00001527445,2020-10-25_13h06.35.570,swahili,2020.2.4,MacIntel,60,,,,,,,,,,,,,,,,,,,,,,,,,,,,,,,,,,,,,,,,,,,,,,,,,,,14.09878,0.300732422,-0.2275,1,0,0,0.783205,yes,MANURE,SADAMI,incorrect,9,0,9,0,1,,,,,,,,,,,,,,,,,,,,,,,,,,,,,,,,,,,,
,,,,,,,,,,00001527445,2020-10-25_13h06.35.570,swahili,2020.2.4,MacIntel,60,,,,,,,,,,,,,,,,,,,,,,,,,,,,,,,,,,,,,,,,,,,,,,,,,,,7.51576,0.320330811,-0.212470703,1,0,0,0.683235,yes,AGENT,TALAKA,incorrect,10,0,10,0,1,,,,,,,,,,,,,,,,,,,,,,,,,,,,,,,,,,,,
,,,,,,,,,,00001527445,2020-10-25_13h06.35.570,swahili,2020.2.4,MacIntel,60,,,,,,,,,,,,,,,,,,,,,,,,,,,,,,,,,,,,,,,,,,,,,,,,,,,5.016835,0.360150146,-0.149511719,1,0,0,0.96579,yes,CHEESE,JIBNI,incorrect,11,0,11,0,1,,,,,,,,,,,,,,,,,,,,,,,,,,,,,,,,,,,,
,,,,,,,,,,00001527445,2020-10-25_13h06.35.570,swahili,2020.2.4,MacIntel,60,,,,,,,,,,,,,,,,,,,,,,,,,,,,,,,,,,,,,,,,,,,,,,,,,,,4.39938,0.384643555,-0.039169922,1,0,0,0.58498,yes,ORPHAN,MALAWI,incorrect,12,0,12,0,1,,,,,,,,,,,,,,,,,,,,,,,,,,,,,,,,,,,,
,,,,,,,,,,00001527445,2020-10-25_13h06.35.570,swahili,2020.2.4,MacIntel,60,,,,,,,,,,,,,,,,,,,,,,,,,,,,,,,,,,,,,,,,,,,,,,,,,,,5.93168,0.38638916,-0.094970703,1,0,0,0.64944,yes,GRAVE,MALAWI,incorrect,13,0,13,0,1,,,,,,,,,,,,,,,,,,,,,,,,,,,,,,,,,,,,
,,,,,,,,,,00001527445,2020-10-25_13h06.35.570,swahili,2020.2.4,MacIntel,60,,,,,,,,,,,,,,,,,,,,,,,,,,,,,,,,,,,,,,,,,,,,,,,,,,,13.56498,0.33503418,-0.191591797,1,0,0,0.81629,yes,DIVORCE,M,incorrect,14,0,14,0,1,,,,,,,,,,,,,,,,,,,,,,,,,,,,,,,,,,,,
,,,,,,,,,,00001527445,2020-10-25_13h06.35.570,swahili,2020.2.4,MacIntel,60,,,,,,,,,,,,,,,,,,,,,,,,,,,,,,,,,,,,,,,,,,,,,,,,,,,2.89962,0.306359863,-0.275986328,1,0,0,0.58307,yes,TAILOR,MSHONI,incorrect,15,0,15,0,1,,,,,,,,,,,,,,,,,,,,,,,,,,,,,,,,,,,,
,,,,,,,,,,00001527445,2020-10-25_13h06.35.570,swahili,2020.2.4,MacIntel,60,,,,,,,,,,,,,,,,,,,,,,,,,,,,,,,,,,,,,,,,,,,,,,,,,,,4.449645,0.40546875,-0.048164063,1,0,0,0.59922,yes,TREASURE,DAFANI,incorrect,16,0,16,0,1,,,,,,,,,,,,,,,,,,,,,,,,,,,,,,,,,,,,
,,,,,,,,,,00001527445,2020-10-25_13h06.35.570,swahili,2020.2.4,MacIntel,60,,,,,,,,,,,,,,,,,,,,,,,,,,,,,,,,,,,,,,,,,,,,,,,,,,,3.582585,0.348327637,-0.120117188,1,0,0,0.57221,yes,CORN,MALAWI,incorrect,17,0,17,0,1,,,,,,,,,,,,,,,,,,,,,,,,,,,,,,,,,,,,
,,,,,,,,,,00001527445,2020-10-25_13h06.35.570,swahili,2020.2.4,MacIntel,60,,,,,,,,,,,,,,,,,,,,,,,,,,,,,,,,,,,,,,,,,,,,,,,,,,,3.49902,0.331744385,-0.158427734,1,0,0,0.55074,yes,BRIBE,K,incorrect,18,0,18,0,1,,,,,,,,,,,,,,,,,,,,,,,,,,,,,,,,,,,,
,,,,,,,,,,00001527445,2020-10-25_13h06.35.570,swahili,2020.2.4,MacIntel,60,,,,,,,,,,,,,,,,,,,,,,,,,,,,,,,,,,,,,,,,,,,,,,,,,,,4.766045,0.330358887,-0.188759766,1,0,0,1.399315,yes,YEAST,J,incorrect,19,0,19,0,1,,,,,,,,,,,,,,,,,,,,,,,,,,,,,,,,,,,,
,,,,,,,,,,00001527445,2020-10-25_13h06.35.570,swahili,2020.2.4,MacIntel,60,,,,,,,,,,,,,,,,,,,,,,,,,,,,,,,,,,,,,,,,0,0,0,0,1,,,,,,,,,,,,,,,,,,,,,,,,,,,,,,,,,,,,,,,,,,,,,,,,,,,,,,,,,,
,,,,,,,,,,00001527445,2020-10-25_13h06.35.570,swahili,2020.2.4,MacIntel,60,,,,,,,,,,,,,,,,,,,,,,,,,,,,,,,,,,,,,,,,1,0,1,0,1,,,,,,,,,,,,,,,,,,,,,,,,,,,,,,,,,,,,,,,,,,,,,,,,,,,,,,,,,,
,,,,,,,,,,00001527445,2020-10-25_13h06.35.570,swahili,2020.2.4,MacIntel,60,,,,,,,,,,,,,,,,,,,,,,,,,,,,,,,,,,,,,,,,,,,,,1,0,1,0,1,,,,,,,,,,,,,,,,,,,,,,,,,,,,,,,,,,,,,,,,,,,,,,,,,,,,,
,,,,,,,,,,00001527445,2020-10-25_13h06.35.570,swahili,2020.2.4,MacIntel,60,,,,,,,,,,-0.3074646,0.171992188,1,0,0,1.57783,unsorted_card,0,0,0,0,1,,,,,,,,,,,,,,,,,,,,,,,,,,,,,,,,,,,,,,,,,,,,,,,,,,,,,,,,,,,,,,,,,,,,,,,,,,,,,,,,,
,,,,,,,,,,00001527445,2020-10-25_13h06.35.570,swahili,2020.2.4,MacIntel,60,,,,,,,,,,-0.294354248,0.055214844,1,0,0,5.26511,unsorted_card,1,0,1,0,1,MERCHANT - TAJIRI,,,,,,,,,,,,,,,,,,,,,,,,,,,,,,,,,,,,,,,,,,,,,,,,,,,,,,,,,,,,,,,,,,,,,,,,,,,,,,,,
,,,,,,,,,,00001527445,2020-10-25_13h06.35.570,swahili,2020.2.4,MacIntel,60,,,,,,,,,,0.50557251,0.008300781,1,0,0,5.565785,test_pile,2,0,2,0,1,MERCHANT - TAJIRI,,,,,,,,,,,,,,,,,,,,,,,,,,,,,,,,,,,,,,,,,,,,,,,,,,,,,,,,,,,,,,,,,,,,,,,,,,,,,,,,
,,,,,,,,,,00001527445,2020-10-25_13h06.35.570,swahili,2020.2.4,MacIntel,60,,,,,,,,,,-0.288031006,-0.100078125,1,0,0,0.748205,unsorted_card,3,0,3,0,1,,,,,,,,,,,,,,,,,,,,,,,,,,,,,,,,,,,,,,,,,,,,,,,,,,,,,,,,,,,,,,,,,,,,,,,,,,,,,,,,,
,,,,,,,,,,00001527445,2020-10-25_13h06.35.570,swahili,2020.2.4,MacIntel,60,,,,,,,,,,0.645623779,0.002568359,1,0,0,4.83038,test_pile,4,0,4,0,1,PARROT - KASUKU,,,,,,,,,,,,,,,,,,,,,,,,,,,,,,,,,,,,,,,,,,,,,,,,,,,,,,,,,,,,,,,,,,,,,,,,,,,,,,,,
,,,,,,,,,,00001527445,2020-10-25_13h06.35.570,swahili,2020.2.4,MacIntel,60,,,,,,,,,,-0.181390381,-0.067822266,1,0,0,0.865465,unsorted_card,5,0,5,0,1,,,,,,,,,,,,,,,,,,,,,,,,,,,,,,,,,,,,,,,,,,,,,,,,,,,,,,,,,,,,,,,,,,,,,,,,,,,,,,,,,
,,,,,,,,,,00001527445,2020-10-25_13h06.35.570,swahili,2020.2.4,MacIntel,60,,,,,,,,,,0.479034424,0.013125,1,0,0,4.86365,test_pile,6,0,6,0,1,BULL - FAHILI,,,,,,,,,,,,,,,,,,,,,,,,,,,,,,,,,,,,,,,,,,,,,,,,,,,,,,,,,,,,,,,,,,,,,,,,,,,,,,,,
,,,,,,,,,,00001527445,2020-10-25_13h06.35.570,swahili,2020.2.4,MacIntel,60,,,,,,,,,,-0.207122803,-0.048798828,1,0,0,0.76196,unsorted_card,7,0,7,0,1,,,,,,,,,,,,,,,,,,,,,,,,,,,,,,,,,,,,,,,,,,,,,,,,,,,,,,,,,,,,,,,,,,,,,,,,,,,,,,,,,
,,,,,,,,,,00001527445,2020-10-25_13h06.35.570,swahili,2020.2.4,MacIntel,60,,,,,,,,,,0.504412842,-0.073125,1,0,0,3.332905,test_pile,8,0,8,0,1,PLATE - SAHANI,,,,,,,,,,,,,,,,,,,,,,,,,,,,,,,,,,,,,,,,,,,,,,,,,,,,,,,,,,,,,,,,,,,,,,,,,,,,,,,,
,,,,,,,,,,00001527445,2020-10-25_13h06.35.570,swahili,2020.2.4,MacIntel,60,,,,,,,,,,-0.343353271,-0.058740234,1,0,0,0.83233,unsorted_card,9,0,9,0,1,,,,,,,,,,,,,,,,,,,,,,,,,,,,,,,,,,,,,,,,,,,,,,,,,,,,,,,,,,,,,,,,,,,,,,,,,,,,,,,,,
,,,,,,,,,,00001527445,2020-10-25_13h06.35.570,swahili,2020.2.4,MacIntel,60,,,,,,,,,,0.600354004,0.037636719,1,0,0,2.79704,test_pile,10,0,10,0,1,YEAST - HAMIRA,,,,,,,,,,,,,,,,,,,,,,,,,,,,,,,,,,,,,,,,,,,,,,,,,,,,,,,,,,,,,,,,,,,,,,,,,,,,,,,,
,,,,,,,,,,00001527445,2020-10-25_13h06.35.570,swahili,2020.2.4,MacIntel,60,,,,,,,,,,-0.201831055,0.007568359,1,0,0,0.78144,unsorted_card,11,0,11,0,1,,,,,,,,,,,,,,,,,,,,,,,,,,,,,,,,,,,,,,,,,,,,,,,,,,,,,,,,,,,,,,,,,,,,,,,,,,,,,,,,,
,,,,,,,,,,00001527445,2020-10-25_13h06.35.570,swahili,2020.2.4,MacIntel,60,,,,,,,,,,0.545800781,-0.030585938,1,0,0,7.96445,test_pile,12,0,12,0,1,BLAME - LAWAMA,,,,,,,,,,,,,,,,,,,,,,,,,,,,,,,,,,,,,,,,,,,,,,,,,,,,,,,,,,,,,,,,,,,,,,,,,,,,,,,,
,,,,,,,,,,00001527445,2020-10-25_13h06.35.570,swahili,2020.2.4,MacIntel,60,,,,,,,,,,-0.158911133,-0.085527344,1,0,0,1.349755,unsorted_card,13,0,13,0,1,,,,,,,,,,,,,,,,,,,,,,,,,,,,,,,,,,,,,,,,,,,,,,,,,,,,,,,,,,,,,,,,,,,,,,,,,,,,,,,,,
,,,,,,,,,,00001527445,2020-10-25_13h06.35.570,swahili,2020.2.4,MacIntel,60,,,,,,,,,,0.453900146,0.024443359,1,0,0,8.91555,test_pile,14,0,14,0,1,OATH - YAMINI,,,,,,,,,,,,,,,,,,,,,,,,,,,,,,,,,,,,,,,,,,,,,,,,,,,,,,,,,,,,,,,,,,,,,,,,,,,,,,,,
,,,,,,,,,,00001527445,2020-10-25_13h06.35.570,swahili,2020.2.4,MacIntel,60,,,,,,,,,,-0.368481445,-0.143857422,1,0,0,1.09797,unsorted_card,15,0,15,0,1,,,,,,,,,,,,,,,,,,,,,,,,,,,,,,,,,,,,,,,,,,,,,,,,,,,,,,,,,,,,,,,,,,,,,,,,,,,,,,,,,
,,,,,,,,,,00001527445,2020-10-25_13h06.35.570,swahili,2020.2.4,MacIntel,60,,,,,,,,,,0.434674072,-0.023857422,1,0,0,1.99996,test_pile,16,0,16,0,1,CORN - NAFAKA,,,,,,,,,,,,,,,,,,,,,,,,,,,,,,,,,,,,,,,,,,,,,,,,,,,,,,,,,,,,,,,,,,,,,,,,,,,,,,,,
,,,,,,,,,,00001527445,2020-10-25_13h06.35.570,swahili,2020.2.4,MacIntel,60,,,,,,,,,,-0.366900635,-0.061298828,1,0,0,0.745895,unsorted_card,17,0,17,0,1,,,,,,,,,,,,,,,,,,,,,,,,,,,,,,,,,,,,,,,,,,,,,,,,,,,,,,,,,,,,,,,,,,,,,,,,,,,,,,,,,
,,,,,,,,,,00001527445,2020-10-25_13h06.35.570,swahili,2020.2.4,MacIntel,60,,,,,,,,,,0.452642822,-0.094921875,1,0,0,1.549255,test_pile,18,0,18,0,1,POEM - UTENZI,,,,,,,,,,,,,,,,,,,,,,,,,,,,,,,,,,,,,,,,,,,,,,,,,,,,,,,,,,,,,,,,,,,,,,,,,,,,,,,,
,,,,,,,,,,00001527445,2020-10-25_13h06.35.570,swahili,2020.2.4,MacIntel,60,,,,,,,,,,-0.158532715,-0.072226562,1,0,0,0.615975,unsorted_card,19,0,19,0,1,,,,,,,,,,,,,,,,,,,,,,,,,,,,,,,,,,,,,,,,,,,,,,,,,,,,,,,,,,,,,,,,,,,,,,,,,,,,,,,,,
,,,,,,,,,,00001527445,2020-10-25_13h06.35.570,swahili,2020.2.4,MacIntel,60,,,,,,,,,,0.48671875,-0.106416016,1,0,0,1.333195,test_pile,20,0,20,0,1,TAILOR - MSHONI,,,,,,,,,,,,,,,,,,,,,,,,,,,,,,,,,,,,,,,,,,,,,,,,,,,,,,,,,,,,,,,,,,,,,,,,,,,,,,,,
,,,,,,,,,,00001527445,2020-10-25_13h06.35.570,swahili,2020.2.4,MacIntel,60,,,,,,,,,,-0.188867188,-0.099736328,1,0,0,0.58287,unsorted_card,21,0,21,0,1,,,,,,,,,,,,,,,,,,,,,,,,,,,,,,,,,,,,,,,,,,,,,,,,,,,,,,,,,,,,,,,,,,,,,,,,,,,,,,,,,
,,,,,,,,,,00001527445,2020-10-25_13h06.35.570,swahili,2020.2.4,MacIntel,60,,,,,,,,,,0.448681641,-0.055146484,1,0,0,1.278935,test_pile,22,0,22,0,1,CHEESE - JIBINI,,,,,,,,,,,,,,,,,,,,,,,,,,,,,,,,,,,,,,,,,,,,,,,,,,,,,,,,,,,,,,,,,,,,,,,,,,,,,,,,
,,,,,,,,,,00001527445,2020-10-25_13h06.35.570,swahili,2020.2.4,MacIntel,60,,,,,,,,,,-0.120172119,-0.055029297,1,0,0,0.670515,unsorted_card,23,0,23,0,1,,,,,,,,,,,,,,,,,,,,,,,,,,,,,,,,,,,,,,,,,,,,,,,,,,,,,,,,,,,,,,,,,,,,,,,,,,,,,,,,,
,,,,,,,,,,00001527445,2020-10-25_13h06.35.570,swahili,2020.2.4,MacIntel,60,,,,,,,,,,0.351721191,-0.554609375,1,0,0,2.029035,done_pile,24,0,24,0,1,GRAPES - ZABIBU,,,,,,,,,,,,,,,,,,,,,,,,,,,,,,,,,,,,,,,,,,,,,,,,,,,,,,,,,,,,,,,,,,,,,,,,,,,,,,,,
,,,,,,,,,,00001527445,2020-10-25_13h06.35.570,swahili,2020.2.4,MacIntel,60,,,,,,,,,,-0.197924805,-0.076621094,1,0,0,0.951765,unsorted_card,25,0,25,0,1,,,,,,,,,,,,,,,,,,,,,,,,,,,,,,,,,,,,,,,,,,,,,,,,,,,,,,,,,,,,,,,,,,,,,,,,,,,,,,,,,
,,,,,,,,,,00001527445,2020-10-25_13h06.35.570,swahili,2020.2.4,MacIntel,60,,,,,,,,,,0.434155273,-0.087988281,1,0,0,1.66422,test_pile,26,0,26,0,1,GRAVE - KABURI,,,,,,,,,,,,,,,,,,,,,,,,,,,,,,,,,,,,,,,,,,,,,,,,,,,,,,,,,,,,,,,,,,,,,,,,,,,,,,,,
,,,,,,,,,,00001527445,2020-10-25_13h06.35.570,swahili,2020.2.4,MacIntel,60,,,,,,,,,,-0.207897949,-0.004658203,1,0,0,0.91721,unsorted_card,27,0,27,0,1,,,,,,,,,,,,,,,,,,,,,,,,,,,,,,,,,,,,,,,,,,,,,,,,,,,,,,,,,,,,,,,,,,,,,,,,,,,,,,,,,
,,,,,,,,,,00001527445,2020-10-25_13h06.35.570,swahili,2020.2.4,MacIntel,60,,,,,,,,,,0.600787354,-0.021386719,1,0,0,1.89517,test_pile,28,0,28,0,1,MANURE - SAMADI,,,,,,,,,,,,,,,,,,,,,,,,,,,,,,,,,,,,,,,,,,,,,,,,,,,,,,,,,,,,,,,,,,,,,,,,,,,,,,,,
,,,,,,,,,,00001527445,2020-10-25_13h06.35.570,swahili,2020.2.4,MacIntel,60,,,,,,,,,,-0.205401611,0.047832031,1,0,0,0.700815,unsorted_card,29,0,29,0,1,,,,,,,,,,,,,,,,,,,,,,,,,,,,,,,,,,,,,,,,,,,,,,,,,,,,,,,,,,,,,,,,,,,,,,,,,,,,,,,,,
,,,,,,,,,,00001527445,2020-10-25_13h06.35.570,swahili,2020.2.4,MacIntel,60,,,,,,,,,,0.445928955,-0.015117188,1,0,0,1.91496,test_pile,30,0,30,0,1,AGENT - WAKILI,,,,,,,,,,,,,,,,,,,,,,,,,,,,,,,,,,,,,,,,,,,,,,,,,,,,,,,,,,,,,,,,,,,,,,,,,,,,,,,,
,,,,,,,,,,00001527445,2020-10-25_13h06.35.570,swahili,2020.2.4,MacIntel,60,,,,,,,,,,-0.430505371,0.001601562,1,0,0,0.780705,unsorted_card,31,0,31,0,1,,,,,,,,,,,,,,,,,,,,,,,,,,,,,,,,,,,,,,,,,,,,,,,,,,,,,,,,,,,,,,,,,,,,,,,,,,,,,,,,,
,,,,,,,,,,00001527445,2020-10-25_13h06.35.570,swahili,2020.2.4,MacIntel,60,,,,,,,,,,0.453741455,-0.08125,1,0,0,1.09877,test_pile,32,0,32,0,1,BRIBE - RUSHWA,,,,,,,,,,,,,,,,,,,,,,,,,,,,,,,,,,,,,,,,,,,,,,,,,,,,,,,,,,,,,,,,,,,,,,,,,,,,,,,,
,,,,,,,,,,00001527445,2020-10-25_13h06.35.570,swahili,2020.2.4,MacIntel,60,,,,,,,,,,-0.273388672,-0.076806641,1,0,0,0.63232,unsorted_card,33,0,33,0,1,,,,,,,,,,,,,,,,,,,,,,,,,,,,,,,,,,,,,,,,,,,,,,,,,,,,,,,,,,,,,,,,,,,,,,,,,,,,,,,,,
,,,,,,,,,,00001527445,2020-10-25_13h06.35.570,swahili,2020.2.4,MacIntel,60,,,,,,,,,,0.444586182,-0.013046875,1,0,0,5.53312,test_pile,34,0,34,0,1,ORPHAN - YATIMA,,,,,,,,,,,,,,,,,,,,,,,,,,,,,,,,,,,,,,,,,,,,,,,,,,,,,,,,,,,,,,,,,,,,,,,,,,,,,,,,
,,,,,,,,,,00001527445,2020-10-25_13h06.35.570,swahili,2020.2.4,MacIntel,60,,,,,,,,,,-0.168518066,0.040673828,1,0,0,0.913425,unsorted_card,35,0,35,0,1,,,,,,,,,,,,,,,,,,,,,,,,,,,,,,,,,,,,,,,,,,,,,,,,,,,,,,,,,,,,,,,,,,,,,,,,,,,,,,,,,
,,,,,,,,,,00001527445,2020-10-25_13h06.35.570,swahili,2020.2.4,MacIntel,60,,,,,,,,,,0.510552979,0.051298828,1,0,0,1.682905,test_pile,36,0,36,0,1,DIVORCE - TALAKA,,,,,,,,,,,,,,,,,,,,,,,,,,,,,,,,,,,,,,,,,,,,,,,,,,,,,,,,,,,,,,,,,,,,,,,,,,,,,,,,
,,,,,,,,,,00001527445,2020-10-25_13h06.35.570,swahili,2020.2.4,MacIntel,60,,,,,,,,,,-0.212573242,-0.004355469,1,0,0,0.67951,unsorted_card,37,0,37,0,1,,,,,,,,,,,,,,,,,,,,,,,,,,,,,,,,,,,,,,,,,,,,,,,,,,,,,,,,,,,,,,,,,,,,,,,,,,,,,,,,,
,,,,,,,,,,00001527445,2020-10-25_13h06.35.570,swahili,2020.2.4,MacIntel,60,,,,,,,,,,0.486572266,0.002304687,1,0,0,6.30181,test_pile,38,0,38,0,1,BOAT - MASHUA,,,,,,,,,,,,,,,,,,,,,,,,,,,,,,,,,,,,,,,,,,,,,,,,,,,,,,,,,,,,,,,,,,,,,,,,,,,,,,,,
,,,,,,,,,,00001527445,2020-10-25_13h06.35.570,swahili,2020.2.4,MacIntel,60,,,,,,,,,,-0.315789795,0.06203125,1,0,0,0.54641,unsorted_card,39,0,39,0,1,,,,,,,,,,,,,,,,,,,,,,,,,,,,,,,,,,,,,,,,,,,,,,,,,,,,,,,,,,,,,,,,,,,,,,,,,,,,,,,,,
,,,,,,,,,,00001527445,2020-10-25_13h06.35.570,swahili,2020.2.4,MacIntel,60,,,,,,,,,,0.504376221,0.009375,1,0,0,1.397975,test_pile,40,0,40,0,1,TREASURE - DAFINA,,,,,,,,,,,,,,,,,,,,,,,,,,,,,,,,,,,,,,,,,,,,,,,,,,,,,,,,,,,,,,,,,,,,,,,,,,,,,,,,
,,,,,,,,,,00001527445,2020-10-25_13h06.35.570,swahili,2020.2.4,MacIntel,60,,,,,,,,,,,,,,,,,,,,,,,,,,,,,,,,,,0,0,0,0,1,,,,,,,,,,,,,,,,,,,,,,,,,,,,,,,,,,,,,,,,,,,,,,,,,,,,,,,,,,,,,,,,
,,,,,,,,,,00001527445,2020-10-25_13h06.35.570,swahili,2020.2.4,MacIntel,60,,,,,,,,,,,,,,,,,,,,,,,,,,,,,,,,,,,,,,,return,,,,,,,,,,,1.366815,3.7788,0.322296143,-0.053935547,1,0,0,0.71961,yes,MERCHANT,TAJIRI,incorrect,0,0,0,0,1,,,,,,,,,,,,,,,,,,,,,,,,,,,,,,,,,,,,
,,,,,,,,,,00001527445,2020-10-25_13h06.35.570,swahili,2020.2.4,MacIntel,60,,,,,,,,,,,,,,,,,,,,,,,,,,,,,,,,,,,,,,,,,,,,,,,,,,,2.9474,0.288421631,-0.123916016,1,0,0,0.60022,yes,BOAT,MASHUA,incorrect,1,0,1,0,1,,,,,,,,,,,,,,,,,,,,,,,,,,,,,,,,,,,,
,,,,,,,,,,00001527445,2020-10-25_13h06.35.570,swahili,2020.2.4,MacIntel,60,,,,,,,,,,,,,,,,,,,,,,,,,,,,,,,,,,,,,,,,,,,,,,,,,,,10.51536,0.288421631,-0.119101562,1,0,0,0.51642,yes,ORPHAN,LAWAMA,incorrect,2,0,2,0,1,,,,,,,,,,,,,,,,,,,,,,,,,,,,,,,,,,,,
,,,,,,,,,,00001527445,2020-10-25_13h06.35.570,swahili,2020.2.4,MacIntel,60,,,,,,,,,,,,,,,,,,,,,,,,,,,,,,,,,,,,,,,,,,,,,,,,,,,5.31508,0.288421631,-0.119101562,1,0,0,0.91617,yes,AGENT,WAKILI,incorrect,3,0,3,0,1,,,,,,,,,,,,,,,,,,,,,,,,,,,,,,,,,,,,
,,,,,,,,,,00001527445,2020-10-25_13h06.35.570,swahili,2020.2.4,MacIntel,60,,,,,,,,,,,,,,,,,,,,,,,,,,,,,,,,,,,,,,,,,,,,,,,,,,,7.79849,0.288421631,-0.119101562,1,0,0,0.46635,yes,PLATE,SADIMA,incorrect,4,0,4,0,1,,,,,,,,,,,,,,,,,,,,,,,,,,,,,,,,,,,,
,,,,,,,,,,00001527445,2020-10-25_13h06.35.570,swahili,2020.2.4,MacIntel,60,,,,,,,,,,,,,,,,,,,,,,,,,,,,,,,,,,,,,,,,,,,,,,,,,,,7.69918,0.237579346,-0.338447266,1,0,0,0.499415,yes,GRAVE,SADAMI,incorrect,5,0,5,0,1,,,,,,,,,,,,,,,,,,,,,,,,,,,,,,,,,,,,
,,,,,,,,,,00001527445,2020-10-25_13h06.35.570,swahili,2020.2.4,MacIntel,60,,,,,,,,,,,,,,,,,,,,,,,,,,,,,,,,,,,,,,,,,,,,,,,,,,,11.91397,0.317254639,-0.115947266,1,0,0,0.716605,yes,BLAME,LAWAMI,incorrect,6,0,6,0,1,,,,,,,,,,,,,,,,,,,,,,,,,,,,,,,,,,,,
,,,,,,,,,,00001527445,2020-10-25_13h06.35.570,swahili,2020.2.4,MacIntel,60,,,,,,,,,,,,,,,,,,,,,,,,,,,,,,,,,,,,,,,,,,,,,,,,,,,11.99875,0.26885376,-0.233691406,1,0,0,0.615365,yes,DIVORCE,LATIMA,incorrect,7,0,7,0,1,,,,,,,,,,,,,,,,,,,,,,,,,,,,,,,,,,,,
,,,,,,,,,,00001527445,2020-10-25_13h06.35.570,swahili,2020.2.4,MacIntel,60,,,,,,,,,,,,,,,,,,,,,,,,,,,,,,,,,,,,,,,,,,,,,,,,,,,4.198435,0.293609619,-0.170068359,1,0,0,0.668615,yes,MANURE,SADAMI,incorrect,8,0,8,0,1,,,,,,,,,,,,,,,,,,,,,,,,,,,,,,,,,,,,
,,,,,,,,,,00001527445,2020-10-25_13h06.35.570,swahili,2020.2.4,MacIntel,60,,,,,,,,,,,,,,,,,,,,,,,,,,,,,,,,,,,,,,,,,,,,,,,,,,,10.24917,0.300378418,-0.110263672,1,0,0,0.666635,yes,OATH,YAMINI,incorrect,9,0,9,0,1,,,,,,,,,,,,,,,,,,,,,,,,,,,,,,,,,,,,
,,,,,,,,,,00001527445,2020-10-25_13h06.35.570,swahili,2020.2.4,MacIntel,60,,,,,,,,,,,,,,,,,,,,,,,,,,,,,,,,,,,,,,,,,,,,,,,,,,,5.66463,0.293408203,-0.105253906,1,0,0,0.51766,yes,BRIBE,RUSHWA,incorrect,10,0,10,0,1,,,,,,,,,,,,,,,,,,,,,,,,,,,,,,,,,,,,
,,,,,,,,,,00001527445,2020-10-25_13h06.35.570,swahili,2020.2.4,MacIntel,60,,,,,,,,,,,,,,,,,,,,,,,,,,,,,,,,,,,,,,,,,,,,,,,,,,,6.547255,0.317816162,-0.140126953,1,0,0,0.56691,yes,BULL,FAHILI,incorrect,11,0,11,0,1,,,,,,,,,,,,,,,,,,,,,,,,,,,,,,,,,,,,
,,,,,,,,,,00001527445,2020-10-25_13h06.35.570,swahili,2020.2.4,MacIntel,60,,,,,,,,,,,,,,,,,,,,,,,,,,,,,,,,,,,,,,,,,,,,,,,,,,,11.115065,0.317816162,-0.140126953,1,0,0,0.467005,yes,YEAST,SATAMI,incorrect,12,0,12,0,1,,,,,,,,,,,,,,,,,,,,,,,,,,,,,,,,,,,,
,,,,,,,,,,00001527445,2020-10-25_13h06.35.570,swahili,2020.2.4,MacIntel,60,,,,,,,,,,,,,,,,,,,,,,,,,,,,,,,,,,,,,,,,,,,,,,,,,,,2.28326,0.317816162,-0.140126953,1,0,0,0.64907,yes,POEM,UTENZI,incorrect,13,0,13,0,1,,,,,,,,,,,,,,,,,,,,,,,,,,,,,,,,,,,,
,,,,,,,,,,00001527445,2020-10-25_13h06.35.570,swahili,2020.2.4,MacIntel,60,,,,,,,,,,,,,,,,,,,,,,,,,,,,,,,,,,,,,,,,,,,,,,,,,,,14.207565,0.317816162,-0.140126953,1,0,0,0.76654,yes,CHEESE,JIBINI,incorrect,14,0,14,0,1,,,,,,,,,,,,,,,,,,,,,,,,,,,,,,,,,,,,
,,,,,,,,,,00001527445,2020-10-25_13h06.35.570,swahili,2020.2.4,MacIntel,60,,,,,,,,,,,,,,,,,,,,,,,,,,,,,,,,,,,,,,,,,,,,,,,,,,,4.165825,0.305700684,-0.166992188,1,0,0,0.40113,yes,TREASURE,DAFANI,incorrect,15,0,15,0,1,,,,,,,,,,,,,,,,,,,,,,,,,,,,,,,,,,,,
,,,,,,,,,,00001527445,2020-10-25_13h06.35.570,swahili,2020.2.4,MacIntel,60,,,,,,,,,,,,,,,,,,,,,,,,,,,,,,,,,,,,,,,,,,,,,,,,,,,4.53038,0.305700684,-0.166992188,1,0,0,0.40016,yes,PARROT,KASUKU,incorrect,16,0,16,0,1,,,,,,,,,,,,,,,,,,,,,,,,,,,,,,,,,,,,
,,,,,,,,,,00001527445,2020-10-25_13h06.35.570,swahili,2020.2.4,MacIntel,60,,,,,,,,,,,,,,,,,,,,,,,,,,,,,,,,,,,,,,,,,,,,,,,,,,,3.749065,0.307611084,-0.170087891,1,0,0,0.415535,yes,CORN,NAFAKA,incorrect,17,0,17,0,1,,,,,,,,,,,,,,,,,,,,,,,,,,,,,,,,,,,,
,,,,,,,,,,00001527445,2020-10-25_13h06.35.570,swahili,2020.2.4,MacIntel,60,,,,,,,,,,,,,,,,,,,,,,,,,,,,,,,,,,,,,,,,,,,,,,,,,,,4.498885,0.307611084,-0.170087891,1,0,0,0.4995,yes,TAILOR,MSHONI,incorrect,18,0,18,0,1,,,,,,,,,,,,,,,,,,,,,,,,,,,,,,,,,,,,
,,,,,,,,,,00001527445,2020-10-25_13h06.35.570,swahili,2020.2.4,MacIntel,60,,,,,,,,,,,,,,,,,,,,,,,,,,,,,,,,,,,,,,,,0,0,0,0,1,,,,,,,,,,,,,,,,,,,,,,,,,,,,,,,,,,,,,,,,,,,,,,,,,,,,,,,,,,
,,,,,,,,,,00001527445,2020-10-25_13h06.35.570,swahili,2020.2.4,MacIntel,60,,,,,,,,,,,,,,,,,,,,,,,,,,,,,,,,,,,,,,,,1,0,1,0,1,,,,,,,,,,,,,,,,,,,,,,,,,,,,,,,,,,,,,,,,,,,,,,,,,,,,,,,,,,
,,,,,,,,,,00001527445,2020-10-25_13h06.35.570,swahili,2020.2.4,MacIntel,60,,,,,,,,,,,,,,,,,,,,,,,,,,,,,,,,,,,,,,,,,,,,,2,0,2,0,1,,,,,,,,,,,,,,,,,,,,,,,,,,,,,,,,,,,,,,,,,,,,,,,,,,,,,
,,,,,,,,,,00001527445,2020-10-25_13h06.35.570,swahili,2020.2.4,MacIntel,60,,,,,,,,,,-0.43572998,-0.090175781,1,0,0,1.509685,unsorted_card,0,0,0,0,1,,,,,,,,,,,,,,,,,,,,,,,,,,,,,,,,,,,,,,,,,,,,,,,,,,,,,,,,,,,,,,,,,,,,,,,,,,,,,,,,,
,,,,,,,,,,00001527445,2020-10-25_13h06.35.570,swahili,2020.2.4,MacIntel,60,,,,,,,,,,0.616802979,-0.528349609,1,0,0,1.97981,done_pile,1,0,1,0,1,MERCHANT - TAJIRI,,,,,,,,,,,,,,,,,,,,,,,,,,,,,,,,,,,,,,,,,,,,,,,,,,,,,,,,,,,,,,,,,,,,,,,,,,,,,,,,
,,,,,,,,,,00001527445,2020-10-25_13h06.35.570,swahili,2020.2.4,MacIntel,60,,,,,,,,,,-0.236486816,-0.018916016,1,0,0,1.166835,unsorted_card,2,0,2,0,1,,,,,,,,,,,,,,,,,,,,,,,,,,,,,,,,,,,,,,,,,,,,,,,,,,,,,,,,,,,,,,,,,,,,,,,,,,,,,,,,,
,,,,,,,,,,00001527445,2020-10-25_13h06.35.570,swahili,2020.2.4,MacIntel,60,,,,,,,,,,0.392102051,-0.599648437,1,0,0,2.73163,done_pile,3,0,3,0,1,PARROT - KASUKU,,,,,,,,,,,,,,,,,,,,,,,,,,,,,,,,,,,,,,,,,,,,,,,,,,,,,,,,,,,,,,,,,,,,,,,,,,,,,,,,
,,,,,,,,,,00001527445,2020-10-25_13h06.35.570,swahili,2020.2.4,MacIntel,60,,,,,,,,,,-0.061651611,-0.174755859,1,0,0,0.632945,unsorted_card,4,0,4,0,1,,,,,,,,,,,,,,,,,,,,,,,,,,,,,,,,,,,,,,,,,,,,,,,,,,,,,,,,,,,,,,,,,,,,,,,,,,,,,,,,,
,,,,,,,,,,00001527445,2020-10-25_13h06.35.570,swahili,2020.2.4,MacIntel,60,,,,,,,,,,0.405773926,-0.629375,1,0,0,1.31601,done_pile,5,0,5,0,1,BULL - FAHILI,,,,,,,,,,,,,,,,,,,,,,,,,,,,,,,,,,,,,,,,,,,,,,,,,,,,,,,,,,,,,,,,,,,,,,,,,,,,,,,,
,,,,,,,,,,00001527445,2020-10-25_13h06.35.570,swahili,2020.2.4,MacIntel,60,,,,,,,,,,-0.302764893,-0.030371094,1,0,0,0.715675,unsorted_card,6,0,6,0,1,,,,,,,,,,,,,,,,,,,,,,,,,,,,,,,,,,,,,,,,,,,,,,,,,,,,,,,,,,,,,,,,,,,,,,,,,,,,,,,,,
,,,,,,,,,,00001527445,2020-10-25_13h06.35.570,swahili,2020.2.4,MacIntel,60,,,,,,,,,,0.470825195,-0.064980469,1,0,0,1.399685,test_pile,7,0,7,0,1,PLATE - SAHANI,,,,,,,,,,,,,,,,,,,,,,,,,,,,,,,,,,,,,,,,,,,,,,,,,,,,,,,,,,,,,,,,,,,,,,,,,,,,,,,,
,,,,,,,,,,00001527445,2020-10-25_13h06.35.570,swahili,2020.2.4,MacIntel,60,,,,,,,,,,0.074993896,-0.052685547,1,0,0,0.665395,unsorted_card,8,0,8,0,1,,,,,,,,,,,,,,,,,,,,,,,,,,,,,,,,,,,,,,,,,,,,,,,,,,,,,,,,,,,,,,,,,,,,,,,,,,,,,,,,,
,,,,,,,,,,00001527445,2020-10-25_13h06.35.570,swahili,2020.2.4,MacIntel,60,,,,,,,,,,0.546105957,0.003457031,1,0,0,4.930925,test_pile,9,0,9,0,1,YEAST - HAMIRA,,,,,,,,,,,,,,,,,,,,,,,,,,,,,,,,,,,,,,,,,,,,,,,,,,,,,,,,,,,,,,,,,,,,,,,,,,,,,,,,
,,,,,,,,,,00001527445,2020-10-25_13h06.35.570,swahili,2020.2.4,MacIntel,60,,,,,,,,,,-0.283276367,-0.085390625,1,0,0,1.982425,unsorted_card,10,0,10,0,1,,,,,,,,,,,,,,,,,,,,,,,,,,,,,,,,,,,,,,,,,,,,,,,,,,,,,,,,,,,,,,,,,,,,,,,,,,,,,,,,,
,,,,,,,,,,00001527445,2020-10-25_13h06.35.570,swahili,2020.2.4,MacIntel,60,,,,,,,,,,0.553686523,-0.016025391,1,0,0,9.63212,test_pile,11,0,11,0,1,BLAME - LAWAMA,,,,,,,,,,,,,,,,,,,,,,,,,,,,,,,,,,,,,,,,,,,,,,,,,,,,,,,,,,,,,,,,,,,,,,,,,,,,,,,,
,,,,,,,,,,00001527445,2020-10-25_13h06.35.570,swahili,2020.2.4,MacIntel,60,,,,,,,,,,-0.261859131,-0.174150391,1,0,0,1.014915,unsorted_card,12,0,12,0,1,,,,,,,,,,,,,,,,,,,,,,,,,,,,,,,,,,,,,,,,,,,,,,,,,,,,,,,,,,,,,,,,,,,,,,,,,,,,,,,,,
,,,,,,,,,,00001527445,2020-10-25_13h06.35.570,swahili,2020.2.4,MacIntel,60,,,,,,,,,,0.48727417,-0.075683594,1,0,0,3.50033,test_pile,13,0,13,0,1,OATH - YAMINI,,,,,,,,,,,,,,,,,,,,,,,,,,,,,,,,,,,,,,,,,,,,,,,,,,,,,,,,,,,,,,,,,,,,,,,,,,,,,,,,
,,,,,,,,,,00001527445,2020-10-25_13h06.35.570,swahili,2020.2.4,MacIntel,60,,,,,,,,,,-0.280419922,-0.105136719,1,0,0,0.746865,unsorted_card,14,0,14,0,1,,,,,,,,,,,,,,,,,,,,,,,,,,,,,,,,,,,,,,,,,,,,,,,,,,,,,,,,,,,,,,,,,,,,,,,,,,,,,,,,,
,,,,,,,,,,00001527445,2020-10-25_13h06.35.570,swahili,2020.2.4,MacIntel,60,,,,,,,,,,0.518377686,-0.438222656,1,0,0,1.932575,done_pile,15,0,15,0,1,CORN - NAFAKA,,,,,,,,,,,,,,,,,,,,,,,,,,,,,,,,,,,,,,,,,,,,,,,,,,,,,,,,,,,,,,,,,,,,,,,,,,,,,,,,
,,,,,,,,,,00001527445,2020-10-25_13h06.35.570,swahili,2020.2.4,MacIntel,60,,,,,,,,,,-0.330279541,-0.17671875,1,0,0,0.783095,unsorted_card,16,0,16,0,1,,,,,,,,,,,,,,,,,,,,,,,,,,,,,,,,,,,,,,,,,,,,,,,,,,,,,,,,,,,,,,,,,,,,,,,,,,,,,,,,,
,,,,,,,,,,00001527445,2020-10-25_13h06.35.570,swahili,2020.2.4,MacIntel,60,,,,,,,,,,0.461999512,-0.536669922,1,0,0,1.183805,done_pile,17,0,17,0,1,POEM - UTENZI,,,,,,,,,,,,,,,,,,,,,,,,,,,,,,,,,,,,,,,,,,,,,,,,,,,,,,,,,,,,,,,,,,,,,,,,,,,,,,,,
,,,,,,,,,,00001527445,2020-10-25_13h06.35.570,swahili,2020.2.4,MacIntel,60,,,,,,,,,,-0.157757568,-0.037363281,1,0,0,0.64612,unsorted_card,18,0,18,0,1,,,,,,,,,,,,,,,,,,,,,,,,,,,,,,,,,,,,,,,,,,,,,,,,,,,,,,,,,,,,,,,,,,,,,,,,,,,,,,,,,
,,,,,,,,,,00001527445,2020-10-25_13h06.35.570,swahili,2020.2.4,MacIntel,60,,,,,,,,,,0.43503418,-0.508300781,1,0,0,1.183055,done_pile,19,0,19,0,1,TAILOR - MSHONI,,,,,,,,,,,,,,,,,,,,,,,,,,,,,,,,,,,,,,,,,,,,,,,,,,,,,,,,,,,,,,,,,,,,,,,,,,,,,,,,
,,,,,,,,,,00001527445,2020-10-25_13h06.35.570,swahili,2020.2.4,MacIntel,60,,,,,,,,,,-0.166723633,-0.066269531,1,0,0,0.663555,unsorted_card,20,0,20,0,1,,,,,,,,,,,,,,,,,,,,,,,,,,,,,,,,,,,,,,,,,,,,,,,,,,,,,,,,,,,,,,,,,,,,,,,,,,,,,,,,,
,,,,,,,,,,00001527445,2020-10-25_13h06.35.570,swahili,2020.2.4,MacIntel,60,,,,,,,,,,0.419897461,-0.480742187,1,0,0,2.46492,done_pile,21,0,21,0,1,CHEESE - JIBINI,,,,,,,,,,,,,,,,,,,,,,,,,,,,,,,,,,,,,,,,,,,,,,,,,,,,,,,,,,,,,,,,,,,,,,,,,,,,,,,,
,,,,,,,,,,00001527445,2020-10-25_13h06.35.570,swahili,2020.2.4,MacIntel,60,,,,,,,,,,-0.357110596,0.025576172,1,0,0,0.7156,unsorted_card,22,0,22,0,1,,,,,,,,,,,,,,,,,,,,,,,,,,,,,,,,,,,,,,,,,,,,,,,,,,,,,,,,,,,,,,,,,,,,,,,,,,,,,,,,,
,,,,,,,,,,00001527445,2020-10-25_13h06.35.570,swahili,2020.2.4,MacIntel,60,,,,,,,,,,0.494268799,-0.007734375,1,0,0,7.74931,test_pile,23,0,23,0,1,GRAVE - KABURI,,,,,,,,,,,,,,,,,,,,,,,,,,,,,,,,,,,,,,,,,,,,,,,,,,,,,,,,,,,,,,,,,,,,,,,,,,,,,,,,
,,,,,,,,,,00001527445,2020-10-25_13h06.35.570,swahili,2020.2.4,MacIntel,60,,,,,,,,,,-0.320166016,0.053242188,1,0,0,1.165885,unsorted_card,24,0,24,0,1,,,,,,,,,,,,,,,,,,,,,,,,,,,,,,,,,,,,,,,,,,,,,,,,,,,,,,,,,,,,,,,,,,,,,,,,,,,,,,,,,
,,,,,,,,,,00001527445,2020-10-25_13h06.35.570,swahili,2020.2.4,MacIntel,60,,,,,,,,,,0.536401367,0.034228516,1,0,0,2.93125,test_pile,25,0,25,0,1,MANURE - SAMADI,,,,,,,,,,,,,,,,,,,,,,,,,,,,,,,,,,,,,,,,,,,,,,,,,,,,,,,,,,,,,,,,,,,,,,,,,,,,,,,,
,,,,,,,,,,00001527445,2020-10-25_13h06.35.570,swahili,2020.2.4,MacIntel,60,,,,,,,,,,-0.215423584,0.06703125,1,0,0,0.94973,unsorted_card,26,0,26,0,1,,,,,,,,,,,,,,,,,,,,,,,,,,,,,,,,,,,,,,,,,,,,,,,,,,,,,,,,,,,,,,,,,,,,,,,,,,,,,,,,,
,,,,,,,,,,00001527445,2020-10-25_13h06.35.570,swahili,2020.2.4,MacIntel,60,,,,,,,,,,0.498950195,-0.013603516,1,0,0,1.94817,test_pile,27,0,27,0,1,AGENT - WAKILI,,,,,,,,,,,,,,,,,,,,,,,,,,,,,,,,,,,,,,,,,,,,,,,,,,,,,,,,,,,,,,,,,,,,,,,,,,,,,,,,
,,,,,,,,,,00001527445,2020-10-25_13h06.35.570,swahili,2020.2.4,MacIntel,60,,,,,,,,,,-0.263500977,0.020693359,1,0,0,0.78263,unsorted_card,28,0,28,0,1,,,,,,,,,,,,,,,,,,,,,,,,,,,,,,,,,,,,,,,,,,,,,,,,,,,,,,,,,,,,,,,,,,,,,,,,,,,,,,,,,
,,,,,,,,,,00001527445,2020-10-25_13h06.35.570,swahili,2020.2.4,MacIntel,60,,,,,,,,,,0.383068848,-0.493691406,1,0,0,2.43253,done_pile,29,0,29,0,1,BRIBE - RUSHWA,,,,,,,,,,,,,,,,,,,,,,,,,,,,,,,,,,,,,,,,,,,,,,,,,,,,,,,,,,,,,,,,,,,,,,,,,,,,,,,,
,,,,,,,,,,00001527445,2020-10-25_13h06.35.570,swahili,2020.2.4,MacIntel,60,,,,,,,,,,-0.254595947,-0.017080078,1,0,0,0.747895,unsorted_card,30,0,30,0,1,,,,,,,,,,,,,,,,,,,,,,,,,,,,,,,,,,,,,,,,,,,,,,,,,,,,,,,,,,,,,,,,,,,,,,,,,,,,,,,,,
,,,,,,,,,,00001527445,2020-10-25_13h06.35.570,swahili,2020.2.4,MacIntel,60,,,,,,,,,,0.497937012,-0.012207031,1,0,0,2.133145,test_pile,31,0,31,0,1,ORPHAN - YATIMA,,,,,,,,,,,,,,,,,,,,,,,,,,,,,,,,,,,,,,,,,,,,,,,,,,,,,,,,,,,,,,,,,,,,,,,,,,,,,,,,
,,,,,,,,,,00001527445,2020-10-25_13h06.35.570,swahili,2020.2.4,MacIntel,60,,,,,,,,,,-0.229241943,0.086914063,1,0,0,0.651515,unsorted_card,32,0,32,0,1,,,,,,,,,,,,,,,,,,,,,,,,,,,,,,,,,,,,,,,,,,,,,,,,,,,,,,,,,,,,,,,,,,,,,,,,,,,,,,,,,
,,,,,,,,,,00001527445,2020-10-25_13h06.35.570,swahili,2020.2.4,MacIntel,60,,,,,,,,,,0.553045654,0.041611328,1,0,0,1.43067,test_pile,33,0,33,0,1,DIVORCE - TALAKA,,,,,,,,,,,,,,,,,,,,,,,,,,,,,,,,,,,,,,,,,,,,,,,,,,,,,,,,,,,,,,,,,,,,,,,,,,,,,,,,
,,,,,,,,,,00001527445,2020-10-25_13h06.35.570,swahili,2020.2.4,MacIntel,60,,,,,,,,,,-0.351611328,0.074697266,1,0,0,1.284055,unsorted_card,34,0,34,0,1,,,,,,,,,,,,,,,,,,,,,,,,,,,,,,,,,,,,,,,,,,,,,,,,,,,,,,,,,,,,,,,,,,,,,,,,,,,,,,,,,
,,,,,,,,,,00001527445,2020-10-25_13h06.35.570,swahili,2020.2.4,MacIntel,60,,,,,,,,,,0.487280273,-0.017128906,1,0,0,2.29598,test_pile,35,0,35,0,1,BOAT - MASHUA,,,,,,,,,,,,,,,,,,,,,,,,,,,,,,,,,,,,,,,,,,,,,,,,,,,,,,,,,,,,,,,,,,,,,,,,,,,,,,,,
,,,,,,,,,,00001527445,2020-10-25_13h06.35.570,swahili,2020.2.4,MacIntel,60,,,,,,,,,,-0.406433105,0.029814453,1,0,0,0.79895,unsorted_card,36,0,36,0,1,,,,,,,,,,,,,,,,,,,,,,,,,,,,,,,,,,,,,,,,,,,,,,,,,,,,,,,,,,,,,,,,,,,,,,,,,,,,,,,,,
,,,,,,,,,,00001527445,2020-10-25_13h06.35.570,swahili,2020.2.4,MacIntel,60,,,,,,,,,,0.46463623,0.006445312,1,0,0,1.198955,test_pile,37,0,37,0,1,TREASURE - DAFINA,,,,,,,,,,,,,,,,,,,,,,,,,,,,,,,,,,,,,,,,,,,,,,,,,,,,,,,,,,,,,,,,,,,,,,,,,,,,,,,,
,,,,,,,,,,00001527445,2020-10-25_13h06.35.570,swahili,2020.2.4,MacIntel,60,,,,,,,,,,,,,,,,,,,,,,,,,,,,,,,,,,0,0,0,0,1,,,,,,,,,,,,,,,,,,,,,,,,,,,,,,,,,,,,,,,,,,,,,,,,,,,,,,,,,,,,,,,,
,,,,,,,,,,00001527445,2020-10-25_13h06.35.570,swahili,2020.2.4,MacIntel,60,,,,,,,,,,,,,,,,,,,,,,,,,,,,,,,,,,,,,,,return,,,,,,,,,,,0.929295,2.2319,0.283404541,-0.091777344,1,0,0,0.798395,yes,AGENT,WAKILI,incorrect,0,0,0,0,1,,,,,,,,,,,,,,,,,,,,,,,,,,,,,,,,,,,,
,,,,,,,,,,00001527445,2020-10-25_13h06.35.570,swahili,2020.2.4,MacIntel,60,,,,,,,,,,,,,,,,,,,,,,,,,,,,,,,,,,,,,,,,,,,,,,,,,,,3.64779,0.282672119,-0.090019531,1,0,0,0.483195,yes,OATH,YAMINI,incorrect,1,0,1,0,1,,,,,,,,,,,,,,,,,,,,,,,,,,,,,,,,,,,,
,,,,,,,,,,00001527445,2020-10-25_13h06.35.570,swahili,2020.2.4,MacIntel,60,,,,,,,,,,,,,,,,,,,,,,,,,,,,,,,,,,,,,,,,,,,,,,,,,,,4.87984,0.282672119,-0.090019531,1,0,0,0.850545,yes,MANURE,SADAMI,incorrect,2,0,2,0,1,,,,,,,,,,,,,,,,,,,,,,,,,,,,,,,,,,,,
,,,,,,,,,,00001527445,2020-10-25_13h06.35.570,swahili,2020.2.4,MacIntel,60,,,,,,,,,,,,,,,,,,,,,,,,,,,,,,,,,,,,,,,,,,,,,,,,,,,3.96578,0.282672119,-0.090019531,1,0,0,0.38182,yes,YEAST,HAMIRA,incorrect,3,0,3,0,1,,,,,,,,,,,,,,,,,,,,,,,,,,,,,,,,,,,,
,,,,,,,,,,00001527445,2020-10-25_13h06.35.570,swahili,2020.2.4,MacIntel,60,,,,,,,,,,,,,,,,,,,,,,,,,,,,,,,,,,,,,,,,,,,,,,,,,,,2.08358,0.282672119,-0.090019531,1,0,0,0.398865,yes,BLAME,LAWAMA,incorrect,4,0,4,0,1,,,,,,,,,,,,,,,,,,,,,,,,,,,,,,,,,,,,
,,,,,,,,,,00001527445,2020-10-25_13h06.35.570,swahili,2020.2.4,MacIntel,60,,,,,,,,,,,,,,,,,,,,,,,,,,,,,,,,,,,,,,,,,,,,,,,,,,,2.86611,0.282672119,-0.090019531,1,0,0,0.582375,yes,GRAVE,KABURI,incorrect,5,0,5,0,1,,,,,,,,,,,,,,,,,,,,,,,,,,,,,,,,,,,,
,,,,,,,,,,00001527445,2020-10-25_13h06.35.570,swahili,2020.2.4,MacIntel,60,,,,,,,,,,,,,,,,,,,,,,,,,,,,,,,,,,,,,,,,,,,,,,,,,,,1.981075,0.282672119,-0.090019531,1,0,0,0.68376,yes,BOAT,MASHUA,incorrect,6,0,6,0,1,,,,,,,,,,,,,,,,,,,,,,,,,,,,,,,,,,,,
,,,,,,,,,,00001527445,2020-10-25_13h06.35.570,swahili,2020.2.4,MacIntel,60,,,,,,,,,,,,,,,,,,,,,,,,,,,,,,,,,,,,,,,,,,,,,,,,,,,3.96549,0.282672119,-0.090019531,1,0,0,0.333345,yes,PLATE,SAHANI,incorrect,7,0,7,0,1,,,,,,,,,,,,,,,,,,,,,,,,,,,,,,,,,,,,
,,,,,,,,,,00001527445,2020-10-25_13h06.35.570,swahili,2020.2.4,MacIntel,60,,,,,,,,,,,,,,,,,,,,,,,,,,,,,,,,,,,,,,,,,,,,,,,,,,,8.147365,0.283398437,-0.090625,1,0,0,0.399765,yes,ORPHAN,YATIMA,incorrect,8,0,8,0,1,,,,,,,,,,,,,,,,,,,,,,,,,,,,,,,,,,,,
,,,,,,,,,,00001527445,2020-10-25_13h06.35.570,swahili,2020.2.4,MacIntel,60,,,,,,,,,,,,,,,,,,,,,,,,,,,,,,,,,,,,,,,,,,,,,,,,,,,4.06697,0.283398437,-0.090625,1,0,0,0.39914,yes,DIVORCE,TALAKA,incorrect,9,0,9,0,1,,,,,,,,,,,,,,,,,,,,,,,,,,,,,,,,,,,,
,,,,,,,,,,00001527445,2020-10-25_13h06.35.570,swahili,2020.2.4,MacIntel,60,,,,,,,,,,,,,,,,,,,,,,,,,,,,,,,,,,,,,,,,,,,,,,,,,,,4.082255,0.283398437,-0.090625,1,0,0,0.332565,yes,TREASURE,DAFINA,incorrect,10,0,10,0,1,,,,,,,,,,,,,,,,,,,,,,,,,,,,,,,,,,,,
,,,,,,,,,,00001527445,2020-10-25_13h06.35.570,swahili,2020.2.4,MacIntel,60,,,,,,,,,,,,,,,,,,,,,,,,,,,,,,,,,,,,,,,,0,0,0,0,1,,,,,,,,,,,,,,,,,,,,,,,,,,,,,,,,,,,,,,,,,,,,,,,,,,,,,,,,,,
,,,,,,,,,,00001527445,2020-10-25_13h06.35.570,swahili,2020.2.4,MacIntel,60,,,,,,,,,,,,,,,,,,,,,,,,,,,,,,,,,,,,,,,,1,0,1,0,1,,,,,,,,,,,,,,,,,,,,,,,,,,,,,,,,,,,,,,,,,,,,,,,,,,,,,,,,,,
,,,,,,,,,,00001527445,2020-10-25_13h06.35.570,swahili,2020.2.4,MacIntel,60,,,,,,,,,,,,,,,,,,,,,,,,,,,,,,,,,,,,,,,,,,,,,3,0,3,0,1,,,,,,,,,,,,,,,,,,,,,,,,,,,,,,,,,,,,,,,,,,,,,,,,,,,,,
,,,,,,,,,,00001527445,2020-10-25_13h06.35.570,swahili,2020.2.4,MacIntel,60,,,,,,,,,,-0.290057373,0.016894531,1,0,0,1.86673,unsorted_card,0,0,0,0,1,,,,,,,,,,,,,,,,,,,,,,,,,,,,,,,,,,,,,,,,,,,,,,,,,,,,,,,,,,,,,,,,,,,,,,,,,,,,,,,,,
,,,,,,,,,,00001527445,2020-10-25_13h06.35.570,swahili,2020.2.4,MacIntel,60,,,,,,,,,,0.527484131,-0.014414062,1,0,0,1.56653,test_pile,1,0,1,0,1,PLATE - SAHANI,,,,,,,,,,,,,,,,,,,,,,,,,,,,,,,,,,,,,,,,,,,,,,,,,,,,,,,,,,,,,,,,,,,,,,,,,,,,,,,,
,,,,,,,,,,00001527445,2020-10-25_13h06.35.570,swahili,2020.2.4,MacIntel,60,,,,,,,,,,-0.193273926,0.070126953,1,0,0,0.86397,unsorted_card,2,0,2,0,1,,,,,,,,,,,,,,,,,,,,,,,,,,,,,,,,,,,,,,,,,,,,,,,,,,,,,,,,,,,,,,,,,,,,,,,,,,,,,,,,,
,,,,,,,,,,00001527445,2020-10-25_13h06.35.570,swahili,2020.2.4,MacIntel,60,,,,,,,,,,0.438348389,-0.038339844,1,0,0,1.55532,test_pile,3,0,3,0,1,YEAST - HAMIRA,,,,,,,,,,,,,,,,,,,,,,,,,,,,,,,,,,,,,,,,,,,,,,,,,,,,,,,,,,,,,,,,,,,,,,,,,,,,,,,,
,,,,,,,,,,00001527445,2020-10-25_13h06.35.570,swahili,2020.2.4,MacIntel,60,,,,,,,,,,-0.26418457,-0.027763672,1,0,0,0.59411,unsorted_card,4,0,4,0,1,,,,,,,,,,,,,,,,,,,,,,,,,,,,,,,,,,,,,,,,,,,,,,,,,,,,,,,,,,,,,,,,,,,,,,,,,,,,,,,,,
,,,,,,,,,,00001527445,2020-10-25_13h06.35.570,swahili,2020.2.4,MacIntel,60,,,,,,,,,,0.550927734,-0.032636719,1,0,0,1.28266,test_pile,5,0,5,0,1,BLAME - LAWAMA,,,,,,,,,,,,,,,,,,,,,,,,,,,,,,,,,,,,,,,,,,,,,,,,,,,,,,,,,,,,,,,,,,,,,,,,,,,,,,,,
,,,,,,,,,,00001527445,2020-10-25_13h06.35.570,swahili,2020.2.4,MacIntel,60,,,,,,,,,,-0.340325928,-0.056308594,1,0,0,0.54869,unsorted_card,6,0,6,0,1,,,,,,,,,,,,,,,,,,,,,,,,,,,,,,,,,,,,,,,,,,,,,,,,,,,,,,,,,,,,,,,,,,,,,,,,,,,,,,,,,
,,,,,,,,,,00001527445,2020-10-25_13h06.35.570,swahili,2020.2.4,MacIntel,60,,,,,,,,,,0.411297607,-0.072138672,1,0,0,1.097405,test_pile,7,0,7,0,1,OATH - YAMINI,,,,,,,,,,,,,,,,,,,,,,,,,,,,,,,,,,,,,,,,,,,,,,,,,,,,,,,,,,,,,,,,,,,,,,,,,,,,,,,,
,,,,,,,,,,00001527445,2020-10-25_13h06.35.570,swahili,2020.2.4,MacIntel,60,,,,,,,,,,-0.44185791,-0.042714844,1,0,0,1.232705,unsorted_card,8,0,8,0,1,,,,,,,,,,,,,,,,,,,,,,,,,,,,,,,,,,,,,,,,,,,,,,,,,,,,,,,,,,,,,,,,,,,,,,,,,,,,,,,,,
,,,,,,,,,,00001527445,2020-10-25_13h06.35.570,swahili,2020.2.4,MacIntel,60,,,,,,,,,,0.541455078,0.005185547,1,0,0,1.049155,test_pile,9,0,9,0,1,GRAVE - KABURI,,,,,,,,,,,,,,,,,,,,,,,,,,,,,,,,,,,,,,,,,,,,,,,,,,,,,,,,,,,,,,,,,,,,,,,,,,,,,,,,
,,,,,,,,,,00001527445,2020-10-25_13h06.35.570,swahili,2020.2.4,MacIntel,60,,,,,,,,,,-0.264038086,0.002431641,1,0,0,0.547285,unsorted_card,10,0,10,0,1,,,,,,,,,,,,,,,,,,,,,,,,,,,,,,,,,,,,,,,,,,,,,,,,,,,,,,,,,,,,,,,,,,,,,,,,,,,,,,,,,
,,,,,,,,,,00001527445,2020-10-25_13h06.35.570,swahili,2020.2.4,MacIntel,60,,,,,,,,,,0.534289551,-0.062333984,1,0,0,1.516225,test_pile,11,0,11,0,1,MANURE - SAMADI,,,,,,,,,,,,,,,,,,,,,,,,,,,,,,,,,,,,,,,,,,,,,,,,,,,,,,,,,,,,,,,,,,,,,,,,,,,,,,,,
,,,,,,,,,,00001527445,2020-10-25_13h06.35.570,swahili,2020.2.4,MacIntel,60,,,,,,,,,,-0.267407227,-0.079951172,1,0,0,0.59767,unsorted_card,12,0,12,0,1,,,,,,,,,,,,,,,,,,,,,,,,,,,,,,,,,,,,,,,,,,,,,,,,,,,,,,,,,,,,,,,,,,,,,,,,,,,,,,,,,
,,,,,,,,,,00001527445,2020-10-25_13h06.35.570,swahili,2020.2.4,MacIntel,60,,,,,,,,,,0.575915527,-0.484765625,1,0,0,2.231105,done_pile,13,0,13,0,1,AGENT - WAKILI,,,,,,,,,,,,,,,,,,,,,,,,,,,,,,,,,,,,,,,,,,,,,,,,,,,,,,,,,,,,,,,,,,,,,,,,,,,,,,,,
,,,,,,,,,,00001527445,2020-10-25_13h06.35.570,swahili,2020.2.4,MacIntel,60,,,,,,,,,,-0.225579834,-0.161757812,1,0,0,0.63342,unsorted_card,14,0,14,0,1,,,,,,,,,,,,,,,,,,,,,,,,,,,,,,,,,,,,,,,,,,,,,,,,,,,,,,,,,,,,,,,,,,,,,,,,,,,,,,,,,
,,,,,,,,,,00001527445,2020-10-25_13h06.35.570,swahili,2020.2.4,MacIntel,60,,,,,,,,,,0.50526123,-0.123789063,1,0,0,1.663565,test_pile,15,0,15,0,1,ORPHAN - YATIMA,,,,,,,,,,,,,,,,,,,,,,,,,,,,,,,,,,,,,,,,,,,,,,,,,,,,,,,,,,,,,,,,,,,,,,,,,,,,,,,,
,,,,,,,,,,00001527445,2020-10-25_13h06.35.570,swahili,2020.2.4,MacIntel,60,,,,,,,,,,-0.19708252,-0.051933594,1,0,0,0.599015,unsorted_card,16,0,16,0,1,,,,,,,,,,,,,,,,,,,,,,,,,,,,,,,,,,,,,,,,,,,,,,,,,,,,,,,,,,,,,,,,,,,,,,,,,,,,,,,,,
,,,,,,,,,,00001527445,2020-10-25_13h06.35.570,swahili,2020.2.4,MacIntel,60,,,,,,,,,,0.448858643,-0.053388672,1,0,0,1.650285,test_pile,17,0,17,0,1,DIVORCE - TALAKA,,,,,,,,,,,,,,,,,,,,,,,,,,,,,,,,,,,,,,,,,,,,,,,,,,,,,,,,,,,,,,,,,,,,,,,,,,,,,,,,
,,,,,,,,,,00001527445,2020-10-25_13h06.35.570,swahili,2020.2.4,MacIntel,60,,,,,,,,,,-0.380645752,-0.082861328,1,0,0,0.54813,unsorted_card,18,0,18,0,1,,,,,,,,,,,,,,,,,,,,,,,,,,,,,,,,,,,,,,,,,,,,,,,,,,,,,,,,,,,,,,,,,,,,,,,,,,,,,,,,,
,,,,,,,,,,00001527445,2020-10-25_13h06.35.570,swahili,2020.2.4,MacIntel,60,,,,,,,,,,0.365924072,-0.642333984,1,0,0,1.299095,done_pile,19,0,19,0,1,BOAT - MASHUA,,,,,,,,,,,,,,,,,,,,,,,,,,,,,,,,,,,,,,,,,,,,,,,,,,,,,,,,,,,,,,,,,,,,,,,,,,,,,,,,
,,,,,,,,,,00001527445,2020-10-25_13h06.35.570,swahili,2020.2.4,MacIntel,60,,,,,,,,,,-0.463745117,-0.016582031,1,0,0,0.61533,unsorted_card,20,0,20,0,1,,,,,,,,,,,,,,,,,,,,,,,,,,,,,,,,,,,,,,,,,,,,,,,,,,,,,,,,,,,,,,,,,,,,,,,,,,,,,,,,,
,,,,,,,,,,00001527445,2020-10-25_13h06.35.570,swahili,2020.2.4,MacIntel,60,,,,,,,,,,0.594573975,0.026982422,1,0,0,1.433175,test_pile,21,0,21,0,1,TREASURE - DAFINA,,,,,,,,,,,,,,,,,,,,,,,,,,,,,,,,,,,,,,,,,,,,,,,,,,,,,,,,,,,,,,,,,,,,,,,,,,,,,,,,
,,,,,,,,,,00001527445,2020-10-25_13h06.35.570,swahili,2020.2.4,MacIntel,60,,,,,,,,,,,,,,,,,,,,,,,,,,,,,,,,,,0,0,0,0,1,,,,,,,,,,,,,,,,,,,,,,,,,,,,,,,,,,,,,,,,,,,,,,,,,,,,,,,,,,,,,,,,
,,,,,,,,,,00001527445,2020-10-25_13h06.35.570,swahili,2020.2.4,MacIntel,60,,,,,,,,,,,,,,,,,,,,,,,,,,,,,,,,,,,,,,,return,,,,,,,,,,,1.33311,4.213535,0.301593018,-0.271611328,1,0,0,0.399845,yes,MANURE,SAMADI,incorrect,0,0,0,0,1,,,,,,,,,,,,,,,,,,,,,,,,,,,,,,,,,,,,
,,,,,,,,,,00001527445,2020-10-25_13h06.35.570,swahili,2020.2.4,MacIntel,60,,,,,,,,,,,,,,,,,,,,,,,,,,,,,,,,,,,,,,,,,,,,,,,,,,,1.74844,0.338439941,-0.133154297,1,0,0,0.41687,yes,DIVORCE,TALAKA,incorrect,1,0,1,0,1,,,,,,,,,,,,,,,,,,,,,,,,,,,,,,,,,,,,
,,,,,,,,,,00001527445,2020-10-25_13h06.35.570,swahili,2020.2.4,MacIntel,60,,,,,,,,,,,,,,,,,,,,,,,,,,,,,,,,,,,,,,,,,,,,,,,,,,,3.198725,0.338439941,-0.133154297,1,0,0,0.417235,yes,GRAVE,KABURI,incorrect,2,0,2,0,1,,,,,,,,,,,,,,,,,,,,,,,,,,,,,,,,,,,,
,,,,,,,,,,00001527445,2020-10-25_13h06.35.570,swahili,2020.2.4,MacIntel,60,,,,,,,,,,,,,,,,,,,,,,,,,,,,,,,,,,,,,,,,,,,,,,,,,,,5.45191,0.338439941,-0.133154297,1,0,0,0.546855,yes,TREASURE,DAFINA,incorrect,3,0,3,0,1,,,,,,,,,,,,,,,,,,,,,,,,,,,,,,,,,,,,
,,,,,,,,,,00001527445,2020-10-25_13h06.35.570,swahili,2020.2.4,MacIntel,60,,,,,,,,,,,,,,,,,,,,,,,,,,,,,,,,,,,,,,,,,,,,,,,,,,,3.032035,0.338439941,-0.133154297,1,0,0,0.38283,yes,OATH,YATIMA,incorrect,4,0,4,0,1,,,,,,,,,,,,,,,,,,,,,,,,,,,,,,,,,,,,
,,,,,,,,,,00001527445,2020-10-25_13h06.35.570,swahili,2020.2.4,MacIntel,60,,,,,,,,,,,,,,,,,,,,,,,,,,,,,,,,,,,,,,,,,,,,,,,,,,,2.41931,0.338439941,-0.133154297,1,0,0,0.48143,yes,BLAME,LAWAMA,incorrect,5,0,5,0,1,,,,,,,,,,,,,,,,,,,,,,,,,,,,,,,,,,,,
,,,,,,,,,,00001527445,2020-10-25_13h06.35.570,swahili,2020.2.4,MacIntel,60,,,,,,,,,,,,,,,,,,,,,,,,,,,,,,,,,,,,,,,,,,,,,,,,,,,4.730665,0.338439941,-0.133154297,1,0,0,0.349905,yes,YEAST,HAMIRA,incorrect,6,0,6,0,1,,,,,,,,,,,,,,,,,,,,,,,,,,,,,,,,,,,,
,,,,,,,,,,00001527445,2020-10-25_13h06.35.570,swahili,2020.2.4,MacIntel,60,,,,,,,,,,,,,,,,,,,,,,,,,,,,,,,,,,,,,,,,,,,,,,,,,,,3.999365,0.338439941,-0.133154297,1,0,0,0.418155,yes,ORPHAN,YATIMA,incorrect,7,0,7,0,1,,,,,,,,,,,,,,,,,,,,,,,,,,,,,,,,,,,,
,,,,,,,,,,00001527445,2020-10-25_13h06.35.570,swahili,2020.2.4,MacIntel,60,,,,,,,,,,,,,,,,,,,,,,,,,,,,,,,,,,,,,,,,,,,,,,,,,,,2.63,0.338439941,-0.133154297,1,0,0,0.367015,yes,PLATE,SAHANI,incorrect,8,0,8,0,1,,,,,,,,,,,,,,,,,,,,,,,,,,,,,,,,,,,,
,,,,,,,,,,00001527445,2020-10-25_13h06.35.570,swahili,2020.2.4,MacIntel,60,,,,,,,,,,,,,,,,,,,,,,,,,,,,,,,,,,,,,,,,0,0,0,0,1,,,,,,,,,,,,,,,,,,,,,,,,,,,,,,,,,,,,,,,,,,,,,,,,,,,,,,,,,,
,,,,,,,,,,00001527445,2020-10-25_13h06.35.570,swahili,2020.2.4,MacIntel,60,,,,,,,,,,,,,,,,,,,,,,,,,,,,,,,,,,,,,,,,1,0,1,0,1,,,,,,,,,,,,,,,,,,,,,,,,,,,,,,,,,,,,,,,,,,,,,,,,,,,,,,,,,,
,,,,,,,,,,00001527445,2020-10-25_13h06.35.570,swahili,2020.2.4,MacIntel,60,,,,,,,,,,,,,,,,,,,,,,,,,,,,,,,,,,,,,,,,,,,,,4,0,4,0,1,,,,,,,,,,,,,,,,,,,,,,,,,,,,,,,,,,,,,,,,,,,,,,,,,,,,,
,,,,,,,,,,00001527445,2020-10-25_13h06.35.570,swahili,2020.2.4,MacIntel,60,,,,,,,,,,-0.50401001,-0.076933594,1,0,0,1.272105,unsorted_card,0,0,0,0,1,,,,,,,,,,,,,,,,,,,,,,,,,,,,,,,,,,,,,,,,,,,,,,,,,,,,,,,,,,,,,,,,,,,,,,,,,,,,,,,,,
,,,,,,,,,,00001527445,2020-10-25_13h06.35.570,swahili,2020.2.4,MacIntel,60,,,,,,,,,,0.577947998,-0.586416016,1,0,0,2.11457,done_pile,1,0,1,0,1,PLATE - SAHANI,,,,,,,,,,,,,,,,,,,,,,,,,,,,,,,,,,,,,,,,,,,,,,,,,,,,,,,,,,,,,,,,,,,,,,,,,,,,,,,,
,,,,,,,,,,00001527445,2020-10-25_13h06.35.570,swahili,2020.2.4,MacIntel,60,,,,,,,,,,-0.270513916,-0.094091797,1,0,0,0.996385,unsorted_card,2,0,2,0,1,,,,,,,,,,,,,,,,,,,,,,,,,,,,,,,,,,,,,,,,,,,,,,,,,,,,,,,,,,,,,,,,,,,,,,,,,,,,,,,,,
,,,,,,,,,,00001527445,2020-10-25_13h06.35.570,swahili,2020.2.4,MacIntel,60,,,,,,,,,,0.468768311,-0.54203125,1,0,0,2.266045,done_pile,3,0,3,0,1,YEAST - HAMIRA,,,,,,,,,,,,,,,,,,,,,,,,,,,,,,,,,,,,,,,,,,,,,,,,,,,,,,,,,,,,,,,,,,,,,,,,,,,,,,,,
,,,,,,,,,,00001527445,2020-10-25_13h06.35.570,swahili,2020.2.4,MacIntel,60,,,,,,,,,,-0.337817383,0.029931641,1,0,0,0.59902,unsorted_card,4,0,4,0,1,,,,,,,,,,,,,,,,,,,,,,,,,,,,,,,,,,,,,,,,,,,,,,,,,,,,,,,,,,,,,,,,,,,,,,,,,,,,,,,,,
,,,,,,,,,,00001527445,2020-10-25_13h06.35.570,swahili,2020.2.4,MacIntel,60,,,,,,,,,,0.503912354,-0.547851563,1,0,0,1.066495,done_pile,5,0,5,0,1,BLAME - LAWAMA,,,,,,,,,,,,,,,,,,,,,,,,,,,,,,,,,,,,,,,,,,,,,,,,,,,,,,,,,,,,,,,,,,,,,,,,,,,,,,,,
,,,,,,,,,,00001527445,2020-10-25_13h06.35.570,swahili,2020.2.4,MacIntel,60,,,,,,,,,,-0.081921387,-0.280996094,1,0,0,0.499585,unsorted_card,6,0,6,0,1,,,,,,,,,,,,,,,,,,,,,,,,,,,,,,,,,,,,,,,,,,,,,,,,,,,,,,,,,,,,,,,,,,,,,,,,,,,,,,,,,
,,,,,,,,,,00001527445,2020-10-25_13h06.35.570,swahili,2020.2.4,MacIntel,60,,,,,,,,,,0.467993164,-0.536425781,1,0,0,3.03362,done_pile,7,0,7,0,1,OATH - YAMINI,,,,,,,,,,,,,,,,,,,,,,,,,,,,,,,,,,,,,,,,,,,,,,,,,,,,,,,,,,,,,,,,,,,,,,,,,,,,,,,,
,,,,,,,,,,00001527445,2020-10-25_13h06.35.570,swahili,2020.2.4,MacIntel,60,,,,,,,,,,-0.36963501,-0.113886719,1,0,0,0.77893,unsorted_card,8,0,8,0,1,,,,,,,,,,,,,,,,,,,,,,,,,,,,,,,,,,,,,,,,,,,,,,,,,,,,,,,,,,,,,,,,,,,,,,,,,,,,,,,,,
,,,,,,,,,,00001527445,2020-10-25_13h06.35.570,swahili,2020.2.4,MacIntel,60,,,,,,,,,,0.486889648,-0.453291016,1,0,0,1.133805,done_pile,9,0,9,0,1,GRAVE - KABURI,,,,,,,,,,,,,,,,,,,,,,,,,,,,,,,,,,,,,,,,,,,,,,,,,,,,,,,,,,,,,,,,,,,,,,,,,,,,,,,,
,,,,,,,,,,00001527445,2020-10-25_13h06.35.570,swahili,2020.2.4,MacIntel,60,,,,,,,,,,-0.269525146,-0.133857422,1,0,0,0.49744,unsorted_card,10,0,10,0,1,,,,,,,,,,,,,,,,,,,,,,,,,,,,,,,,,,,,,,,,,,,,,,,,,,,,,,,,,,,,,,,,,,,,,,,,,,,,,,,,,
,,,,,,,,,,00001527445,2020-10-25_13h06.35.570,swahili,2020.2.4,MacIntel,60,,,,,,,,,,0.411260986,-0.446064453,1,0,0,1.48316,done_pile,11,0,11,0,1,MANURE - SAMADI,,,,,,,,,,,,,,,,,,,,,,,,,,,,,,,,,,,,,,,,,,,,,,,,,,,,,,,,,,,,,,,,,,,,,,,,,,,,,,,,
,,,,,,,,,,00001527445,2020-10-25_13h06.35.570,swahili,2020.2.4,MacIntel,60,,,,,,,,,,-0.28862915,-0.158232422,1,0,0,0.566335,unsorted_card,12,0,12,0,1,,,,,,,,,,,,,,,,,,,,,,,,,,,,,,,,,,,,,,,,,,,,,,,,,,,,,,,,,,,,,,,,,,,,,,,,,,,,,,,,,
,,,,,,,,,,00001527445,2020-10-25_13h06.35.570,swahili,2020.2.4,MacIntel,60,,,,,,,,,,0.463146973,-0.531113281,1,0,0,2.032,done_pile,13,0,13,0,1,ORPHAN - YATIMA,,,,,,,,,,,,,,,,,,,,,,,,,,,,,,,,,,,,,,,,,,,,,,,,,,,,,,,,,,,,,,,,,,,,,,,,,,,,,,,,
,,,,,,,,,,00001527445,2020-10-25_13h06.35.570,swahili,2020.2.4,MacIntel,60,,,,,,,,,,-0.336126709,-0.105283203,1,0,0,0.897685,unsorted_card,14,0,14,0,1,,,,,,,,,,,,,,,,,,,,,,,,,,,,,,,,,,,,,,,,,,,,,,,,,,,,,,,,,,,,,,,,,,,,,,,,,,,,,,,,,
,,,,,,,,,,00001527445,2020-10-25_13h06.35.570,swahili,2020.2.4,MacIntel,60,,,,,,,,,,0.503527832,-0.551367188,1,0,0,1.132415,done_pile,15,0,15,0,1,DIVORCE - TALAKA,,,,,,,,,,,,,,,,,,,,,,,,,,,,,,,,,,,,,,,,,,,,,,,,,,,,,,,,,,,,,,,,,,,,,,,,,,,,,,,,
,,,,,,,,,,00001527445,2020-10-25_13h06.35.570,swahili,2020.2.4,MacIntel,60,,,,,,,,,,-0.318060303,-0.236298828,1,0,0,0.58333,unsorted_card,16,0,16,0,1,,,,,,,,,,,,,,,,,,,,,,,,,,,,,,,,,,,,,,,,,,,,,,,,,,,,,,,,,,,,,,,,,,,,,,,,,,,,,,,,,
,,,,,,,,,,00001527445,2020-10-25_13h06.35.570,swahili,2020.2.4,MacIntel,60,,,,,,,,,,0.497540283,-0.597246094,1,0,0,0.915255,done_pile,17,0,17,0,1,TREASURE - DAFINA,,,,,,,,,,,,,,,,,,,,,,,,,,,,,,,,,,,,,,,,,,,,,,,,,,,,,,,,,,,,,,,,,,,,,,,,,,,,,,,,
,,,,,,,,,,00001527445,2020-10-25_13h06.35.570,swahili,2020.2.4,MacIntel,60,,,,,,,,,,,,,,,,,,,,,,,,,,,,,,,,,,,,,,,,0,0,0,0,1,,,,,,,,,,,,,,,,,,,,,,,,,,,,,,,,,,,,,,,,,,,,,,,,,,,,,,,,,,
,,,,,,,,,,00001527445,2020-10-25_13h06.35.570,swahili,2020.2.4,MacIntel,60,,,,,,,,,,,,,,,,,,,,,,,,,,,,,,,,,,,,,,,,1,0,1,0,1,,,,,,,,,,,,,,,,,,,,,,,,,,,,,,,,,,,,,,,,,,,,,,,,,,,,,,,,,,
,,,,,,,,,,00001527445,2020-10-25_13h06.35.570,swahili,2020.2.4,MacIntel,60,,,,,,,,SAMADI,MANURE,,,,,,,,,,,,,,,,,,,,,,,,,,,,,,,,,,,,,,,,,,6.791695,,,,,,,,,SAMADI,correct,,,,,,return,12.051985,return,2.87653,return,7.35092,0,0,0,13,1,,,,,,,,,,,,,,,,,,,,,,,,,
,,,,,,,,,,00001527445,2020-10-25_13h06.35.570,swahili,2020.2.4,MacIntel,60,,,,,,,,MASHUA,BOAT,,,,,,,,,,,,,,,,,,,,,,,,,,,,,,,,,,,,,,,,,,2.531625,,,,,,,,,MASHUA,correct,,,,,,,,,,,,0,1,1,18,1,,,,,,,,,,,,,,,,,,,,,,,,,
,,,,,,,,,,00001527445,2020-10-25_13h06.35.570,swahili,2020.2.4,MacIntel,60,,,,,,,,UTENZI,POEM,,,,,,,,,,,,,,,,,,,,,,,,,,,,,,,,,,,,,,,,,,3.39958,,,,,,,,,UTENZI,correct,,,,,,,,,,,,0,2,2,8,1,,,,,,,,,,,,,,,,,,,,,,,,,
,,,,,,,,,,00001527445,2020-10-25_13h06.35.570,swahili,2020.2.4,MacIntel,60,,,,,,,,LAWAMA,BLAME,,,,,,,,,,,,,,,,,,,,,,,,,,,,,,,,,,,,,,,,,,8.13392,,,,,,,,,LAWAMA,correct,,,,,,,,,,,,0,3,3,5,1,,,,,,,,,,,,,,,,,,,,,,,,,
,,,,,,,,,,00001527445,2020-10-25_13h06.35.570,swahili,2020.2.4,MacIntel,60,,,,,,,,TALAKA,DIVORCE,,,,,,,,,,,,,,,,,,,,,,,,,,,,,,,,,,,,,,,,,,3.012725,,,,,,,,,TALAKA,correct,,,,,,,,,,,,0,4,4,17,1,,,,,,,,,,,,,,,,,,,,,,,,,
,,,,,,,,,,00001527445,2020-10-25_13h06.35.570,swahili,2020.2.4,MacIntel,60,,,,,,,,KASUKU,PARROT,,,,,,,,,,,,,,,,,,,,,,,,,,,,,,,,,,,,,,,,,,4.56683,,,,,,,,,KASUKU,correct,,,,,,,,,,,,0,5,5,1,1,,,,,,,,,,,,,,,,,,,,,,,,,
,,,,,,,,,,00001527445,2020-10-25_13h06.35.570,swahili,2020.2.4,MacIntel,60,,,,,,,,TAJIRI,MERCHANT,,,,,,,,,,,,,,,,,,,,,,,,,,,,,,,,,,,,,,,,,,3.66461,,,,,,,,,TAJIRI,correct,,,,,,,,,,,,0,6,6,0,1,,,,,,,,,,,,,,,,,,,,,,,,,
,,,,,,,,,,00001527445,2020-10-25_13h06.35.570,swahili,2020.2.4,MacIntel,60,,,,,,,,MSHONI,TAILOR,,,,,,,,,,,,,,,,,,,,,,,,,,,,,,,,,,,,,,,,,,2.53118,,,,,,,,,MSHONI,correct,,,,,,,,,,,,0,7,7,9,1,,,,,,,,,,,,,,,,,,,,,,,,,
,,,,,,,,,,00001527445,2020-10-25_13h06.35.570,swahili,2020.2.4,MacIntel,60,,,,,,,,HAMIRA,YEAST,,,,,,,,,,,,,,,,,,,,,,,,,,,,,,,,,,,,,,,,,,3.865685,,,,,,,,,HAMIRA,correct,,,,,,,,,,,,0,8,8,4,1,,,,,,,,,,,,,,,,,,,,,,,,,
,,,,,,,,,,00001527445,2020-10-25_13h06.35.570,swahili,2020.2.4,MacIntel,60,,,,,,,,YATIMA,ORPHAN,,,,,,,,,,,,,,,,,,,,,,,,,,,,,,,,,,,,,,,,,,3.70002,,,,,,,,,YATIMA,correct,,,,,,,,,,,,0,9,9,16,1,,,,,,,,,,,,,,,,,,,,,,,,,
,,,,,,,,,,00001527445,2020-10-25_13h06.35.570,swahili,2020.2.4,MacIntel,60,,,,,,,,DAFINA,TREASURE,,,,,,,,,,,,,,,,,,,,,,,,,,,,,,,,,,,,,,,,,,6.26529,,,,,,,,,DAFINA,correct,,,,,,,,,,,,0,10,10,19,1,,,,,,,,,,,,,,,,,,,,,,,,,
,,,,,,,,,,00001527445,2020-10-25_13h06.35.570,swahili,2020.2.4,MacIntel,60,,,,,,,,KABURI,GRAVE,,,,,,,,,,,,,,,,,,,,,,,,,,,,,,,,,,,,,,,,,,4.047575,,,,,,,,,KABURI,correct,,,,,,,,,,,,0,11,11,12,1,,,,,,,,,,,,,,,,,,,,,,,,,
,,,,,,,,,,00001527445,2020-10-25_13h06.35.570,swahili,2020.2.4,MacIntel,60,,,,,,,,SAHANI,PLATE,,,,,,,,,,,,,,,,,,,,,,,,,,,,,,,,,,,,,,,,,,17.548495,,,,,,,,,SAHINI,incorrect,,,,,,,,,,,,0,12,12,3,1,,,,,,,,,,,,,,,,,,,,,,,,,
,,,,,,,,,,00001527445,2020-10-25_13h06.35.570,swahili,2020.2.4,MacIntel,60,,,,,,,,WAKILI,AGENT,,,,,,,,,,,,,,,,,,,,,,,,,,,,,,,,,,,,,,,,,,5.23232,,,,,,,,,WAKILI,correct,,,,,,,,,,,,0,13,13,14,1,,,,,,,,,,,,,,,,,,,,,,,,,
,,,,,,,,,,00001527445,2020-10-25_13h06.35.570,swahili,2020.2.4,MacIntel,60,,,,,,,,NAFAKA,CORN,,,,,,,,,,,,,,,,,,,,,,,,,,,,,,,,,,,,,,,,,,2.831275,,,,,,,,,NAFAKA,correct,,,,,,,,,,,,0,14,14,7,1,,,,,,,,,,,,,,,,,,,,,,,,,
,,,,,,,,,,00001527445,2020-10-25_13h06.35.570,swahili,2020.2.4,MacIntel,60,,,,,,,,ZABIBU,GRAPES,,,,,,,,,,,,,,,,,,,,,,,,,,,,,,,,,,,,,,,,,,7.620195,,,,,,,,,ZABIBU,correct,,,,,,,,,,,,0,15,15,11,1,,,,,,,,,,,,,,,,,,,,,,,,,
,,,,,,,,,,00001527445,2020-10-25_13h06.35.570,swahili,2020.2.4,MacIntel,60,,,,,,,,YAMINI,OATH,,,,,,,,,,,,,,,,,,,,,,,,,,,,,,,,,,,,,,,,,,9.24546,,,,,,,,,YAMINI,correct,,,,,,,,,,,,0,16,16,6,1,,,,,,,,,,,,,,,,,,,,,,,,,
,,,,,,,,,,00001527445,2020-10-25_13h06.35.570,swahili,2020.2.4,MacIntel,60,,,,,,,,JIBINI,CHEESE,,,,,,,,,,,,,,,,,,,,,,,,,,,,,,,,,,,,,,,,,,17.59955,,,,,,,,,JIBINI,correct,,,,,,,,,,,,0,17,17,10,1,,,,,,,,,,,,,,,,,,,,,,,,,
,,,,,,,,,,00001527445,2020-10-25_13h06.35.570,swahili,2020.2.4,MacIntel,60,,,,,,,,FAHILI,BULL,,,,,,,,,,,,,,,,,,,,,,,,,,,,,,,,,,,,,,,,,,6.04648,,,,,,,,,FAHILI,correct,,,,,,,,,,,,0,18,18,2,1,,,,,,,,,,,,,,,,,,,,,,,,,
,,,,,,,,,,00001527445,2020-10-25_13h06.35.570,swahili,2020.2.4,MacIntel,60,,,,,,,,RUSHWA,BRIBE,,,,,,,,,,,,,,,,,,,,,,,,,,,,,,,,,,,,,,,,,,7.366315,,,,,,,,,RUSHWA,correct,,,,,,,,,,,,0,19,19,15,1,,,,,,,,,,,,,,,,,,,,,,,,,
,,,,,,,,,,00001527445,2020-10-25_13h06.35.570,swahili,2020.2.4,MacIntel,60,,,,,,,,,,,,,,,,,,,,,,,,,,,,,,,,,,,,,,,,,,,,,,,,,,,,,,,,,,,,,,,,,,,,,,,,,,,,,,0,0,0,0,1,I bought all my goods from the ____ at the market. ,TAJIRI,,,,,,,,,,,,,,,,,,
,,,,,,,,,,00001527445,2020-10-25_13h06.35.570,swahili,2020.2.4,MacIntel,60,,,,,,,,,,,,,,,,,,,,,,,,,,,,,,,,,,,,,,,,,,,,,,,,,,,,,,,,,,,,,,,,,,,,,,,,,,,,,,0,1,1,1,1,The ____ is a bird that can learn to repeat words.,KASUKU,,,,,,,,,,,,,,,,,,
,,,,,,,,,,00001527445,2020-10-25_13h06.35.570,swahili,2020.2.4,MacIntel,60,,,,,,,,,,,,,,,,,,,,,,,,,,,,,,,,,,,,,,,,,,,,,,,,,,,,,,,,,,,,,,,,,,,,,,,,,,,,,,0,2,2,2,1,The ____ charged the matador's red cape. ,FAHILI,,,,,,,,,,,,,,,,,,
,,,,,,,,,,00001527445,2020-10-25_13h06.35.570,swahili,2020.2.4,MacIntel,60,,,,,,,,,,,,,,,,,,,,,,,,,,,,,,,,,,,,,,,,,,,,,,,,,,,,,,,,,,,,,,,,,,,,,,,,,,,,,,0,3,3,3,1,I filled my ____ with food at the buffet. ,SAHANI,,,,,,,,,,,,,,,,,,
,,,,,,,,,,00001527445,2020-10-25_13h06.35.570,swahili,2020.2.4,MacIntel,60,,,,,,,,,,,,,,,,,,,,,,,,,,,,,,,,,,,,,,,,,,,,,,,,,,,,,,,,,,,,,,,,,,,,,,,,,,,,,,0,4,4,4,1,_____ makes bread rise. ,HAMIRA,,,,,,,,,,,,,,,,,,
,,,,,,,,,,00001527445,2020-10-25_13h06.35.570,swahili,2020.2.4,MacIntel,60,,,,,,,,,,,,,,,,,,,,,,,,,,,,,,,,,,,,,,,,,,,,,,,,,,,,,,,,,,,,,,,,,,,,,,,,,,,,,,0,5,5,5,1,Shannon had no one else to  ____ for what happened.,LAWAMA,,,,,,,,,,,,,,,,,,
,,,,,,,,,,00001527445,2020-10-25_13h06.35.570,swahili,2020.2.4,MacIntel,60,,,,,,,,,,,,,,,,,,,,,,,,,,,,,,,,,,,,,,,,,,,,,,,,,,,,,,,,,,,,,,,,,,,,,,,,,,,,,,0,6,6,6,1,The president takes the  ____ of office to uphold the Constitution.,YAMINI,,,,,,,,,,,,,,,,,,
,,,,,,,,,,00001527445,2020-10-25_13h06.35.570,swahili,2020.2.4,MacIntel,60,,,,,,,,,,,,,,,,,,,,,,,,,,,,,,,,,,,,,,,,,,,,,,,,,,,,,,,,,,,,,,,,,,,,,,,,,,,,,,0,7,7,7,1,Kate doesn't like ____ on the cob because it gets stuck between her teeth. ,NAFAKA,,,,,,,,,,,,,,,,,,
,,,,,,,,,,00001527445,2020-10-25_13h06.35.570,swahili,2020.2.4,MacIntel,60,,,,,,,,,,,,,,,,,,,,,,,,,,,,,,,,,,,,,,,,,,,,,,,,,,,,,,,,,,,,,,,,,,,,,,,,,,,,,,0,8,8,8,1,David wrote Cynthia a romantic ____  but she thought it rhymed too much.,UTENZI,,,,,,,,,,,,,,,,,,
,,,,,,,,,,00001527445,2020-10-25_13h06.35.570,swahili,2020.2.4,MacIntel,60,,,,,,,,,,,,,,,,,,,,,,,,,,,,,,,,,,,,,,,,,,,,,,,,,,,,,,,,,,,,,,,,,,,,,,,,,,,,,,0,9,9,9,1,Charles went to the ____ to get his suit adjusted. ,MSHONI,,,,,,,,,,,,,,,,,,
,,,,,,,,,,00001527445,2020-10-25_13h06.35.570,swahili,2020.2.4,MacIntel,60,,,,,,,,,,,,,,,,,,,,,,,,,,,,,,,,,,,,,,,,,,,,,,,,,,,,,,,,,,,,,,,,,,,,,,,,,,,,,,0,10,10,10,1,Amy cooked a grilled ____ sandwich to go with her tomato soup.,JIBINI,,,,,,,,,,,,,,,,,,
,,,,,,,,,,00001527445,2020-10-25_13h06.35.570,swahili,2020.2.4,MacIntel,60,,,,,,,,,,,,,,,,,,,,,,,,,,,,,,,,,,,,,,,,,,,,,,,,,,,,,,,,,,,,,,,,,,,,,,,,,,,,,,0,11,11,11,1,Fermented _______ are used to make wine.,ZABIBU,,,,,,,,,,,,,,,,,,
,,,,,,,,,,00001527445,2020-10-25_13h06.35.570,swahili,2020.2.4,MacIntel,60,,,,,,,,,,,,,,,,,,,,,,,,,,,,,,,,,,,,,,,,,,,,,,,,,,,,,,,,,,,,,,,,,,,,,,,,,,,,,,0,12,12,12,1,She visited her father's ___ on the anniversary of his death. ,KABURI,,,,,,,,,,,,,,,,,,
,,,,,,,,,,00001527445,2020-10-25_13h06.35.570,swahili,2020.2.4,MacIntel,60,,,,,,,,,,,,,,,,,,,,,,,,,,,,,,,,,,,,,,,,,,,,,,,,,,,,,,,,,,,,,,,,,,,,,,,,,,,,,,0,13,13,13,1,"On a farm, there is a good chance you will step into a pile of ______.",SAMADI,,,,,,,,,,,,,,,,,,
,,,,,,,,,,00001527445,2020-10-25_13h06.35.570,swahili,2020.2.4,MacIntel,60,,,,,,,,,,,,,,,,,,,,,,,,,,,,,,,,,,,,,,,,,,,,,,,,,,,,,,,,,,,,,,,,,,,,,,,,,,,,,,0,14,14,14,1,"To buy a house, you may need to speak with a real estate ______.",WAKILI,,,,,,,,,,,,,,,,,,
,,,,,,,,,,00001527445,2020-10-25_13h06.35.570,swahili,2020.2.4,MacIntel,60,,,,,,,,,,,,,,,,,,,,,,,,,,,,,,,,,,,,,,,,,,,,,,,,,,,,,,,,,,,,,,,,,,,,,,,,,,,,,,0,15,15,15,1,The politician was arrested for taking a _____.,RUSHWA,,,,,,,,,,,,,,,,,,
,,,,,,,,,,00001527445,2020-10-25_13h06.35.570,swahili,2020.2.4,MacIntel,60,,,,,,,,,,,,,,,,,,,,,,,,,,,,,,,,,,,,,,,,,,,,,,,,,,,,,,,,,,,,,,,,,,,,,,,,,,,,,,0,16,16,16,1,The _____ is living with foster parents.,YATIMA,,,,,,,,,,,,,,,,,,
,,,,,,,,,,00001527445,2020-10-25_13h06.35.570,swahili,2020.2.4,MacIntel,60,,,,,,,,,,,,,,,,,,,,,,,,,,,,,,,,,,,,,,,,,,,,,,,,,,,,,,,,,,,,,,,,,,,,,,,,,,,,,,0,17,17,17,1,My aunt and uncle got a _________ after two years of marriage.,TALAKA,,,,,,,,,,,,,,,,,,
,,,,,,,,,,00001527445,2020-10-25_13h06.35.570,swahili,2020.2.4,MacIntel,60,,,,,,,,,,,,,,,,,,,,,,,,,,,,,,,,,,,,,,,,,,,,,,,,,,,,,,,,,,,,,,,,,,,,,,,,,,,,,,0,18,18,18,1,You need a ______ to go fishing in the middle of a lake.,MASHUA,,,,,,,,,,,,,,,,,,
,,,,,,,,,,00001527445,2020-10-25_13h06.35.570,swahili,2020.2.4,MacIntel,60,,,,,,,,,,,,,,,,,,,,,,,,,,,,,,,,,,,,,,,,,,,,,,,,,,,,,,,,,,,,,,,,,,,,,,,,,,,,,,0,19,19,19,1,Pirates looked for buried _________ at the bottom of the sea.,DAFINA,,,,,,,,,,,,,,,,,,
,,,,,,,,,,00001527445,2020-10-25_13h06.35.570,swahili,2020.2.4,MacIntel,60,,,,,,,,,,,,,,,,,,,,,,,,,,,,,,,,,,,,,,,,,,,,,,,,,,,,,,,,,,,,,,,,,,,,,,,,,,,,,,,,,,,David wrote Cynthia a romantic ____  but she thought it rhymed too much.,UTENZI,return,4.827535,UTENZI,correct,0.582501221,-0.412089844,1,0,0,6.350845,c,0,0,0,8,1,,
,,,,,,,,,,00001527445,2020-10-25_13h06.35.570,swahili,2020.2.4,MacIntel,60,,,,,,,,,,,,,,,,,,,,,,,,,,,,,,,,,,,,,,,,,,,,,,,,,,,,,,,,,,,,,,,,,,,,,,,,,,,,,,,,,,,The ____ charged the matador's red cape. ,FAHILI,,,FAHILI,correct,0.049645996,-0.386396484,1,0,0,4.677925,b,0,1,1,2,1,,
,,,,,,,,,,00001527445,2020-10-25_13h06.35.570,swahili,2020.2.4,MacIntel,60,,,,,,,,,,,,,,,,,,,,,,,,,,,,,,,,,,,,,,,,,,,,,,,,,,,,,,,,,,,,,,,,,,,,,,,,,,,,,,,,,,,My aunt and uncle got a _________ after two years of marriage.,TALAKA,,,TALAKA,correct,-0.400286865,-0.495185547,1,0,0,4.628425,a,0,2,2,17,1,,
,,,,,,,,,,00001527445,2020-10-25_13h06.35.570,swahili,2020.2.4,MacIntel,60,,,,,,,,,,,,,,,,,,,,,,,,,,,,,,,,,,,,,,,,,,,,,,,,,,,,,,,,,,,,,,,,,,,,,,,,,,,,,,,,,,,"On a farm, there is a good chance you will step into a pile of ______.",SAMADI,,,SAMADI,correct,-0.161755371,-0.458291016,1,0,0,5.312435,b,0,3,3,13,1,,
,,,,,,,,,,00001527445,2020-10-25_13h06.35.570,swahili,2020.2.4,MacIntel,60,,,,,,,,,,,,,,,,,,,,,,,,,,,,,,,,,,,,,,,,,,,,,,,,,,,,,,,,,,,,,,,,,,,,,,,,,,,,,,,,,,,I bought all my goods from the ____ at the market. ,TAJIRI,,,TAJIRI,correct,-0.438916016,-0.486972656,1,0,0,6.645735,a,0,4,4,0,1,,
,,,,,,,,,,00001527445,2020-10-25_13h06.35.570,swahili,2020.2.4,MacIntel,60,,,,,,,,,,,,,,,,,,,,,,,,,,,,,,,,,,,,,,,,,,,,,,,,,,,,,,,,,,,,,,,,,,,,,,,,,,,,,,,,,,,Charles went to the ____ to get his suit adjusted. ,MSHONI,,,MSHONI,correct,-0.393890381,-0.416142578,1,0,0,3.5953,a,0,5,5,9,1,,
,,,,,,,,,,00001527445,2020-10-25_13h06.35.570,swahili,2020.2.4,MacIntel,60,,,,,,,,,,,,,,,,,,,,,,,,,,,,,,,,,,,,,,,,,,,,,,,,,,,,,,,,,,,,,,,,,,,,,,,,,,,,,,,,,,,The _____ is living with foster parents.,YATIMA,,,YATIMA,correct,-0.138555908,-0.452070313,1,0,0,2.94459,b,0,6,6,16,1,,
,,,,,,,,,,00001527445,2020-10-25_13h06.35.570,swahili,2020.2.4,MacIntel,60,,,,,,,,,,,,,,,,,,,,,,,,,,,,,,,,,,,,,,,,,,,,,,,,,,,,,,,,,,,,,,,,,,,,,,,,,,,,,,,,,,,The ____ is a bird that can learn to repeat words.,KASUKU,,,KASUKU,correct,-0.352130127,-0.546416016,1,0,0,3.795475,a,0,7,7,1,1,,
,,,,,,,,,,00001527445,2020-10-25_13h06.35.570,swahili,2020.2.4,MacIntel,60,,,,,,,,,,,,,,,,,,,,,,,,,,,,,,,,,,,,,,,,,,,,,,,,,,,,,,,,,,,,,,,,,,,,,,,,,,,,,,,,,,,Amy cooked a grilled ____ sandwich to go with her tomato soup.,JIBINI,,,JIBINI,correct,-0.329144287,-0.549599609,1,0,0,4.77689,a,0,8,8,10,1,,
,,,,,,,,,,00001527445,2020-10-25_13h06.35.570,swahili,2020.2.4,MacIntel,60,,,,,,,,,,,,,,,,,,,,,,,,,,,,,,,,,,,,,,,,,,,,,,,,,,,,,,,,,,,,,,,,,,,,,,,,,,,,,,,,,,,The president takes the  ____ of office to uphold the Constitution.,YAMINI,,,YAMINI,correct,-0.336816406,-0.627373047,1,0,0,5.14581,a,0,9,9,6,1,,
,,,,,,,,,,00001527445,2020-10-25_13h06.35.570,swahili,2020.2.4,MacIntel,60,,,,,,,,,,,,,,,,,,,,,,,,,,,,,,,,,,,,,,,,,,,,,,,,,,,,,,,,,,,,,,,,,,,,,,,,,,,,,,,,,,,_____ makes bread rise. ,HAMIRA,,,HAMIRA,correct,-0.109344482,-0.434794922,1,0,0,3.98278,b,0,10,10,4,1,,
,,,,,,,,,,00001527445,2020-10-25_13h06.35.570,swahili,2020.2.4,MacIntel,60,,,,,,,,,,,,,,,,,,,,,,,,,,,,,,,,,,,,,,,,,,,,,,,,,,,,,,,,,,,,,,,,,,,,,,,,,,,,,,,,,,,Kate doesn't like ____ on the cob because it gets stuck between her teeth. ,NAFAKA,,,NAFAKA,correct,-0.404522705,-0.608935547,1,0,0,4.49382,a,0,11,11,7,1,,
,,,,,,,,,,00001527445,2020-10-25_13h06.35.570,swahili,2020.2.4,MacIntel,60,,,,,,,,,,,,,,,,,,,,,,,,,,,,,,,,,,,,,,,,,,,,,,,,,,,,,,,,,,,,,,,,,,,,,,,,,,,,,,,,,,,You need a ______ to go fishing in the middle of a lake.,MASHUA,,,MASHUA,correct,-0.395544434,-0.463623047,1,0,0,5.47839,a,0,12,12,18,1,,
,,,,,,,,,,00001527445,2020-10-25_13h06.35.570,swahili,2020.2.4,MacIntel,60,,,,,,,,,,,,,,,,,,,,,,,,,,,,,,,,,,,,,,,,,,,,,,,,,,,,,,,,,,,,,,,,,,,,,,,,,,,,,,,,,,,Pirates looked for buried _________ at the bottom of the sea.,DAFINA,,,DAFINA,correct,-0.392474365,-0.514423828,1,0,0,1.99485,a,0,13,13,19,1,,
,,,,,,,,,,00001527445,2020-10-25_13h06.35.570,swahili,2020.2.4,MacIntel,60,,,,,,,,,,,,,,,,,,,,,,,,,,,,,,,,,,,,,,,,,,,,,,,,,,,,,,,,,,,,,,,,,,,,,,,,,,,,,,,,,,,She visited her father's ___ on the anniversary of his death. ,KABURI,,,KABURI,correct,0.52588501,-0.552480469,1,0,0,3.830035,c,0,14,14,12,1,,
,,,,,,,,,,00001527445,2020-10-25_13h06.35.570,swahili,2020.2.4,MacIntel,60,,,,,,,,,,,,,,,,,,,,,,,,,,,,,,,,,,,,,,,,,,,,,,,,,,,,,,,,,,,,,,,,,,,,,,,,,,,,,,,,,,,"To buy a house, you may need to speak with a real estate ______.",WAKILI,,,WAKILI,correct,0.011236572,-0.485546875,1,0,0,3.464035,b,0,15,15,14,1,,
,,,,,,,,,,00001527445,2020-10-25_13h06.35.570,swahili,2020.2.4,MacIntel,60,,,,,,,,,,,,,,,,,,,,,,,,,,,,,,,,,,,,,,,,,,,,,,,,,,,,,,,,,,,,,,,,,,,,,,,,,,,,,,,,,,,Shannon had no one else to  ____ for what happened.,LAWAMA,,,LAWAMA,correct,0.425115967,-0.494970703,1,0,0,6.445035,c,0,16,16,5,1,,
,,,,,,,,,,00001527445,2020-10-25_13h06.35.570,swahili,2020.2.4,MacIntel,60,,,,,,,,,,,,,,,,,,,,,,,,,,,,,,,,,,,,,,,,,,,,,,,,,,,,,,,,,,,,,,,,,,,,,,,,,,,,,,,,,,,Fermented _______ are used to make wine.,ZABIBU,,,ZABIBU,correct,0.425134277,-0.423730469,1,0,0,3.612465,c,0,17,17,11,1,,
,,,,,,,,,,00001527445,2020-10-25_13h06.35.570,swahili,2020.2.4,MacIntel,60,,,,,,,,,,,,,,,,,,,,,,,,,,,,,,,,,,,,,,,,,,,,,,,,,,,,,,,,,,,,,,,,,,,,,,,,,,,,,,,,,,,The politician was arrested for taking a _____.,RUSHWA,,,RUSHWA,correct,-0.115509033,-0.475751953,1,0,0,13.16308,b,0,18,18,15,1,,
,,,,,,,,,,00001527445,2020-10-25_13h06.35.570,swahili,2020.2.4,MacIntel,60,,,,,,,,,,,,,,,,,,,,,,,,,,,,,,,,,,,,,,,,,,,,,,,,,,,,,,,,,,,,,,,,,,,,,,,,,,,,,,,,,,,I filled my ____ with food at the buffet. ,SAHANI,,,SAHANI,correct,-0.137591553,-0.449619141,1,0,0,3.894885,b,0,19,19,3,1,,
,,,,,,,,,,00001527445,2020-10-25_13h06.35.570,swahili,2020.2.4,MacIntel,60,,,,,,,,,,,,,,,,,,,,,,,,,,,,,,,,,,,,,,,,,,,,,,,,,,,,,,,,,,,,,,,,,,,,,,,,,,,,,,,,,,,,,,,,,,,,,,,,,,,,,return,6.21907
