condition,consent_key.keys,consent_key.rt,done_with_instructions.keys,done_with_instructions.rt,instr_loop.thisRepN,instr_loop.thisTrialN,instr_loop.thisN,instr_loop.thisIndex,instr_loop.ran,Student ID #,date,expName,psychopyVersion,OS,frameRate,instr_learning_key.keys,instr_learning_key.rt,card_gen_loop.thisRepN,card_gen_loop.thisTrialN,card_gen_loop.thisN,card_gen_loop.thisIndex,card_gen_loop.ran,swa,eng,choose_pile.x,choose_pile.y,choose_pile.leftButton,choose_pile.midButton,choose_pile.rightButton,choose_pile.time,choose_pile.clicked_name,choices.thisRepN,choices.thisTrialN,choices.thisN,choices.thisIndex,choices.ran,card_to_show,mouse_pick.x,mouse_pick.y,mouse_pick.leftButton,mouse_pick.midButton,mouse_pick.rightButton,mouse_pick.time,mouse_pick.clicked_name,key_instr_study.keys,next_study.keys,study_loop.thisRepN,study_loop.thisTrialN,study_loop.thisN,study_loop.thisIndex,study_loop.ran,key_instr_test.keys,key_instr_test.rt,duration,yes_or_no.x,yes_or_no.y,yes_or_no.leftButton,yes_or_no.midButton,yes_or_no.rightButton,yes_or_no.time,yes_or_no.clicked_name,test_response.stim,test_response.resp,test_response.eval,test_loop.thisRepN,test_loop.thisTrialN,test_loop.thisN,test_loop.thisIndex,test_loop.ran,learn_loop.thisRepN,learn_loop.thisTrialN,learn_loop.thisN,learn_loop.thisIndex,learn_loop.ran,key_instr_study.rt,next_study.rt,trials.thisRepN,trials.thisTrialN,trials.thisN,trials.thisIndex,trials.ran,instr_movie_key.keys,instr_movie_key.rt,return_to_exp.keys,return_to_exp.rt,instr_assess_key.keys,instr_assess_key.rt,assess_loop.thisRepN,assess_loop.thisTrialN,assess_loop.thisN,assess_loop.thisIndex,assess_loop.ran,ans_gen_loop.thisRepN,ans_gen_loop.thisTrialN,ans_gen_loop.thisN,ans_gen_loop.thisIndex,ans_gen_loop.ran,sen,ans,instr_transfer_key.keys,instr_transfer_key.rt,transfer_response.resp,transfer_response.eval,select_word.x,select_word.y,select_word.leftButton,select_word.midButton,select_word.rightButton,select_word.time,select_word.clicked_name,transfers.thisRepN,transfers.thisTrialN,transfers.thisN,transfers.thisIndex,transfers.ran,end_experiment.keys,end_experiment.rt
2,return,31.69911,return,20.81271,0,0,0,0,1,W1492951,2020-10-23_11h58.13.530,swahili,2020.2.4,Win32,60,,,,,,,,,,,,,,,,,,,,,,,,,,,,,,,,,,,,,,,,,,,,,,,,,,,,,,,,,,,,,,,,,,,,,,,,,,,,,,,,,,,,,,,,,,,,,,,,,,,,,,
,,,return,22.932815,1,0,1,0,1,W1492951,2020-10-23_11h58.13.530,swahili,2020.2.4,Win32,60,,,,,,,,,,,,,,,,,,,,,,,,,,,,,,,,,,,,,,,,,,,,,,,,,,,,,,,,,,,,,,,,,,,,,,,,,,,,,,,,,,,,,,,,,,,,,,,,,,,,,,
,,,,,,,,,,W1492951,2020-10-23_11h58.13.530,swahili,2020.2.4,Win32,60,return,21.18237,0,0,0,0,1,TAJIRI,MERCHANT,,,,,,,,,,,,,,,,,,,,,,,,,,,,,,,,,,,,,,,,,,,,,,,,,,,,,,,,,,,,,,,,,,,,,,,,,,,,,,,,,,,,,,,,,,,,,
,,,,,,,,,,W1492951,2020-10-23_11h58.13.530,swahili,2020.2.4,Win32,60,,,0,1,1,1,1,KASUKU,PARROT,,,,,,,,,,,,,,,,,,,,,,,,,,,,,,,,,,,,,,,,,,,,,,,,,,,,,,,,,,,,,,,,,,,,,,,,,,,,,,,,,,,,,,,,,,,,,
,,,,,,,,,,W1492951,2020-10-23_11h58.13.530,swahili,2020.2.4,Win32,60,,,0,2,2,2,1,FAHILI,BULL,,,,,,,,,,,,,,,,,,,,,,,,,,,,,,,,,,,,,,,,,,,,,,,,,,,,,,,,,,,,,,,,,,,,,,,,,,,,,,,,,,,,,,,,,,,,,
,,,,,,,,,,W1492951,2020-10-23_11h58.13.530,swahili,2020.2.4,Win32,60,,,0,3,3,3,1,SAHANI,PLATE,,,,,,,,,,,,,,,,,,,,,,,,,,,,,,,,,,,,,,,,,,,,,,,,,,,,,,,,,,,,,,,,,,,,,,,,,,,,,,,,,,,,,,,,,,,,,
,,,,,,,,,,W1492951,2020-10-23_11h58.13.530,swahili,2020.2.4,Win32,60,,,0,4,4,4,1,HAMIRA,YEAST,,,,,,,,,,,,,,,,,,,,,,,,,,,,,,,,,,,,,,,,,,,,,,,,,,,,,,,,,,,,,,,,,,,,,,,,,,,,,,,,,,,,,,,,,,,,,
,,,,,,,,,,W1492951,2020-10-23_11h58.13.530,swahili,2020.2.4,Win32,60,,,0,5,5,5,1,LAWAMA,BLAME,,,,,,,,,,,,,,,,,,,,,,,,,,,,,,,,,,,,,,,,,,,,,,,,,,,,,,,,,,,,,,,,,,,,,,,,,,,,,,,,,,,,,,,,,,,,,
,,,,,,,,,,W1492951,2020-10-23_11h58.13.530,swahili,2020.2.4,Win32,60,,,0,6,6,6,1,YAMINI,OATH,,,,,,,,,,,,,,,,,,,,,,,,,,,,,,,,,,,,,,,,,,,,,,,,,,,,,,,,,,,,,,,,,,,,,,,,,,,,,,,,,,,,,,,,,,,,,
,,,,,,,,,,W1492951,2020-10-23_11h58.13.530,swahili,2020.2.4,Win32,60,,,0,7,7,7,1,NAFAKA,CORN,,,,,,,,,,,,,,,,,,,,,,,,,,,,,,,,,,,,,,,,,,,,,,,,,,,,,,,,,,,,,,,,,,,,,,,,,,,,,,,,,,,,,,,,,,,,,
,,,,,,,,,,W1492951,2020-10-23_11h58.13.530,swahili,2020.2.4,Win32,60,,,0,8,8,8,1,UTENZI,POEM,,,,,,,,,,,,,,,,,,,,,,,,,,,,,,,,,,,,,,,,,,,,,,,,,,,,,,,,,,,,,,,,,,,,,,,,,,,,,,,,,,,,,,,,,,,,,
,,,,,,,,,,W1492951,2020-10-23_11h58.13.530,swahili,2020.2.4,Win32,60,,,0,9,9,9,1,MSHONI,TAILOR,,,,,,,,,,,,,,,,,,,,,,,,,,,,,,,,,,,,,,,,,,,,,,,,,,,,,,,,,,,,,,,,,,,,,,,,,,,,,,,,,,,,,,,,,,,,,
,,,,,,,,,,W1492951,2020-10-23_11h58.13.530,swahili,2020.2.4,Win32,60,,,0,10,10,10,1,JIBINI,CHEESE,,,,,,,,,,,,,,,,,,,,,,,,,,,,,,,,,,,,,,,,,,,,,,,,,,,,,,,,,,,,,,,,,,,,,,,,,,,,,,,,,,,,,,,,,,,,,
,,,,,,,,,,W1492951,2020-10-23_11h58.13.530,swahili,2020.2.4,Win32,60,,,0,11,11,11,1,ZABIBU,GRAPES,,,,,,,,,,,,,,,,,,,,,,,,,,,,,,,,,,,,,,,,,,,,,,,,,,,,,,,,,,,,,,,,,,,,,,,,,,,,,,,,,,,,,,,,,,,,,
,,,,,,,,,,W1492951,2020-10-23_11h58.13.530,swahili,2020.2.4,Win32,60,,,0,12,12,12,1,KABURI,GRAVE,,,,,,,,,,,,,,,,,,,,,,,,,,,,,,,,,,,,,,,,,,,,,,,,,,,,,,,,,,,,,,,,,,,,,,,,,,,,,,,,,,,,,,,,,,,,,
,,,,,,,,,,W1492951,2020-10-23_11h58.13.530,swahili,2020.2.4,Win32,60,,,0,13,13,13,1,SAMADI,MANURE,,,,,,,,,,,,,,,,,,,,,,,,,,,,,,,,,,,,,,,,,,,,,,,,,,,,,,,,,,,,,,,,,,,,,,,,,,,,,,,,,,,,,,,,,,,,,
,,,,,,,,,,W1492951,2020-10-23_11h58.13.530,swahili,2020.2.4,Win32,60,,,0,14,14,14,1,WAKILI,AGENT,,,,,,,,,,,,,,,,,,,,,,,,,,,,,,,,,,,,,,,,,,,,,,,,,,,,,,,,,,,,,,,,,,,,,,,,,,,,,,,,,,,,,,,,,,,,,
,,,,,,,,,,W1492951,2020-10-23_11h58.13.530,swahili,2020.2.4,Win32,60,,,0,15,15,15,1,RUSHWA,BRIBE,,,,,,,,,,,,,,,,,,,,,,,,,,,,,,,,,,,,,,,,,,,,,,,,,,,,,,,,,,,,,,,,,,,,,,,,,,,,,,,,,,,,,,,,,,,,,
,,,,,,,,,,W1492951,2020-10-23_11h58.13.530,swahili,2020.2.4,Win32,60,,,0,16,16,16,1,YATIMA,ORPHAN,,,,,,,,,,,,,,,,,,,,,,,,,,,,,,,,,,,,,,,,,,,,,,,,,,,,,,,,,,,,,,,,,,,,,,,,,,,,,,,,,,,,,,,,,,,,,
,,,,,,,,,,W1492951,2020-10-23_11h58.13.530,swahili,2020.2.4,Win32,60,,,0,17,17,17,1,TALAKA,DIVORCE,,,,,,,,,,,,,,,,,,,,,,,,,,,,,,,,,,,,,,,,,,,,,,,,,,,,,,,,,,,,,,,,,,,,,,,,,,,,,,,,,,,,,,,,,,,,,
,,,,,,,,,,W1492951,2020-10-23_11h58.13.530,swahili,2020.2.4,Win32,60,,,0,18,18,18,1,MASHUA,BOAT,,,,,,,,,,,,,,,,,,,,,,,,,,,,,,,,,,,,,,,,,,,,,,,,,,,,,,,,,,,,,,,,,,,,,,,,,,,,,,,,,,,,,,,,,,,,,
,,,,,,,,,,W1492951,2020-10-23_11h58.13.530,swahili,2020.2.4,Win32,60,,,0,19,19,19,1,DAFINA,TREASURE,,,,,,,,,,,,,,,,,,,,,,,,,,,,,,,,,,,,,,,,,,,,,,,,,,,,,,,,,,,,,,,,,,,,,,,,,,,,,,,,,,,,,,,,,,,,,
,,,,,,,,,,W1492951,2020-10-23_11h58.13.530,swahili,2020.2.4,Win32,60,,,,,,,,,,0.522916689,0.425925917,1,0,0,9.322765,study_pile,0,0,0,0,1,,,,,,,,,,,,,,,,,,,,,,,,,,,,,,,,,,,,,,,,,,,,,,,,,,,,,,,,,,,,,,,,,,,,,,,,,,,,,,,,,
,,,,,,,,,,W1492951,2020-10-23_11h58.13.530,swahili,2020.2.4,Win32,60,,,,,,,,,,-0.216666591,-0.110185202,1,0,0,1.5392,unsorted_card,1,0,1,0,1,,,,,,,,,,,,,,,,,,,,,,,,,,,,,,,,,,,,,,,,,,,,,,,,,,,,,,,,,,,,,,,,,,,,,,,,,,,,,,,,,
,,,,,,,,,,W1492951,2020-10-23_11h58.13.530,swahili,2020.2.4,Win32,60,,,,,,,,,,-0.373958324,-0.005555571,1,0,0,4.77657,unsorted_card,2,0,2,0,1,MERCHANT - TAJIRI,,,,,,,,,,,,,,,,,,,,,,,,,,,,,,,,,,,,,,,,,,,,,,,,,,,,,,,,,,,,,,,,,,,,,,,,,,,,,,,,
,,,,,,,,,,W1492951,2020-10-23_11h58.13.530,swahili,2020.2.4,Win32,60,,,,,,,,,,0.499479189,0.447222214,1,0,0,6.04679,study_pile,3,0,3,0,1,MERCHANT - TAJIRI,,,,,,,,,,,,,,,,,,,,,,,,,,,,,,,,,,,,,,,,,,,,,,,,,,,,,,,,,,,,,,,,,,,,,,,,,,,,,,,,
,,,,,,,,,,W1492951,2020-10-23_11h58.13.530,swahili,2020.2.4,Win32,60,,,,,,,,,,-0.441666658,-0.018518534,1,0,0,6.379935,unsorted_card,4,0,4,0,1,,,,,,,,,,,,,,,,,,,,,,,,,,,,,,,,,,,,,,,,,,,,,,,,,,,,,,,,,,,,,,,,,,,,,,,,,,,,,,,,,
,,,,,,,,,,W1492951,2020-10-23_11h58.13.530,swahili,2020.2.4,Win32,60,,,,,,,,,,0.377604187,0.420370362,1,0,0,7.861505,study_pile,5,0,5,0,1,PARROT - KASUKU,,,,,,,,,,,,,,,,,,,,,,,,,,,,,,,,,,,,,,,,,,,,,,,,,,,,,,,,,,,,,,,,,,,,,,,,,,,,,,,,
,,,,,,,,,,W1492951,2020-10-23_11h58.13.530,swahili,2020.2.4,Win32,60,,,,,,,,,,-0.505208326,-0.04907409,1,0,0,0.696445,unsorted_card,6,0,6,0,1,,,,,,,,,,,,,,,,,,,,,,,,,,,,,,,,,,,,,,,,,,,,,,,,,,,,,,,,,,,,,,,,,,,,,,,,,,,,,,,,,
,,,,,,,,,,W1492951,2020-10-23_11h58.13.530,swahili,2020.2.4,Win32,60,,,,,,,,,,0.426041815,0.437962955,1,0,0,3.48215,study_pile,7,0,7,0,1,BULL - FAHILI,,,,,,,,,,,,,,,,,,,,,,,,,,,,,,,,,,,,,,,,,,,,,,,,,,,,,,,,,,,,,,,,,,,,,,,,,,,,,,,,
,,,,,,,,,,W1492951,2020-10-23_11h58.13.530,swahili,2020.2.4,Win32,60,,,,,,,,,,-0.57604166,-0.156481499,1,0,0,0.727135,unsorted_card,8,0,8,0,1,,,,,,,,,,,,,,,,,,,,,,,,,,,,,,,,,,,,,,,,,,,,,,,,,,,,,,,,,,,,,,,,,,,,,,,,,,,,,,,,,
,,,,,,,,,,W1492951,2020-10-23_11h58.13.530,swahili,2020.2.4,Win32,60,,,,,,,,,,0.435416688,0.437037029,1,0,0,3.33454,study_pile,9,0,9,0,1,PLATE - SAHANI,,,,,,,,,,,,,,,,,,,,,,,,,,,,,,,,,,,,,,,,,,,,,,,,,,,,,,,,,,,,,,,,,,,,,,,,,,,,,,,,
,,,,,,,,,,W1492951,2020-10-23_11h58.13.530,swahili,2020.2.4,Win32,60,,,,,,,,,,-0.425520825,-0.205555574,1,0,0,0.63098,unsorted_card,10,0,10,0,1,,,,,,,,,,,,,,,,,,,,,,,,,,,,,,,,,,,,,,,,,,,,,,,,,,,,,,,,,,,,,,,,,,,,,,,,,,,,,,,,,
,,,,,,,,,,W1492951,2020-10-23_11h58.13.530,swahili,2020.2.4,Win32,60,,,,,,,,,,0.537500023,0.435185177,1,0,0,4.19724,study_pile,11,0,11,0,1,YEAST - HAMIRA,,,,,,,,,,,,,,,,,,,,,,,,,,,,,,,,,,,,,,,,,,,,,,,,,,,,,,,,,,,,,,,,,,,,,,,,,,,,,,,,
,,,,,,,,,,W1492951,2020-10-23_11h58.13.530,swahili,2020.2.4,Win32,60,,,,,,,,,,-0.383333324,-0.067592609,1,0,0,0.628725,unsorted_card,12,0,12,0,1,,,,,,,,,,,,,,,,,,,,,,,,,,,,,,,,,,,,,,,,,,,,,,,,,,,,,,,,,,,,,,,,,,,,,,,,,,,,,,,,,
,,,,,,,,,,W1492951,2020-10-23_11h58.13.530,swahili,2020.2.4,Win32,60,,,,,,,,,,0.382812521,-0.024074089,1,0,0,11.031595,test_pile,13,0,13,0,1,BLAME - LAWAMA,,,,,,,,,,,,,,,,,,,,,,,,,,,,,,,,,,,,,,,,,,,,,,,,,,,,,,,,,,,,,,,,,,,,,,,,,,,,,,,,
,,,,,,,,,,W1492951,2020-10-23_11h58.13.530,swahili,2020.2.4,Win32,60,,,,,,,,,,-0.344270824,-0.07407409,1,0,0,0.56289,unsorted_card,14,0,14,0,1,,,,,,,,,,,,,,,,,,,,,,,,,,,,,,,,,,,,,,,,,,,,,,,,,,,,,,,,,,,,,,,,,,,,,,,,,,,,,,,,,
,,,,,,,,,,W1492951,2020-10-23_11h58.13.530,swahili,2020.2.4,Win32,60,,,,,,,,,,0.433854315,0.402777769,1,0,0,2.16559,study_pile,15,0,15,0,1,OATH - YAMINI,,,,,,,,,,,,,,,,,,,,,,,,,,,,,,,,,,,,,,,,,,,,,,,,,,,,,,,,,,,,,,,,,,,,,,,,,,,,,,,,
,,,,,,,,,,W1492951,2020-10-23_11h58.13.530,swahili,2020.2.4,Win32,60,,,,,,,,,,-0.516145826,-0.036111127,1,0,0,0.414965,unsorted_card,16,0,16,0,1,,,,,,,,,,,,,,,,,,,,,,,,,,,,,,,,,,,,,,,,,,,,,,,,,,,,,,,,,,,,,,,,,,,,,,,,,,,,,,,,,
,,,,,,,,,,W1492951,2020-10-23_11h58.13.530,swahili,2020.2.4,Win32,60,,,,,,,,,,0.397395981,0.401851843,1,0,0,3.031655,study_pile,17,0,17,0,1,CORN - NAFAKA,,,,,,,,,,,,,,,,,,,,,,,,,,,,,,,,,,,,,,,,,,,,,,,,,,,,,,,,,,,,,,,,,,,,,,,,,,,,,,,,
,,,,,,,,,,W1492951,2020-10-23_11h58.13.530,swahili,2020.2.4,Win32,60,,,,,,,,,,-0.352604157,-0.092592609,1,0,0,0.37647,unsorted_card,18,0,18,0,1,,,,,,,,,,,,,,,,,,,,,,,,,,,,,,,,,,,,,,,,,,,,,,,,,,,,,,,,,,,,,,,,,,,,,,,,,,,,,,,,,
,,,,,,,,,,W1492951,2020-10-23_11h58.13.530,swahili,2020.2.4,Win32,60,,,,,,,,,,0.429166688,0.408333325,1,0,0,2.865595,study_pile,19,0,19,0,1,POEM - UTENZI,,,,,,,,,,,,,,,,,,,,,,,,,,,,,,,,,,,,,,,,,,,,,,,,,,,,,,,,,,,,,,,,,,,,,,,,,,,,,,,,
,,,,,,,,,,W1492951,2020-10-23_11h58.13.530,swahili,2020.2.4,Win32,60,,,,,,,,,,-0.385937491,-0.013888904,1,0,0,0.44717,unsorted_card,20,0,20,0,1,,,,,,,,,,,,,,,,,,,,,,,,,,,,,,,,,,,,,,,,,,,,,,,,,,,,,,,,,,,,,,,,,,,,,,,,,,,,,,,,,
,,,,,,,,,,W1492951,2020-10-23_11h58.13.530,swahili,2020.2.4,Win32,60,,,,,,,,,,0.417187521,0.41851851,1,0,0,4.36449,study_pile,21,0,21,0,1,TAILOR - MSHONI,,,,,,,,,,,,,,,,,,,,,,,,,,,,,,,,,,,,,,,,,,,,,,,,,,,,,,,,,,,,,,,,,,,,,,,,,,,,,,,,
,,,,,,,,,,W1492951,2020-10-23_11h58.13.530,swahili,2020.2.4,Win32,60,,,,,,,,,,-0.367187491,-0.150925943,1,0,0,0.429385,unsorted_card,22,0,22,0,1,,,,,,,,,,,,,,,,,,,,,,,,,,,,,,,,,,,,,,,,,,,,,,,,,,,,,,,,,,,,,,,,,,,,,,,,,,,,,,,,,
,,,,,,,,,,W1492951,2020-10-23_11h58.13.530,swahili,2020.2.4,Win32,60,,,,,,,,,,0.463541688,-0.011111126,1,0,0,7.080635,test_pile,23,0,23,0,1,CHEESE - JIBINI,,,,,,,,,,,,,,,,,,,,,,,,,,,,,,,,,,,,,,,,,,,,,,,,,,,,,,,,,,,,,,,,,,,,,,,,,,,,,,,,
,,,,,,,,,,W1492951,2020-10-23_11h58.13.530,swahili,2020.2.4,Win32,60,,,,,,,,,,-0.273437489,-0.146296313,1,0,0,0.547205,unsorted_card,24,0,24,0,1,,,,,,,,,,,,,,,,,,,,,,,,,,,,,,,,,,,,,,,,,,,,,,,,,,,,,,,,,,,,,,,,,,,,,,,,,,,,,,,,,
,,,,,,,,,,W1492951,2020-10-23_11h58.13.530,swahili,2020.2.4,Win32,60,,,,,,,,,,0.434895855,-0.087037053,1,0,0,6.450675,test_pile,25,0,25,0,1,GRAPES - ZABIBU,,,,,,,,,,,,,,,,,,,,,,,,,,,,,,,,,,,,,,,,,,,,,,,,,,,,,,,,,,,,,,,,,,,,,,,,,,,,,,,,
,,,,,,,,,,W1492951,2020-10-23_11h58.13.530,swahili,2020.2.4,Win32,60,,,,,,,,,,-0.271354092,-0.168518536,1,0,0,0.662895,unsorted_card,26,0,26,0,1,,,,,,,,,,,,,,,,,,,,,,,,,,,,,,,,,,,,,,,,,,,,,,,,,,,,,,,,,,,,,,,,,,,,,,,,,,,,,,,,,
,,,,,,,,,,W1492951,2020-10-23_11h58.13.530,swahili,2020.2.4,Win32,60,,,,,,,,,,0.440625021,0.012962948,1,0,0,5.01537,test_pile,27,0,27,0,1,GRAVE - KABURI,,,,,,,,,,,,,,,,,,,,,,,,,,,,,,,,,,,,,,,,,,,,,,,,,,,,,,,,,,,,,,,,,,,,,,,,,,,,,,,,
,,,,,,,,,,W1492951,2020-10-23_11h58.13.530,swahili,2020.2.4,Win32,60,,,,,,,,,,-0.200520821,-0.051851868,1,0,0,0.429645,unsorted_card,28,0,28,0,1,,,,,,,,,,,,,,,,,,,,,,,,,,,,,,,,,,,,,,,,,,,,,,,,,,,,,,,,,,,,,,,,,,,,,,,,,,,,,,,,,
,,,,,,,,,,W1492951,2020-10-23_11h58.13.530,swahili,2020.2.4,Win32,60,,,,,,,,,,0.529166689,0.512962956,1,0,0,2.91593,study_pile,29,0,29,0,1,MANURE - SAMADI,,,,,,,,,,,,,,,,,,,,,,,,,,,,,,,,,,,,,,,,,,,,,,,,,,,,,,,,,,,,,,,,,,,,,,,,,,,,,,,,
,,,,,,,,,,W1492951,2020-10-23_11h58.13.530,swahili,2020.2.4,Win32,60,,,,,,,,,,-0.54791666,-0.060185201,1,0,0,0.562145,unsorted_card,30,0,30,0,1,,,,,,,,,,,,,,,,,,,,,,,,,,,,,,,,,,,,,,,,,,,,,,,,,,,,,,,,,,,,,,,,,,,,,,,,,,,,,,,,,
,,,,,,,,,,W1492951,2020-10-23_11h58.13.530,swahili,2020.2.4,Win32,60,,,,,,,,,,0.395312521,0.451851844,1,0,0,1.799825,study_pile,31,0,31,0,1,AGENT - WAKILI,,,,,,,,,,,,,,,,,,,,,,,,,,,,,,,,,,,,,,,,,,,,,,,,,,,,,,,,,,,,,,,,,,,,,,,,,,,,,,,,
,,,,,,,,,,W1492951,2020-10-23_11h58.13.530,swahili,2020.2.4,Win32,60,,,,,,,,,,-0.589583327,-0.101851868,1,0,0,0.51483,unsorted_card,32,0,32,0,1,,,,,,,,,,,,,,,,,,,,,,,,,,,,,,,,,,,,,,,,,,,,,,,,,,,,,,,,,,,,,,,,,,,,,,,,,,,,,,,,,
,,,,,,,,,,W1492951,2020-10-23_11h58.13.530,swahili,2020.2.4,Win32,60,,,,,,,,,,0.440625021,0.442592584,1,0,0,2.26465,study_pile,33,0,33,0,1,BRIBE - RUSHWA,,,,,,,,,,,,,,,,,,,,,,,,,,,,,,,,,,,,,,,,,,,,,,,,,,,,,,,,,,,,,,,,,,,,,,,,,,,,,,,,
,,,,,,,,,,W1492951,2020-10-23_11h58.13.530,swahili,2020.2.4,Win32,60,,,,,,,,,,-0.404687491,-0.032407423,1,0,0,0.39825,unsorted_card,34,0,34,0,1,,,,,,,,,,,,,,,,,,,,,,,,,,,,,,,,,,,,,,,,,,,,,,,,,,,,,,,,,,,,,,,,,,,,,,,,,,,,,,,,,
,,,,,,,,,,W1492951,2020-10-23_11h58.13.530,swahili,2020.2.4,Win32,60,,,,,,,,,,0.521354189,0.04444443,1,0,0,8.414925,test_pile,35,0,35,0,1,ORPHAN - YATIMA,,,,,,,,,,,,,,,,,,,,,,,,,,,,,,,,,,,,,,,,,,,,,,,,,,,,,,,,,,,,,,,,,,,,,,,,,,,,,,,,
,,,,,,,,,,W1492951,2020-10-23_11h58.13.530,swahili,2020.2.4,Win32,60,,,,,,,,,,-0.040104152,0.041666652,1,0,0,0.46072,unsorted_card,36,0,36,0,1,,,,,,,,,,,,,,,,,,,,,,,,,,,,,,,,,,,,,,,,,,,,,,,,,,,,,,,,,,,,,,,,,,,,,,,,,,,,,,,,,
,,,,,,,,,,W1492951,2020-10-23_11h58.13.530,swahili,2020.2.4,Win32,60,,,,,,,,,,0.438020855,0.42314814,1,0,0,1.881865,study_pile,37,0,37,0,1,DIVORCE - TALAKA,,,,,,,,,,,,,,,,,,,,,,,,,,,,,,,,,,,,,,,,,,,,,,,,,,,,,,,,,,,,,,,,,,,,,,,,,,,,,,,,
,,,,,,,,,,W1492951,2020-10-23_11h58.13.530,swahili,2020.2.4,Win32,60,,,,,,,,,,-0.369270824,-1.4912E-08,1,0,0,0.46476,unsorted_card,38,0,38,0,1,,,,,,,,,,,,,,,,,,,,,,,,,,,,,,,,,,,,,,,,,,,,,,,,,,,,,,,,,,,,,,,,,,,,,,,,,,,,,,,,,
,,,,,,,,,,W1492951,2020-10-23_11h58.13.530,swahili,2020.2.4,Win32,60,,,,,,,,,,0.486458355,0.437962955,1,0,0,1.997585,study_pile,39,0,39,0,1,BOAT - MASHUA,,,,,,,,,,,,,,,,,,,,,,,,,,,,,,,,,,,,,,,,,,,,,,,,,,,,,,,,,,,,,,,,,,,,,,,,,,,,,,,,
,,,,,,,,,,W1492951,2020-10-23_11h58.13.530,swahili,2020.2.4,Win32,60,,,,,,,,,,-0.397395824,-0.013888904,1,0,0,0.31614,unsorted_card,40,0,40,0,1,,,,,,,,,,,,,,,,,,,,,,,,,,,,,,,,,,,,,,,,,,,,,,,,,,,,,,,,,,,,,,,,,,,,,,,,,,,,,,,,,
,,,,,,,,,,W1492951,2020-10-23_11h58.13.530,swahili,2020.2.4,Win32,60,,,,,,,,,,0.458854188,-0.037962978,1,0,0,3.013885,test_pile,41,0,41,0,1,TREASURE - DAFINA,,,,,,,,,,,,,,,,,,,,,,,,,,,,,,,,,,,,,,,,,,,,,,,,,,,,,,,,,,,,,,,,,,,,,,,,,,,,,,,,
,,,,,,,,,,W1492951,2020-10-23_11h58.13.530,swahili,2020.2.4,Win32,60,,,,,,,,,,,,,,,,,,,,,,,0.458333355,-0.092592609,1,0,0,8.77035,test_first,,,0,0,0,0,1,,,,,,,,,,,,,,,,,,,,,,,,,,,,,,,,,,,,,,,,,,,,,,,,,,,,,,,,,,,,,,,,,,
,,,,,,,,,,W1492951,2020-10-23_11h58.13.530,swahili,2020.2.4,Win32,60,,,,,,,,,,,,,,,,,,,,,,,,,,,,,,,,,,,,,return,5.26726,13.46449,0.396354187,-0.012962978,1,0,0,3.46484,yes,GRAPES,UVAMA,incorrect,0,0,0,0,1,,,,,,,,,,,,,,,,,,,,,,,,,,,,,,,,,,,,,,,,,,,,,,,,
,,,,,,,,,,W1492951,2020-10-23_11h58.13.530,swahili,2020.2.4,Win32,60,,,,,,,,,,,,,,,,,,,,,,,,,,,,,,,,,,,,,,,14.880415,0.573958357,-0.242592611,1,0,0,1.33333,yes,TREASURE,DIMIKA,incorrect,1,0,1,0,1,,,,,,,,,,,,,,,,,,,,,,,,,,,,,,,,,,,,,,,,,,,,,,,,
,,,,,,,,,,W1492951,2020-10-23_11h58.13.530,swahili,2020.2.4,Win32,60,,,,,,,,,,,,,,,,,,,,,,,,,,,,,,,,,,,,,,,4.730305,0.380208354,-0.071296312,1,0,0,1.147855,yes,CHEESE,JURIGO,incorrect,2,0,2,0,1,,,,,,,,,,,,,,,,,,,,,,,,,,,,,,,,,,,,,,,,,,,,,,,,
,,,,,,,,,,W1492951,2020-10-23_11h58.13.530,swahili,2020.2.4,Win32,60,,,,,,,,,,,,,,,,,,,,,,,,,,,,,,,,,,,,,,,10.900295,0.488541816,-0.111111128,1,0,0,1.316435,yes,BLAME,TITIRI,incorrect,3,0,3,0,1,,,,,,,,,,,,,,,,,,,,,,,,,,,,,,,,,,,,,,,,,,,,,,,,
,,,,,,,,,,W1492951,2020-10-23_11h58.13.530,swahili,2020.2.4,Win32,60,,,,,,,,,,,,,,,,,,,,,,,,,,,,,,,,,,,,,,,9.731755,0.564583357,0.04907406,1,0,0,0.93544,yes,ORPHAN,TALAMA,incorrect,4,0,4,0,1,,,,,,,,,,,,,,,,,,,,,,,,,,,,,,,,,,,,,,,,,,,,,,,,
,,,,,,,,,,W1492951,2020-10-23_11h58.13.530,swahili,2020.2.4,Win32,60,,,,,,,,,,,,,,,,,,,,,,,,,,,,,,,,,,,,,,,9.11278,0.313020853,0.07870369,1,0,0,0.90557,yes,GRAVE,URENTA,incorrect,5,0,5,0,1,,,,,,,,,,,,,,,,,,,,,,,,,,,,,,,,,,,,,,,,,,,,,,,,
,,,,,,,,,,W1492951,2020-10-23_11h58.13.530,swahili,2020.2.4,Win32,60,,,,,,,,,,,,,,,,,,,,,,,,,,,,,,,,,,,,,,,,,,,,,,,,,,,,,,,0,0,0,0,1,,,,,,,,,,,,,,,,,,,,,,,,,,,,,,,,,,,,,,,,,,,
,,,,,,,,,,W1492951,2020-10-23_11h58.13.530,swahili,2020.2.4,Win32,60,,,,,,,,,,,,,,,,,,,,,,BOAT - MASHUA,,,,,,,,return,return,0,0,0,0,1,,,,,,,,,,,,,,,,,,,,,,,,9.929995,5.00082,,,,,,,,,,,,,,,,,,,,,,,,,,,,,,,,,,,,,,,,,
,,,,,,,,,,W1492951,2020-10-23_11h58.13.530,swahili,2020.2.4,Win32,60,,,,,,,,,,,,,,,,,,,,,,PARROT - KASUKU,,,,,,,,,return,1,0,1,0,1,,,,,,,,,,,,,,,,,,,,,,,,,4.88362,,,,,,,,,,,,,,,,,,,,,,,,,,,,,,,,,,,,,,,,,
,,,,,,,,,,W1492951,2020-10-23_11h58.13.530,swahili,2020.2.4,Win32,60,,,,,,,,,,,,,,,,,,,,,,AGENT - WAKILI,,,,,,,,,return,2,0,2,0,1,,,,,,,,,,,,,,,,,,,,,,,,,6.49999,,,,,,,,,,,,,,,,,,,,,,,,,,,,,,,,,,,,,,,,,
,,,,,,,,,,W1492951,2020-10-23_11h58.13.530,swahili,2020.2.4,Win32,60,,,,,,,,,,,,,,,,,,,,,,CORN - NAFAKA,,,,,,,,,return,3,0,3,0,1,,,,,,,,,,,,,,,,,,,,,,,,,2.800225,,,,,,,,,,,,,,,,,,,,,,,,,,,,,,,,,,,,,,,,,
,,,,,,,,,,W1492951,2020-10-23_11h58.13.530,swahili,2020.2.4,Win32,60,,,,,,,,,,,,,,,,,,,,,,OATH - YAMINI,,,,,,,,,return,4,0,4,0,1,,,,,,,,,,,,,,,,,,,,,,,,,1.466325,,,,,,,,,,,,,,,,,,,,,,,,,,,,,,,,,,,,,,,,,
,,,,,,,,,,W1492951,2020-10-23_11h58.13.530,swahili,2020.2.4,Win32,60,,,,,,,,,,,,,,,,,,,,,,DIVORCE - TALAKA,,,,,,,,,return,5,0,5,0,1,,,,,,,,,,,,,,,,,,,,,,,,,2.76692,,,,,,,,,,,,,,,,,,,,,,,,,,,,,,,,,,,,,,,,,
,,,,,,,,,,W1492951,2020-10-23_11h58.13.530,swahili,2020.2.4,Win32,60,,,,,,,,,,,,,,,,,,,,,,BULL - FAHILI,,,,,,,,,return,6,0,6,0,1,,,,,,,,,,,,,,,,,,,,,,,,,2.03371,,,,,,,,,,,,,,,,,,,,,,,,,,,,,,,,,,,,,,,,,
,,,,,,,,,,W1492951,2020-10-23_11h58.13.530,swahili,2020.2.4,Win32,60,,,,,,,,,,,,,,,,,,,,,,TAILOR - MSHONI,,,,,,,,,return,7,0,7,0,1,,,,,,,,,,,,,,,,,,,,,,,,,2.950145,,,,,,,,,,,,,,,,,,,,,,,,,,,,,,,,,,,,,,,,,
,,,,,,,,,,W1492951,2020-10-23_11h58.13.530,swahili,2020.2.4,Win32,60,,,,,,,,,,,,,,,,,,,,,,MANURE - SAMADI,,,,,,,,,return,8,0,8,0,1,,,,,,,,,,,,,,,,,,,,,,,,,2.28359,,,,,,,,,,,,,,,,,,,,,,,,,,,,,,,,,,,,,,,,,
,,,,,,,,,,W1492951,2020-10-23_11h58.13.530,swahili,2020.2.4,Win32,60,,,,,,,,,,,,,,,,,,,,,,YEAST - HAMIRA,,,,,,,,,return,9,0,9,0,1,,,,,,,,,,,,,,,,,,,,,,,,,2.066795,,,,,,,,,,,,,,,,,,,,,,,,,,,,,,,,,,,,,,,,,
,,,,,,,,,,W1492951,2020-10-23_11h58.13.530,swahili,2020.2.4,Win32,60,,,,,,,,,,,,,,,,,,,,,,POEM - UTENZI,,,,,,,,,return,10,0,10,0,1,,,,,,,,,,,,,,,,,,,,,,,,,1.46696,,,,,,,,,,,,,,,,,,,,,,,,,,,,,,,,,,,,,,,,,
,,,,,,,,,,W1492951,2020-10-23_11h58.13.530,swahili,2020.2.4,Win32,60,,,,,,,,,,,,,,,,,,,,,,PLATE - SAHANI,,,,,,,,,return,11,0,11,0,1,,,,,,,,,,,,,,,,,,,,,,,,,1.95045,,,,,,,,,,,,,,,,,,,,,,,,,,,,,,,,,,,,,,,,,
,,,,,,,,,,W1492951,2020-10-23_11h58.13.530,swahili,2020.2.4,Win32,60,,,,,,,,,,,,,,,,,,,,,,BRIBE - RUSHWA,,,,,,,,,return,12,0,12,0,1,,,,,,,,,,,,,,,,,,,,,,,,,2.4671,,,,,,,,,,,,,,,,,,,,,,,,,,,,,,,,,,,,,,,,,
,,,,,,,,,,W1492951,2020-10-23_11h58.13.530,swahili,2020.2.4,Win32,60,,,,,,,,,,,,,,,,,,,,,,MERCHANT - TAJIRI,,,,,,,,,return,13,0,13,0,1,,,,,,,,,,,,,,,,,,,,,,,,,1.750615,,,,,,,,,,,,,,,,,,,,,,,,,,,,,,,,,,,,,,,,,
,,,,,,,,,,W1492951,2020-10-23_11h58.13.530,swahili,2020.2.4,Win32,60,,,,,,,,,,,,,,,,,,,,,,,,,,,,,,,,,,,,,,,,,,,,,,,,,,,,,,,1,0,1,0,1,,,,,,,,,,,,,,,,,,,,,,,,,,,,,,,,,,,,,,,,,,,
,,,,,,,,,,W1492951,2020-10-23_11h58.13.530,swahili,2020.2.4,Win32,60,,,,,,,,,,,,,,,,,,,,,,,,,,,,,,,,,,,,,,,,,,,,,,,,,,,,,,,,,,,,,,0,0,0,0,1,,,,,,,,,,,,,,,,,,,,,,,,,,,,,,,,,,,,
,,,,,,,,,,W1492951,2020-10-23_11h58.13.530,swahili,2020.2.4,Win32,60,,,,,,,,,,-0.230729155,-0.064814831,1,0,0,5.42443,unsorted_card,0,0,0,0,1,,,,,,,,,,,,,,,,,,,,,,,,,,,,,,,,,,,,,,,,,,,,,,,,,,,,,,,,,,,,,,,,,,,,,,,,,,,,,,,,,
,,,,,,,,,,W1492951,2020-10-23_11h58.13.530,swahili,2020.2.4,Win32,60,,,,,,,,,,0.498958483,-0.075000016,1,0,0,11.19528,test_pile,1,0,1,0,1,MERCHANT - TAJIRI,,,,,,,,,,,,,,,,,,,,,,,,,,,,,,,,,,,,,,,,,,,,,,,,,,,,,,,,,,,,,,,,,,,,,,,,,,,,,,,,
,,,,,,,,,,W1492951,2020-10-23_11h58.13.530,swahili,2020.2.4,Win32,60,,,,,,,,,,-0.31302076,-0.126851869,1,0,0,0.727985,unsorted_card,2,0,2,0,1,,,,,,,,,,,,,,,,,,,,,,,,,,,,,,,,,,,,,,,,,,,,,,,,,,,,,,,,,,,,,,,,,,,,,,,,,,,,,,,,,
,,,,,,,,,,W1492951,2020-10-23_11h58.13.530,swahili,2020.2.4,Win32,60,,,,,,,,,,0.50156265,-0.033333349,1,0,0,5.790255,test_pile,3,0,3,0,1,PARROT - KASUKU,,,,,,,,,,,,,,,,,,,,,,,,,,,,,,,,,,,,,,,,,,,,,,,,,,,,,,,,,,,,,,,,,,,,,,,,,,,,,,,,
,,,,,,,,,,W1492951,2020-10-23_11h58.13.530,swahili,2020.2.4,Win32,60,,,,,,,,,,-0.280208323,-0.076851868,1,0,0,0.51338,unsorted_card,4,0,4,0,1,,,,,,,,,,,,,,,,,,,,,,,,,,,,,,,,,,,,,,,,,,,,,,,,,,,,,,,,,,,,,,,,,,,,,,,,,,,,,,,,,
,,,,,,,,,,W1492951,2020-10-23_11h58.13.530,swahili,2020.2.4,Win32,60,,,,,,,,,,0.407291688,0.485185178,1,0,0,2.68148,study_pile,5,0,5,0,1,BULL - FAHILI,,,,,,,,,,,,,,,,,,,,,,,,,,,,,,,,,,,,,,,,,,,,,,,,,,,,,,,,,,,,,,,,,,,,,,,,,,,,,,,,
,,,,,,,,,,W1492951,2020-10-23_11h58.13.530,swahili,2020.2.4,Win32,60,,,,,,,,,,-0.282812489,0.040740726,1,0,0,0.409345,unsorted_card,6,0,6,0,1,,,,,,,,,,,,,,,,,,,,,,,,,,,,,,,,,,,,,,,,,,,,,,,,,,,,,,,,,,,,,,,,,,,,,,,,,,,,,,,,,
,,,,,,,,,,W1492951,2020-10-23_11h58.13.530,swahili,2020.2.4,Win32,60,,,,,,,,,,0.427604188,0.500925918,1,0,0,3.547125,study_pile,7,0,7,0,1,PLATE - SAHANI,,,,,,,,,,,,,,,,,,,,,,,,,,,,,,,,,,,,,,,,,,,,,,,,,,,,,,,,,,,,,,,,,,,,,,,,,,,,,,,,
,,,,,,,,,,W1492951,2020-10-23_11h58.13.530,swahili,2020.2.4,Win32,60,,,,,,,,,,-0.236458322,-0.037037052,1,0,0,0.549945,unsorted_card,8,0,8,0,1,,,,,,,,,,,,,,,,,,,,,,,,,,,,,,,,,,,,,,,,,,,,,,,,,,,,,,,,,,,,,,,,,,,,,,,,,,,,,,,,,
,,,,,,,,,,W1492951,2020-10-23_11h58.13.530,swahili,2020.2.4,Win32,60,,,,,,,,,,0.505208356,0.521296289,1,0,0,8.813655,study_pile,9,0,9,0,1,YEAST - HAMIRA,,,,,,,,,,,,,,,,,,,,,,,,,,,,,,,,,,,,,,,,,,,,,,,,,,,,,,,,,,,,,,,,,,,,,,,,,,,,,,,,
,,,,,,,,,,W1492951,2020-10-23_11h58.13.530,swahili,2020.2.4,Win32,60,,,,,,,,,,-0.417187491,0.036111097,1,0,0,0.44624,unsorted_card,10,0,10,0,1,,,,,,,,,,,,,,,,,,,,,,,,,,,,,,,,,,,,,,,,,,,,,,,,,,,,,,,,,,,,,,,,,,,,,,,,,,,,,,,,,
,,,,,,,,,,W1492951,2020-10-23_11h58.13.530,swahili,2020.2.4,Win32,60,,,,,,,,,,0.468229189,0.522222215,1,0,0,0.88407,study_pile,11,0,11,0,1,BLAME - LAWAMA,,,,,,,,,,,,,,,,,,,,,,,,,,,,,,,,,,,,,,,,,,,,,,,,,,,,,,,,,,,,,,,,,,,,,,,,,,,,,,,,
,,,,,,,,,,W1492951,2020-10-23_11h58.13.530,swahili,2020.2.4,Win32,60,,,,,,,,,,-0.252604156,0.082407394,1,0,0,0.32772,unsorted_card,12,0,12,0,1,,,,,,,,,,,,,,,,,,,,,,,,,,,,,,,,,,,,,,,,,,,,,,,,,,,,,,,,,,,,,,,,,,,,,,,,,,,,,,,,,
,,,,,,,,,,W1492951,2020-10-23_11h58.13.530,swahili,2020.2.4,Win32,60,,,,,,,,,,0.424479188,0.471296288,1,0,0,1.96938,study_pile,13,0,13,0,1,OATH - YAMINI,,,,,,,,,,,,,,,,,,,,,,,,,,,,,,,,,,,,,,,,,,,,,,,,,,,,,,,,,,,,,,,,,,,,,,,,,,,,,,,,
,,,,,,,,,,W1492951,2020-10-23_11h58.13.530,swahili,2020.2.4,Win32,60,,,,,,,,,,-0.292187426,-0.025925941,1,0,0,0.31194,unsorted_card,14,0,14,0,1,,,,,,,,,,,,,,,,,,,,,,,,,,,,,,,,,,,,,,,,,,,,,,,,,,,,,,,,,,,,,,,,,,,,,,,,,,,,,,,,,
,,,,,,,,,,W1492951,2020-10-23_11h58.13.530,swahili,2020.2.4,Win32,60,,,,,,,,,,0.367708354,0.475925918,1,0,0,0.718735,study_pile,15,0,15,0,1,CORN - NAFAKA,,,,,,,,,,,,,,,,,,,,,,,,,,,,,,,,,,,,,,,,,,,,,,,,,,,,,,,,,,,,,,,,,,,,,,,,,,,,,,,,
,,,,,,,,,,W1492951,2020-10-23_11h58.13.530,swahili,2020.2.4,Win32,60,,,,,,,,,,-0.483854159,-0.089814831,1,0,0,0.347865,unsorted_card,16,0,16,0,1,,,,,,,,,,,,,,,,,,,,,,,,,,,,,,,,,,,,,,,,,,,,,,,,,,,,,,,,,,,,,,,,,,,,,,,,,,,,,,,,,
,,,,,,,,,,W1492951,2020-10-23_11h58.13.530,swahili,2020.2.4,Win32,60,,,,,,,,,,0.443229188,0.430555547,1,0,0,0.68202,study_pile,17,0,17,0,1,POEM - UTENZI,,,,,,,,,,,,,,,,,,,,,,,,,,,,,,,,,,,,,,,,,,,,,,,,,,,,,,,,,,,,,,,,,,,,,,,,,,,,,,,,
,,,,,,,,,,W1492951,2020-10-23_11h58.13.530,swahili,2020.2.4,Win32,60,,,,,,,,,,-0.275520823,-0.042592608,1,0,0,0.312075,unsorted_card,18,0,18,0,1,,,,,,,,,,,,,,,,,,,,,,,,,,,,,,,,,,,,,,,,,,,,,,,,,,,,,,,,,,,,,,,,,,,,,,,,,,,,,,,,,
,,,,,,,,,,W1492951,2020-10-23_11h58.13.530,swahili,2020.2.4,Win32,60,,,,,,,,,,0.449479315,0.552777771,1,0,0,0.41872,study_pile,19,0,19,0,1,TAILOR - MSHONI,,,,,,,,,,,,,,,,,,,,,,,,,,,,,,,,,,,,,,,,,,,,,,,,,,,,,,,,,,,,,,,,,,,,,,,,,,,,,,,,
,,,,,,,,,,W1492951,2020-10-23_11h58.13.530,swahili,2020.2.4,Win32,60,,,,,,,,,,-0.293229156,0.047222208,1,0,0,0.38187,unsorted_card,20,0,20,0,1,,,,,,,,,,,,,,,,,,,,,,,,,,,,,,,,,,,,,,,,,,,,,,,,,,,,,,,,,,,,,,,,,,,,,,,,,,,,,,,,,
,,,,,,,,,,W1492951,2020-10-23_11h58.13.530,swahili,2020.2.4,Win32,60,,,,,,,,,,0.422395855,0.574999994,1,0,0,0.54935,study_pile,21,0,21,0,1,CHEESE - JIBINI,,,,,,,,,,,,,,,,,,,,,,,,,,,,,,,,,,,,,,,,,,,,,,,,,,,,,,,,,,,,,,,,,,,,,,,,,,,,,,,,
,,,,,,,,,,W1492951,2020-10-23_11h58.13.530,swahili,2020.2.4,Win32,60,,,,,,,,,,-0.243749989,0.073148134,1,0,0,0.347065,unsorted_card,22,0,22,0,1,,,,,,,,,,,,,,,,,,,,,,,,,,,,,,,,,,,,,,,,,,,,,,,,,,,,,,,,,,,,,,,,,,,,,,,,,,,,,,,,,
,,,,,,,,,,W1492951,2020-10-23_11h58.13.530,swahili,2020.2.4,Win32,60,,,,,,,,,,0.500000022,0.474999992,1,0,0,1.999315,study_pile,23,0,23,0,1,GRAPES - ZABIBU,,,,,,,,,,,,,,,,,,,,,,,,,,,,,,,,,,,,,,,,,,,,,,,,,,,,,,,,,,,,,,,,,,,,,,,,,,,,,,,,
,,,,,,,,,,W1492951,2020-10-23_11h58.13.530,swahili,2020.2.4,Win32,60,,,,,,,,,,-0.143749924,-1.4912E-08,1,0,0,0.41439,unsorted_card,24,0,24,0,1,,,,,,,,,,,,,,,,,,,,,,,,,,,,,,,,,,,,,,,,,,,,,,,,,,,,,,,,,,,,,,,,,,,,,,,,,,,,,,,,,
,,,,,,,,,,W1492951,2020-10-23_11h58.13.530,swahili,2020.2.4,Win32,60,,,,,,,,,,0.443750022,0.508333326,1,0,0,0.88117,study_pile,25,0,25,0,1,GRAVE - KABURI,,,,,,,,,,,,,,,,,,,,,,,,,,,,,,,,,,,,,,,,,,,,,,,,,,,,,,,,,,,,,,,,,,,,,,,,,,,,,,,,
,,,,,,,,,,W1492951,2020-10-23_11h58.13.530,swahili,2020.2.4,Win32,60,,,,,,,,,,-0.32864576,-0.04444446,1,0,0,0.39964,unsorted_card,26,0,26,0,1,,,,,,,,,,,,,,,,,,,,,,,,,,,,,,,,,,,,,,,,,,,,,,,,,,,,,,,,,,,,,,,,,,,,,,,,,,,,,,,,,
,,,,,,,,,,W1492951,2020-10-23_11h58.13.530,swahili,2020.2.4,Win32,60,,,,,,,,,,0.389062521,0.465740733,1,0,0,0.58159,study_pile,27,0,27,0,1,MANURE - SAMADI,,,,,,,,,,,,,,,,,,,,,,,,,,,,,,,,,,,,,,,,,,,,,,,,,,,,,,,,,,,,,,,,,,,,,,,,,,,,,,,,
,,,,,,,,,,W1492951,2020-10-23_11h58.13.530,swahili,2020.2.4,Win32,60,,,,,,,,,,-0.330729157,0.024999985,1,0,0,0.399515,unsorted_card,28,0,28,0,1,,,,,,,,,,,,,,,,,,,,,,,,,,,,,,,,,,,,,,,,,,,,,,,,,,,,,,,,,,,,,,,,,,,,,,,,,,,,,,,,,
,,,,,,,,,,W1492951,2020-10-23_11h58.13.530,swahili,2020.2.4,Win32,60,,,,,,,,,,0.503645856,0.046296282,1,0,0,2.648905,test_pile,29,0,29,0,1,AGENT - WAKILI,,,,,,,,,,,,,,,,,,,,,,,,,,,,,,,,,,,,,,,,,,,,,,,,,,,,,,,,,,,,,,,,,,,,,,,,,,,,,,,,
,,,,,,,,,,W1492951,2020-10-23_11h58.13.530,swahili,2020.2.4,Win32,60,,,,,,,,,,-0.282291656,0.054629616,1,0,0,0.364345,unsorted_card,30,0,30,0,1,,,,,,,,,,,,,,,,,,,,,,,,,,,,,,,,,,,,,,,,,,,,,,,,,,,,,,,,,,,,,,,,,,,,,,,,,,,,,,,,,
,,,,,,,,,,W1492951,2020-10-23_11h58.13.530,swahili,2020.2.4,Win32,60,,,,,,,,,,0.419270854,0.008333319,1,0,0,2.281435,test_pile,31,0,31,0,1,BRIBE - RUSHWA,,,,,,,,,,,,,,,,,,,,,,,,,,,,,,,,,,,,,,,,,,,,,,,,,,,,,,,,,,,,,,,,,,,,,,,,,,,,,,,,
,,,,,,,,,,W1492951,2020-10-23_11h58.13.530,swahili,2020.2.4,Win32,60,,,,,,,,,,-0.314583323,-0.14259261,1,0,0,0.31398,unsorted_card,32,0,32,0,1,,,,,,,,,,,,,,,,,,,,,,,,,,,,,,,,,,,,,,,,,,,,,,,,,,,,,,,,,,,,,,,,,,,,,,,,,,,,,,,,,
,,,,,,,,,,W1492951,2020-10-23_11h58.13.530,swahili,2020.2.4,Win32,60,,,,,,,,,,0.483854189,0.467592585,1,0,0,1.316135,study_pile,33,0,33,0,1,ORPHAN - YATIMA,,,,,,,,,,,,,,,,,,,,,,,,,,,,,,,,,,,,,,,,,,,,,,,,,,,,,,,,,,,,,,,,,,,,,,,,,,,,,,,,
,,,,,,,,,,W1492951,2020-10-23_11h58.13.530,swahili,2020.2.4,Win32,60,,,,,,,,,,-0.200520821,-0.01481483,1,0,0,0.378955,unsorted_card,34,0,34,0,1,,,,,,,,,,,,,,,,,,,,,,,,,,,,,,,,,,,,,,,,,,,,,,,,,,,,,,,,,,,,,,,,,,,,,,,,,,,,,,,,,
,,,,,,,,,,W1492951,2020-10-23_11h58.13.530,swahili,2020.2.4,Win32,60,,,,,,,,,,0.461979188,-0.009259274,1,0,0,4.85099,test_pile,35,0,35,0,1,DIVORCE - TALAKA,,,,,,,,,,,,,,,,,,,,,,,,,,,,,,,,,,,,,,,,,,,,,,,,,,,,,,,,,,,,,,,,,,,,,,,,,,,,,,,,
,,,,,,,,,,W1492951,2020-10-23_11h58.13.530,swahili,2020.2.4,Win32,60,,,,,,,,,,-0.169270821,-0.020370386,1,0,0,0.328425,unsorted_card,36,0,36,0,1,,,,,,,,,,,,,,,,,,,,,,,,,,,,,,,,,,,,,,,,,,,,,,,,,,,,,,,,,,,,,,,,,,,,,,,,,,,,,,,,,
,,,,,,,,,,W1492951,2020-10-23_11h58.13.530,swahili,2020.2.4,Win32,60,,,,,,,,,,0.587500151,0.449074066,1,0,0,1.268505,study_pile,37,0,37,0,1,BOAT - MASHUA,,,,,,,,,,,,,,,,,,,,,,,,,,,,,,,,,,,,,,,,,,,,,,,,,,,,,,,,,,,,,,,,,,,,,,,,,,,,,,,,
,,,,,,,,,,W1492951,2020-10-23_11h58.13.530,swahili,2020.2.4,Win32,60,,,,,,,,,,-0.236979155,0.025925911,1,0,0,0.34749,unsorted_card,38,0,38,0,1,,,,,,,,,,,,,,,,,,,,,,,,,,,,,,,,,,,,,,,,,,,,,,,,,,,,,,,,,,,,,,,,,,,,,,,,,,,,,,,,,
,,,,,,,,,,W1492951,2020-10-23_11h58.13.530,swahili,2020.2.4,Win32,60,,,,,,,,,,0.492708356,0.450925918,1,0,0,0.93245,study_pile,39,0,39,0,1,TREASURE - DAFINA,,,,,,,,,,,,,,,,,,,,,,,,,,,,,,,,,,,,,,,,,,,,,,,,,,,,,,,,,,,,,,,,,,,,,,,,,,,,,,,,
,,,,,,,,,,W1492951,2020-10-23_11h58.13.530,swahili,2020.2.4,Win32,60,,,,,,,,,,,,,,,,,,,,,,,0.498437522,-0.110185202,1,0,0,7.165635,test_first,,,0,0,0,0,1,,,,,,,,,,,,,,,,,,,,,,,,,,,,,,,,,,,,,,,,,,,,,,,,,,,,,,,,,,,,,,,,,,
,,,,,,,,,,W1492951,2020-10-23_11h58.13.530,swahili,2020.2.4,Win32,60,,,,,,,,,,,,,,,,,,,,,,,,,,,,,,,,,,,,,return,1.086675,12.57949,0.389062521,0.107407394,1,0,0,1.21451,yes,MERCHANT,RUSHWA,incorrect,0,0,0,0,1,,,,,,,,,,,,,,,,,,,,,,,,,,,,,,,,,,,,,,,,,,,,,,,,
,,,,,,,,,,W1492951,2020-10-23_11h58.13.530,swahili,2020.2.4,Win32,60,,,,,,,,,,,,,,,,,,,,,,,,,,,,,,,,,,,,,,,24.418835,0.508333356,-0.032407423,1,0,0,1.36647,yes,BRIBE,TAJIRA,incorrect,1,0,1,0,1,,,,,,,,,,,,,,,,,,,,,,,,,,,,,,,,,,,,,,,,,,,,,,,,
,,,,,,,,,,W1492951,2020-10-23_11h58.13.530,swahili,2020.2.4,Win32,60,,,,,,,,,,,,,,,,,,,,,,,,,,,,,,,,,,,,,,,3.997545,0.450000022,0.048148134,1,0,0,1.065505,yes,PARROT,KAZUKO,incorrect,2,0,2,0,1,,,,,,,,,,,,,,,,,,,,,,,,,,,,,,,,,,,,,,,,,,,,,,,,
,,,,,,,,,,W1492951,2020-10-23_11h58.13.530,swahili,2020.2.4,Win32,60,,,,,,,,,,,,,,,,,,,,,,,,,,,,,,,,,,,,,,,2.997015,0.345312647,-0.097222239,1,0,0,0.868535,yes,AGENT,WALKILI,incorrect,3,0,3,0,1,,,,,,,,,,,,,,,,,,,,,,,,,,,,,,,,,,,,,,,,,,,,,,,,
,,,,,,,,,,W1492951,2020-10-23_11h58.13.530,swahili,2020.2.4,Win32,60,,,,,,,,,,,,,,,,,,,,,,,,,,,,,,,,,,,,,,,6.59745,0.940625029,0.099074061,1,0,0,1.21337,yes,DIVORCE,RUSHWA,incorrect,4,0,4,0,1,,,,,,,,,,,,,,,,,,,,,,,,,,,,,,,,,,,,,,,,,,,,,,,,
,,,,,,,,,,W1492951,2020-10-23_11h58.13.530,swahili,2020.2.4,Win32,60,,,,,,,,,,,,,,,,,,,,,,,,,,,,,,,,,,,,,,,,,,,,,,,,,,,,,,,0,0,0,0,1,,,,,,,,,,,,,,,,,,,,,,,,,,,,,,,,,,,,,,,,,,,
,,,,,,,,,,W1492951,2020-10-23_11h58.13.530,swahili,2020.2.4,Win32,60,,,,,,,,,,,,,,,,,,,,,,BOAT - MASHUA,,,,,,,,return,return,0,0,0,0,1,,,,,,,,,,,,,,,,,,,,,,,,1.350085,7.233895,,,,,,,,,,,,,,,,,,,,,,,,,,,,,,,,,,,,,,,,,
,,,,,,,,,,W1492951,2020-10-23_11h58.13.530,swahili,2020.2.4,Win32,60,,,,,,,,,,,,,,,,,,,,,,BLAME - LAWAMA,,,,,,,,,return,1,0,1,0,1,,,,,,,,,,,,,,,,,,,,,,,,,1.785815,,,,,,,,,,,,,,,,,,,,,,,,,,,,,,,,,,,,,,,,,
,,,,,,,,,,W1492951,2020-10-23_11h58.13.530,swahili,2020.2.4,Win32,60,,,,,,,,,,,,,,,,,,,,,,CORN - NAFAKA,,,,,,,,,return,2,0,2,0,1,,,,,,,,,,,,,,,,,,,,,,,,,1.98347,,,,,,,,,,,,,,,,,,,,,,,,,,,,,,,,,,,,,,,,,
,,,,,,,,,,W1492951,2020-10-23_11h58.13.530,swahili,2020.2.4,Win32,60,,,,,,,,,,,,,,,,,,,,,,GRAPES - ZABIBU,,,,,,,,,return,3,0,3,0,1,,,,,,,,,,,,,,,,,,,,,,,,,1.550585,,,,,,,,,,,,,,,,,,,,,,,,,,,,,,,,,,,,,,,,,
,,,,,,,,,,W1492951,2020-10-23_11h58.13.530,swahili,2020.2.4,Win32,60,,,,,,,,,,,,,,,,,,,,,,POEM - UTENZI,,,,,,,,,return,4,0,4,0,1,,,,,,,,,,,,,,,,,,,,,,,,,2.017145,,,,,,,,,,,,,,,,,,,,,,,,,,,,,,,,,,,,,,,,,
,,,,,,,,,,W1492951,2020-10-23_11h58.13.530,swahili,2020.2.4,Win32,60,,,,,,,,,,,,,,,,,,,,,,GRAVE - KABURI,,,,,,,,,return,5,0,5,0,1,,,,,,,,,,,,,,,,,,,,,,,,,1.533085,,,,,,,,,,,,,,,,,,,,,,,,,,,,,,,,,,,,,,,,,
,,,,,,,,,,W1492951,2020-10-23_11h58.13.530,swahili,2020.2.4,Win32,60,,,,,,,,,,,,,,,,,,,,,,TREASURE - DAFINA,,,,,,,,,return,6,0,6,0,1,,,,,,,,,,,,,,,,,,,,,,,,,1.583515,,,,,,,,,,,,,,,,,,,,,,,,,,,,,,,,,,,,,,,,,
,,,,,,,,,,W1492951,2020-10-23_11h58.13.530,swahili,2020.2.4,Win32,60,,,,,,,,,,,,,,,,,,,,,,BULL - FAHILI,,,,,,,,,return,7,0,7,0,1,,,,,,,,,,,,,,,,,,,,,,,,,1.95068,,,,,,,,,,,,,,,,,,,,,,,,,,,,,,,,,,,,,,,,,
,,,,,,,,,,W1492951,2020-10-23_11h58.13.530,swahili,2020.2.4,Win32,60,,,,,,,,,,,,,,,,,,,,,,ORPHAN - YATIMA,,,,,,,,,return,8,0,8,0,1,,,,,,,,,,,,,,,,,,,,,,,,,3.033495,,,,,,,,,,,,,,,,,,,,,,,,,,,,,,,,,,,,,,,,,
,,,,,,,,,,W1492951,2020-10-23_11h58.13.530,swahili,2020.2.4,Win32,60,,,,,,,,,,,,,,,,,,,,,,YEAST - HAMIRA,,,,,,,,,return,9,0,9,0,1,,,,,,,,,,,,,,,,,,,,,,,,,1.600605,,,,,,,,,,,,,,,,,,,,,,,,,,,,,,,,,,,,,,,,,
,,,,,,,,,,W1492951,2020-10-23_11h58.13.530,swahili,2020.2.4,Win32,60,,,,,,,,,,,,,,,,,,,,,,PLATE - SAHANI,,,,,,,,,return,10,0,10,0,1,,,,,,,,,,,,,,,,,,,,,,,,,1.68373,,,,,,,,,,,,,,,,,,,,,,,,,,,,,,,,,,,,,,,,,
,,,,,,,,,,W1492951,2020-10-23_11h58.13.530,swahili,2020.2.4,Win32,60,,,,,,,,,,,,,,,,,,,,,,MANURE - SAMADI,,,,,,,,,return,11,0,11,0,1,,,,,,,,,,,,,,,,,,,,,,,,,1.650405,,,,,,,,,,,,,,,,,,,,,,,,,,,,,,,,,,,,,,,,,
,,,,,,,,,,W1492951,2020-10-23_11h58.13.530,swahili,2020.2.4,Win32,60,,,,,,,,,,,,,,,,,,,,,,OATH - YAMINI,,,,,,,,,return,12,0,12,0,1,,,,,,,,,,,,,,,,,,,,,,,,,1.468285,,,,,,,,,,,,,,,,,,,,,,,,,,,,,,,,,,,,,,,,,
,,,,,,,,,,W1492951,2020-10-23_11h58.13.530,swahili,2020.2.4,Win32,60,,,,,,,,,,,,,,,,,,,,,,CHEESE - JIBINI,,,,,,,,,return,13,0,13,0,1,,,,,,,,,,,,,,,,,,,,,,,,,1.367095,,,,,,,,,,,,,,,,,,,,,,,,,,,,,,,,,,,,,,,,,
,,,,,,,,,,W1492951,2020-10-23_11h58.13.530,swahili,2020.2.4,Win32,60,,,,,,,,,,,,,,,,,,,,,,TAILOR - MSHONI,,,,,,,,,return,14,0,14,0,1,,,,,,,,,,,,,,,,,,,,,,,,,2.4505,,,,,,,,,,,,,,,,,,,,,,,,,,,,,,,,,,,,,,,,,
,,,,,,,,,,W1492951,2020-10-23_11h58.13.530,swahili,2020.2.4,Win32,60,,,,,,,,,,,,,,,,,,,,,,,,,,,,,,,,,,,,,,,,,,,,,,,,,,,,,,,1,0,1,0,1,,,,,,,,,,,,,,,,,,,,,,,,,,,,,,,,,,,,,,,,,,,
,,,,,,,,,,W1492951,2020-10-23_11h58.13.530,swahili,2020.2.4,Win32,60,,,,,,,,,,,,,,,,,,,,,,,,,,,,,,,,,,,,,,,,,,,,,,,,,,,,,,,,,,,,,,1,0,1,0,1,,,,,,,,,,,,,,,,,,,,,,,,,,,,,,,,,,,,
,,,,,,,,,,W1492951,2020-10-23_11h58.13.530,swahili,2020.2.4,Win32,60,,,,,,,,,,-0.115624987,0.061111097,1,0,0,1.290165,unsorted_card,0,0,0,0,1,,,,,,,,,,,,,,,,,,,,,,,,,,,,,,,,,,,,,,,,,,,,,,,,,,,,,,,,,,,,,,,,,,,,,,,,,,,,,,,,,
,,,,,,,,,,W1492951,2020-10-23_11h58.13.530,swahili,2020.2.4,Win32,60,,,,,,,,,,0.528645856,0.449074066,1,0,0,12.07911,study_pile,1,0,1,0,1,MERCHANT - TAJIRI,,,,,,,,,,,,,,,,,,,,,,,,,,,,,,,,,,,,,,,,,,,,,,,,,,,,,,,,,,,,,,,,,,,,,,,,,,,,,,,,
,,,,,,,,,,W1492951,2020-10-23_11h58.13.530,swahili,2020.2.4,Win32,60,,,,,,,,,,-0.454687492,-0.110185202,1,0,0,0.42942,unsorted_card,2,0,2,0,1,,,,,,,,,,,,,,,,,,,,,,,,,,,,,,,,,,,,,,,,,,,,,,,,,,,,,,,,,,,,,,,,,,,,,,,,,,,,,,,,,
,,,,,,,,,,W1492951,2020-10-23_11h58.13.530,swahili,2020.2.4,Win32,60,,,,,,,,,,0.446354188,0.017592578,1,0,0,1.798295,test_pile,3,0,3,0,1,PARROT - KASUKU,,,,,,,,,,,,,,,,,,,,,,,,,,,,,,,,,,,,,,,,,,,,,,,,,,,,,,,,,,,,,,,,,,,,,,,,,,,,,,,,
,,,,,,,,,,W1492951,2020-10-23_11h58.13.530,swahili,2020.2.4,Win32,60,,,,,,,,,,-0.438020825,0.0148148,1,0,0,0.382425,unsorted_card,4,0,4,0,1,,,,,,,,,,,,,,,,,,,,,,,,,,,,,,,,,,,,,,,,,,,,,,,,,,,,,,,,,,,,,,,,,,,,,,,,,,,,,,,,,
,,,,,,,,,,W1492951,2020-10-23_11h58.13.530,swahili,2020.2.4,Win32,60,,,,,,,,,,0.488541816,0.4824074,1,0,0,4.616125,study_pile,5,0,5,0,1,BULL - FAHILI,,,,,,,,,,,,,,,,,,,,,,,,,,,,,,,,,,,,,,,,,,,,,,,,,,,,,,,,,,,,,,,,,,,,,,,,,,,,,,,,
,,,,,,,,,,W1492951,2020-10-23_11h58.13.530,swahili,2020.2.4,Win32,60,,,,,,,,,,-0.385416658,0.037037023,1,0,0,0.36591,unsorted_card,6,0,6,0,1,,,,,,,,,,,,,,,,,,,,,,,,,,,,,,,,,,,,,,,,,,,,,,,,,,,,,,,,,,,,,,,,,,,,,,,,,,,,,,,,,
,,,,,,,,,,W1492951,2020-10-23_11h58.13.530,swahili,2020.2.4,Win32,60,,,,,,,,,,0.432291688,0.436111103,1,0,0,2.614935,study_pile,7,0,7,0,1,PLATE - SAHANI,,,,,,,,,,,,,,,,,,,,,,,,,,,,,,,,,,,,,,,,,,,,,,,,,,,,,,,,,,,,,,,,,,,,,,,,,,,,,,,,
,,,,,,,,,,W1492951,2020-10-23_11h58.13.530,swahili,2020.2.4,Win32,60,,,,,,,,,,-0.366145824,-0.165740758,1,0,0,0.365775,unsorted_card,8,0,8,0,1,,,,,,,,,,,,,,,,,,,,,,,,,,,,,,,,,,,,,,,,,,,,,,,,,,,,,,,,,,,,,,,,,,,,,,,,,,,,,,,,,
,,,,,,,,,,W1492951,2020-10-23_11h58.13.530,swahili,2020.2.4,Win32,60,,,,,,,,,,0.511979316,-0.046296312,1,0,0,5.282735,test_pile,9,0,9,0,1,YEAST - HAMIRA,,,,,,,,,,,,,,,,,,,,,,,,,,,,,,,,,,,,,,,,,,,,,,,,,,,,,,,,,,,,,,,,,,,,,,,,,,,,,,,,
,,,,,,,,,,W1492951,2020-10-23_11h58.13.530,swahili,2020.2.4,Win32,60,,,,,,,,,,-0.363541657,-0.053703719,1,0,0,0.37796,unsorted_card,10,0,10,0,1,,,,,,,,,,,,,,,,,,,,,,,,,,,,,,,,,,,,,,,,,,,,,,,,,,,,,,,,,,,,,,,,,,,,,,,,,,,,,,,,,
,,,,,,,,,,W1492951,2020-10-23_11h58.13.530,swahili,2020.2.4,Win32,60,,,,,,,,,,0.502083356,0.431481473,1,0,0,3.581895,study_pile,11,0,11,0,1,BLAME - LAWAMA,,,,,,,,,,,,,,,,,,,,,,,,,,,,,,,,,,,,,,,,,,,,,,,,,,,,,,,,,,,,,,,,,,,,,,,,,,,,,,,,
,,,,,,,,,,W1492951,2020-10-23_11h58.13.530,swahili,2020.2.4,Win32,60,,,,,,,,,,-0.405729158,-0.061111127,1,0,0,0.3476,unsorted_card,12,0,12,0,1,,,,,,,,,,,,,,,,,,,,,,,,,,,,,,,,,,,,,,,,,,,,,,,,,,,,,,,,,,,,,,,,,,,,,,,,,,,,,,,,,
,,,,,,,,,,W1492951,2020-10-23_11h58.13.530,swahili,2020.2.4,Win32,60,,,,,,,,,,0.436979188,0.44351851,1,0,0,2.099575,study_pile,13,0,13,0,1,OATH - YAMINI,,,,,,,,,,,,,,,,,,,,,,,,,,,,,,,,,,,,,,,,,,,,,,,,,,,,,,,,,,,,,,,,,,,,,,,,,,,,,,,,
,,,,,,,,,,W1492951,2020-10-23_11h58.13.530,swahili,2020.2.4,Win32,60,,,,,,,,,,-0.512499993,-0.140740758,1,0,0,0.31225,unsorted_card,14,0,14,0,1,,,,,,,,,,,,,,,,,,,,,,,,,,,,,,,,,,,,,,,,,,,,,,,,,,,,,,,,,,,,,,,,,,,,,,,,,,,,,,,,,
,,,,,,,,,,W1492951,2020-10-23_11h58.13.530,swahili,2020.2.4,Win32,60,,,,,,,,,,0.510937523,0.559259224,1,0,0,3.384925,study_pile,15,0,15,0,1,CORN - NAFAKA,,,,,,,,,,,,,,,,,,,,,,,,,,,,,,,,,,,,,,,,,,,,,,,,,,,,,,,,,,,,,,,,,,,,,,,,,,,,,,,,
,,,,,,,,,,W1492951,2020-10-23_11h58.13.530,swahili,2020.2.4,Win32,60,,,,,,,,,,-0.407812491,0.008333319,1,0,0,0.28326,unsorted_card,16,0,16,0,1,,,,,,,,,,,,,,,,,,,,,,,,,,,,,,,,,,,,,,,,,,,,,,,,,,,,,,,,,,,,,,,,,,,,,,,,,,,,,,,,,
,,,,,,,,,,W1492951,2020-10-23_11h58.13.530,swahili,2020.2.4,Win32,60,,,,,,,,,,0.479687522,0.434259251,1,0,0,1.44711,study_pile,17,0,17,0,1,POEM - UTENZI,,,,,,,,,,,,,,,,,,,,,,,,,,,,,,,,,,,,,,,,,,,,,,,,,,,,,,,,,,,,,,,,,,,,,,,,,,,,,,,,
,,,,,,,,,,W1492951,2020-10-23_11h58.13.530,swahili,2020.2.4,Win32,60,,,,,,,,,,-0.407291658,-0.050000016,1,0,0,0.2987,unsorted_card,18,0,18,0,1,,,,,,,,,,,,,,,,,,,,,,,,,,,,,,,,,,,,,,,,,,,,,,,,,,,,,,,,,,,,,,,,,,,,,,,,,,,,,,,,,
,,,,,,,,,,W1492951,2020-10-23_11h58.13.530,swahili,2020.2.4,Win32,60,,,,,,,,,,0.407291688,-0.050000016,1,0,0,8.832055,test_pile,19,0,19,0,1,TAILOR - MSHONI,,,,,,,,,,,,,,,,,,,,,,,,,,,,,,,,,,,,,,,,,,,,,,,,,,,,,,,,,,,,,,,,,,,,,,,,,,,,,,,,
,,,,,,,,,,W1492951,2020-10-23_11h58.13.530,swahili,2020.2.4,Win32,60,,,,,,,,,,-0.232812489,-0.144444461,1,0,0,0.29769,unsorted_card,20,0,20,0,1,,,,,,,,,,,,,,,,,,,,,,,,,,,,,,,,,,,,,,,,,,,,,,,,,,,,,,,,,,,,,,,,,,,,,,,,,,,,,,,,,
,,,,,,,,,,W1492951,2020-10-23_11h58.13.530,swahili,2020.2.4,Win32,60,,,,,,,,,,0.446875149,0.471296288,1,0,0,1.28245,study_pile,21,0,21,0,1,CHEESE - JIBINI,,,,,,,,,,,,,,,,,,,,,,,,,,,,,,,,,,,,,,,,,,,,,,,,,,,,,,,,,,,,,,,,,,,,,,,,,,,,,,,,
,,,,,,,,,,W1492951,2020-10-23_11h58.13.530,swahili,2020.2.4,Win32,60,,,,,,,,,,-0.171354154,-0.053703719,1,0,0,0.248735,unsorted_card,22,0,22,0,1,,,,,,,,,,,,,,,,,,,,,,,,,,,,,,,,,,,,,,,,,,,,,,,,,,,,,,,,,,,,,,,,,,,,,,,,,,,,,,,,,
,,,,,,,,,,W1492951,2020-10-23_11h58.13.530,swahili,2020.2.4,Win32,60,,,,,,,,,,0.478645855,0.438888881,1,0,0,1.800035,study_pile,23,0,23,0,1,GRAPES - ZABIBU,,,,,,,,,,,,,,,,,,,,,,,,,,,,,,,,,,,,,,,,,,,,,,,,,,,,,,,,,,,,,,,,,,,,,,,,,,,,,,,,
,,,,,,,,,,W1492951,2020-10-23_11h58.13.530,swahili,2020.2.4,Win32,60,,,,,,,,,,-0.282291656,-0.159259277,1,0,0,0.31477,unsorted_card,24,0,24,0,1,,,,,,,,,,,,,,,,,,,,,,,,,,,,,,,,,,,,,,,,,,,,,,,,,,,,,,,,,,,,,,,,,,,,,,,,,,,,,,,,,
,,,,,,,,,,W1492951,2020-10-23_11h58.13.530,swahili,2020.2.4,Win32,60,,,,,,,,,,0.478645855,0.432407399,1,0,0,1.3501,study_pile,25,0,25,0,1,GRAVE - KABURI,,,,,,,,,,,,,,,,,,,,,,,,,,,,,,,,,,,,,,,,,,,,,,,,,,,,,,,,,,,,,,,,,,,,,,,,,,,,,,,,
,,,,,,,,,,W1492951,2020-10-23_11h58.13.530,swahili,2020.2.4,Win32,60,,,,,,,,,,-0.200520821,0.037037023,1,0,0,0.26121,unsorted_card,26,0,26,0,1,,,,,,,,,,,,,,,,,,,,,,,,,,,,,,,,,,,,,,,,,,,,,,,,,,,,,,,,,,,,,,,,,,,,,,,,,,,,,,,,,
,,,,,,,,,,W1492951,2020-10-23_11h58.13.530,swahili,2020.2.4,Win32,60,,,,,,,,,,0.448958355,0.47314814,1,0,0,1.13201,study_pile,27,0,27,0,1,MANURE - SAMADI,,,,,,,,,,,,,,,,,,,,,,,,,,,,,,,,,,,,,,,,,,,,,,,,,,,,,,,,,,,,,,,,,,,,,,,,,,,,,,,,
,,,,,,,,,,W1492951,2020-10-23_11h58.13.530,swahili,2020.2.4,Win32,60,,,,,,,,,,-0.319270823,-0.082407424,1,0,0,0.26834,unsorted_card,28,0,28,0,1,,,,,,,,,,,,,,,,,,,,,,,,,,,,,,,,,,,,,,,,,,,,,,,,,,,,,,,,,,,,,,,,,,,,,,,,,,,,,,,,,
,,,,,,,,,,W1492951,2020-10-23_11h58.13.530,swahili,2020.2.4,Win32,60,,,,,,,,,,0.484895855,0.003703689,1,0,0,2.31404,test_pile,29,0,29,0,1,AGENT - WAKILI,,,,,,,,,,,,,,,,,,,,,,,,,,,,,,,,,,,,,,,,,,,,,,,,,,,,,,,,,,,,,,,,,,,,,,,,,,,,,,,,
,,,,,,,,,,W1492951,2020-10-23_11h58.13.530,swahili,2020.2.4,Win32,60,,,,,,,,,,-0.648437495,-0.234259278,1,0,0,0.320025,unsorted_card,30,0,30,0,1,,,,,,,,,,,,,,,,,,,,,,,,,,,,,,,,,,,,,,,,,,,,,,,,,,,,,,,,,,,,,,,,,,,,,,,,,,,,,,,,,
,,,,,,,,,,W1492951,2020-10-23_11h58.13.530,swahili,2020.2.4,Win32,60,,,,,,,,,,0.440104188,-0.032407423,1,0,0,2.24602,test_pile,31,0,31,0,1,BRIBE - RUSHWA,,,,,,,,,,,,,,,,,,,,,,,,,,,,,,,,,,,,,,,,,,,,,,,,,,,,,,,,,,,,,,,,,,,,,,,,,,,,,,,,
,,,,,,,,,,W1492951,2020-10-23_11h58.13.530,swahili,2020.2.4,Win32,60,,,,,,,,,,-0.277083323,0.015740726,1,0,0,0.296135,unsorted_card,32,0,32,0,1,,,,,,,,,,,,,,,,,,,,,,,,,,,,,,,,,,,,,,,,,,,,,,,,,,,,,,,,,,,,,,,,,,,,,,,,,,,,,,,,,
,,,,,,,,,,W1492951,2020-10-23_11h58.13.530,swahili,2020.2.4,Win32,60,,,,,,,,,,0.483333483,0.487037029,1,0,0,1.23482,study_pile,33,0,33,0,1,ORPHAN - YATIMA,,,,,,,,,,,,,,,,,,,,,,,,,,,,,,,,,,,,,,,,,,,,,,,,,,,,,,,,,,,,,,,,,,,,,,,,,,,,,,,,
,,,,,,,,,,W1492951,2020-10-23_11h58.13.530,swahili,2020.2.4,Win32,60,,,,,,,,,,-0.373437491,0.089814801,1,0,0,0.264475,unsorted_card,34,0,34,0,1,,,,,,,,,,,,,,,,,,,,,,,,,,,,,,,,,,,,,,,,,,,,,,,,,,,,,,,,,,,,,,,,,,,,,,,,,,,,,,,,,
,,,,,,,,,,W1492951,2020-10-23_11h58.13.530,swahili,2020.2.4,Win32,60,,,,,,,,,,0.433333355,-0.020370386,1,0,0,2.59968,test_pile,35,0,35,0,1,DIVORCE - TALAKA,,,,,,,,,,,,,,,,,,,,,,,,,,,,,,,,,,,,,,,,,,,,,,,,,,,,,,,,,,,,,,,,,,,,,,,,,,,,,,,,
,,,,,,,,,,W1492951,2020-10-23_11h58.13.530,swahili,2020.2.4,Win32,60,,,,,,,,,,-0.366666657,-0.046296312,1,0,0,0.29733,unsorted_card,36,0,36,0,1,,,,,,,,,,,,,,,,,,,,,,,,,,,,,,,,,,,,,,,,,,,,,,,,,,,,,,,,,,,,,,,,,,,,,,,,,,,,,,,,,
,,,,,,,,,,W1492951,2020-10-23_11h58.13.530,swahili,2020.2.4,Win32,60,,,,,,,,,,0.413541688,-0.042592608,1,0,0,5.44966,test_pile,37,0,37,0,1,BOAT - MASHUA,,,,,,,,,,,,,,,,,,,,,,,,,,,,,,,,,,,,,,,,,,,,,,,,,,,,,,,,,,,,,,,,,,,,,,,,,,,,,,,,
,,,,,,,,,,W1492951,2020-10-23_11h58.13.530,swahili,2020.2.4,Win32,60,,,,,,,,,,-0.338020823,-0.040740756,1,0,0,0.227405,unsorted_card,38,0,38,0,1,,,,,,,,,,,,,,,,,,,,,,,,,,,,,,,,,,,,,,,,,,,,,,,,,,,,,,,,,,,,,,,,,,,,,,,,,,,,,,,,,
,,,,,,,,,,W1492951,2020-10-23_11h58.13.530,swahili,2020.2.4,Win32,60,,,,,,,,,,0.545312523,0.462037029,1,0,0,1.19932,study_pile,39,0,39,0,1,TREASURE - DAFINA,,,,,,,,,,,,,,,,,,,,,,,,,,,,,,,,,,,,,,,,,,,,,,,,,,,,,,,,,,,,,,,,,,,,,,,,,,,,,,,,
,,,,,,,,,,W1492951,2020-10-23_11h58.13.530,swahili,2020.2.4,Win32,60,,,,,,,,,,,,,,,,,,,,,,,0.597916818,-0.120370387,1,0,0,9.163555,test_first,,,0,0,0,0,1,,,,,,,,,,,,,,,,,,,,,,,,,,,,,,,,,,,,,,,,,,,,,,,,,,,,,,,,,,,,,,,,,,
,,,,,,,,,,W1492951,2020-10-23_11h58.13.530,swahili,2020.2.4,Win32,60,,,,,,,,,,,,,,,,,,,,,,,,,,,,,,,,,,,,,return,1.12028,4.496215,0.385937521,-0.0101852,1,0,0,0.998045,yes,DIVORCE,RUSHWA,incorrect,0,0,0,0,1,,,,,,,,,,,,,,,,,,,,,,,,,,,,,,,,,,,,,,,,,,,,,,,,
,,,,,,,,,,W1492951,2020-10-23_11h58.13.530,swahili,2020.2.4,Win32,60,,,,,,,,,,,,,,,,,,,,,,,,,,,,,,,,,,,,,,,3.113455,0.369270854,-0.004629645,1,0,0,0.88245,yes,BRIBE,RUSHWA,incorrect,1,0,1,0,1,,,,,,,,,,,,,,,,,,,,,,,,,,,,,,,,,,,,,,,,,,,,,,,,
,,,,,,,,,,W1492951,2020-10-23_11h58.13.530,swahili,2020.2.4,Win32,60,,,,,,,,,,,,,,,,,,,,,,,,,,,,,,,,,,,,,,,15.86869,0.420312521,-0.005555571,1,0,0,0.764175,yes,BOAT,CHUBANI,incorrect,2,0,2,0,1,,,,,,,,,,,,,,,,,,,,,,,,,,,,,,,,,,,,,,,,,,,,,,,,
,,,,,,,,,,W1492951,2020-10-23_11h58.13.530,swahili,2020.2.4,Win32,60,,,,,,,,,,,,,,,,,,,,,,,,,,,,,,,,,,,,,,,12.587085,0.364583354,0.040740726,1,0,0,0.948025,yes,YEAST,MALIKA,incorrect,3,0,3,0,1,,,,,,,,,,,,,,,,,,,,,,,,,,,,,,,,,,,,,,,,,,,,,,,,
,,,,,,,,,,W1492951,2020-10-23_11h58.13.530,swahili,2020.2.4,Win32,60,,,,,,,,,,,,,,,,,,,,,,,,,,,,,,,,,,,,,,,4.85238,0.54062515,0.007407393,1,0,0,0.96638,yes,AGENT,WAKILI,incorrect,4,0,4,0,1,,,,,,,,,,,,,,,,,,,,,,,,,,,,,,,,,,,,,,,,,,,,,,,,
,,,,,,,,,,W1492951,2020-10-23_11h58.13.530,swahili,2020.2.4,Win32,60,,,,,,,,,,,,,,,,,,,,,,,,,,,,,,,,,,,,,,,5.232035,0.536458356,0.14722221,1,0,0,0.8311,yes,PARROT,KASUKO,incorrect,5,0,5,0,1,,,,,,,,,,,,,,,,,,,,,,,,,,,,,,,,,,,,,,,,,,,,,,,,
,,,,,,,,,,W1492951,2020-10-23_11h58.13.530,swahili,2020.2.4,Win32,60,,,,,,,,,,,,,,,,,,,,,,,,,,,,,,,,,,,,,,,5.268925,0.425000021,-0.178703721,1,0,0,0.78049,yes,TAILOR,YAMIRA,incorrect,6,0,6,0,1,,,,,,,,,,,,,,,,,,,,,,,,,,,,,,,,,,,,,,,,,,,,,,,,
,,,,,,,,,,W1492951,2020-10-23_11h58.13.530,swahili,2020.2.4,Win32,60,,,,,,,,,,,,,,,,,,,,,,,,,,,,,,,,,,,,,,,,,,,,,,,,,,,,,,,0,0,0,0,1,,,,,,,,,,,,,,,,,,,,,,,,,,,,,,,,,,,,,,,,,,,
,,,,,,,,,,W1492951,2020-10-23_11h58.13.530,swahili,2020.2.4,Win32,60,,,,,,,,,,,,,,,,,,,,,,MANURE - SAMADI,,,,,,,,return,return,0,0,0,0,1,,,,,,,,,,,,,,,,,,,,,,,,2.71702,2.75028,,,,,,,,,,,,,,,,,,,,,,,,,,,,,,,,,,,,,,,,,
,,,,,,,,,,W1492951,2020-10-23_11h58.13.530,swahili,2020.2.4,Win32,60,,,,,,,,,,,,,,,,,,,,,,ORPHAN - YATIMA,,,,,,,,,return,1,0,1,0,1,,,,,,,,,,,,,,,,,,,,,,,,,1.033685,,,,,,,,,,,,,,,,,,,,,,,,,,,,,,,,,,,,,,,,,
,,,,,,,,,,W1492951,2020-10-23_11h58.13.530,swahili,2020.2.4,Win32,60,,,,,,,,,,,,,,,,,,,,,,GRAPES - ZABIBU,,,,,,,,,return,2,0,2,0,1,,,,,,,,,,,,,,,,,,,,,,,,,0.750765,,,,,,,,,,,,,,,,,,,,,,,,,,,,,,,,,,,,,,,,,
,,,,,,,,,,W1492951,2020-10-23_11h58.13.530,swahili,2020.2.4,Win32,60,,,,,,,,,,,,,,,,,,,,,,GRAVE - KABURI,,,,,,,,,return,3,0,3,0,1,,,,,,,,,,,,,,,,,,,,,,,,,1.48438,,,,,,,,,,,,,,,,,,,,,,,,,,,,,,,,,,,,,,,,,
,,,,,,,,,,W1492951,2020-10-23_11h58.13.530,swahili,2020.2.4,Win32,60,,,,,,,,,,,,,,,,,,,,,,BULL - FAHILI,,,,,,,,,return,4,0,4,0,1,,,,,,,,,,,,,,,,,,,,,,,,,1.96705,,,,,,,,,,,,,,,,,,,,,,,,,,,,,,,,,,,,,,,,,
,,,,,,,,,,W1492951,2020-10-23_11h58.13.530,swahili,2020.2.4,Win32,60,,,,,,,,,,,,,,,,,,,,,,CHEESE - JIBINI,,,,,,,,,return,5,0,5,0,1,,,,,,,,,,,,,,,,,,,,,,,,,0.833975,,,,,,,,,,,,,,,,,,,,,,,,,,,,,,,,,,,,,,,,,
,,,,,,,,,,W1492951,2020-10-23_11h58.13.530,swahili,2020.2.4,Win32,60,,,,,,,,,,,,,,,,,,,,,,PLATE - SAHANI,,,,,,,,,return,6,0,6,0,1,,,,,,,,,,,,,,,,,,,,,,,,,1.067415,,,,,,,,,,,,,,,,,,,,,,,,,,,,,,,,,,,,,,,,,
,,,,,,,,,,W1492951,2020-10-23_11h58.13.530,swahili,2020.2.4,Win32,60,,,,,,,,,,,,,,,,,,,,,,OATH - YAMINI,,,,,,,,,return,7,0,7,0,1,,,,,,,,,,,,,,,,,,,,,,,,,1.43367,,,,,,,,,,,,,,,,,,,,,,,,,,,,,,,,,,,,,,,,,
,,,,,,,,,,W1492951,2020-10-23_11h58.13.530,swahili,2020.2.4,Win32,60,,,,,,,,,,,,,,,,,,,,,,MERCHANT - TAJIRI,,,,,,,,,return,8,0,8,0,1,,,,,,,,,,,,,,,,,,,,,,,,,0.9507,,,,,,,,,,,,,,,,,,,,,,,,,,,,,,,,,,,,,,,,,
,,,,,,,,,,W1492951,2020-10-23_11h58.13.530,swahili,2020.2.4,Win32,60,,,,,,,,,,,,,,,,,,,,,,BLAME - LAWAMA,,,,,,,,,return,9,0,9,0,1,,,,,,,,,,,,,,,,,,,,,,,,,0.98389,,,,,,,,,,,,,,,,,,,,,,,,,,,,,,,,,,,,,,,,,
,,,,,,,,,,W1492951,2020-10-23_11h58.13.530,swahili,2020.2.4,Win32,60,,,,,,,,,,,,,,,,,,,,,,POEM - UTENZI,,,,,,,,,return,10,0,10,0,1,,,,,,,,,,,,,,,,,,,,,,,,,1.20033,,,,,,,,,,,,,,,,,,,,,,,,,,,,,,,,,,,,,,,,,
,,,,,,,,,,W1492951,2020-10-23_11h58.13.530,swahili,2020.2.4,Win32,60,,,,,,,,,,,,,,,,,,,,,,TREASURE - DAFINA,,,,,,,,,return,11,0,11,0,1,,,,,,,,,,,,,,,,,,,,,,,,,1.150935,,,,,,,,,,,,,,,,,,,,,,,,,,,,,,,,,,,,,,,,,
,,,,,,,,,,W1492951,2020-10-23_11h58.13.530,swahili,2020.2.4,Win32,60,,,,,,,,,,,,,,,,,,,,,,CORN - NAFAKA,,,,,,,,,return,12,0,12,0,1,,,,,,,,,,,,,,,,,,,,,,,,,0.967165,,,,,,,,,,,,,,,,,,,,,,,,,,,,,,,,,,,,,,,,,
,,,,,,,,,,W1492951,2020-10-23_11h58.13.530,swahili,2020.2.4,Win32,60,,,,,,,,,,,,,,,,,,,,,,,,,,,,,,,,,,,,,,,,,,,,,,,,,,,,,,,1,0,1,0,1,,,,,,,,,,,,,,,,,,,,,,,,,,,,,,,,,,,,,,,,,,,
,,,,,,,,,,W1492951,2020-10-23_11h58.13.530,swahili,2020.2.4,Win32,60,,,,,,,,,,,,,,,,,,,,,,,,,,,,,,,,,,,,,,,,,,,,,,,,,,,,,,,,,,,,,,2,0,2,0,1,,,,,,,,,,,,,,,,,,,,,,,,,,,,,,,,,,,,
,,,,,,,,,,W1492951,2020-10-23_11h58.13.530,swahili,2020.2.4,Win32,60,,,,,,,,,,-0.325520823,-0.091666683,1,0,0,1.73644,unsorted_card,0,0,0,0,1,,,,,,,,,,,,,,,,,,,,,,,,,,,,,,,,,,,,,,,,,,,,,,,,,,,,,,,,,,,,,,,,,,,,,,,,,,,,,,,,,
,,,,,,,,,,W1492951,2020-10-23_11h58.13.530,swahili,2020.2.4,Win32,60,,,,,,,,,,0.491145983,0.429629621,1,0,0,4.965275,study_pile,1,0,1,0,1,MERCHANT - TAJIRI,,,,,,,,,,,,,,,,,,,,,,,,,,,,,,,,,,,,,,,,,,,,,,,,,,,,,,,,,,,,,,,,,,,,,,,,,,,,,,,,
,,,,,,,,,,W1492951,2020-10-23_11h58.13.530,swahili,2020.2.4,Win32,60,,,,,,,,,,-0.47031246,-0.101851868,1,0,0,0.4321,unsorted_card,2,0,2,0,1,,,,,,,,,,,,,,,,,,,,,,,,,,,,,,,,,,,,,,,,,,,,,,,,,,,,,,,,,,,,,,,,,,,,,,,,,,,,,,,,,
,,,,,,,,,,W1492951,2020-10-23_11h58.13.530,swahili,2020.2.4,Win32,60,,,,,,,,,,0.419270854,-0.564814838,1,0,0,2.06527,done_pile,3,0,3,0,1,PARROT - KASUKU,,,,,,,,,,,,,,,,,,,,,,,,,,,,,,,,,,,,,,,,,,,,,,,,,,,,,,,,,,,,,,,,,,,,,,,,,,,,,,,,
,,,,,,,,,,W1492951,2020-10-23_11h58.13.530,swahili,2020.2.4,Win32,60,,,,,,,,,,-0.390104158,-0.19259261,1,0,0,0.61565,unsorted_card,4,0,4,0,1,,,,,,,,,,,,,,,,,,,,,,,,,,,,,,,,,,,,,,,,,,,,,,,,,,,,,,,,,,,,,,,,,,,,,,,,,,,,,,,,,
,,,,,,,,,,W1492951,2020-10-23_11h58.13.530,swahili,2020.2.4,Win32,60,,,,,,,,,,0.534895856,0.407407399,1,0,0,2.064815,study_pile,5,0,5,0,1,BULL - FAHILI,,,,,,,,,,,,,,,,,,,,,,,,,,,,,,,,,,,,,,,,,,,,,,,,,,,,,,,,,,,,,,,,,,,,,,,,,,,,,,,,
,,,,,,,,,,W1492951,2020-10-23_11h58.13.530,swahili,2020.2.4,Win32,60,,,,,,,,,,-0.248437489,0.092592579,1,0,0,0.31519,unsorted_card,6,0,6,0,1,,,,,,,,,,,,,,,,,,,,,,,,,,,,,,,,,,,,,,,,,,,,,,,,,,,,,,,,,,,,,,,,,,,,,,,,,,,,,,,,,
,,,,,,,,,,W1492951,2020-10-23_11h58.13.530,swahili,2020.2.4,Win32,60,,,,,,,,,,0.473958355,0.420370362,1,0,0,1.7654,study_pile,7,0,7,0,1,PLATE - SAHANI,,,,,,,,,,,,,,,,,,,,,,,,,,,,,,,,,,,,,,,,,,,,,,,,,,,,,,,,,,,,,,,,,,,,,,,,,,,,,,,,
,,,,,,,,,,W1492951,2020-10-23_11h58.13.530,swahili,2020.2.4,Win32,60,,,,,,,,,,-0.366666657,-0.081481498,1,0,0,0.397885,unsorted_card,8,0,8,0,1,,,,,,,,,,,,,,,,,,,,,,,,,,,,,,,,,,,,,,,,,,,,,,,,,,,,,,,,,,,,,,,,,,,,,,,,,,,,,,,,,
,,,,,,,,,,W1492951,2020-10-23_11h58.13.530,swahili,2020.2.4,Win32,60,,,,,,,,,,0.461979188,0.437037029,1,0,0,5.498155,study_pile,9,0,9,0,1,YEAST - HAMIRA,,,,,,,,,,,,,,,,,,,,,,,,,,,,,,,,,,,,,,,,,,,,,,,,,,,,,,,,,,,,,,,,,,,,,,,,,,,,,,,,
,,,,,,,,,,W1492951,2020-10-23_11h58.13.530,swahili,2020.2.4,Win32,60,,,,,,,,,,-0.310416593,-0.009259274,1,0,0,0.377305,unsorted_card,10,0,10,0,1,,,,,,,,,,,,,,,,,,,,,,,,,,,,,,,,,,,,,,,,,,,,,,,,,,,,,,,,,,,,,,,,,,,,,,,,,,,,,,,,,
,,,,,,,,,,W1492951,2020-10-23_11h58.13.530,swahili,2020.2.4,Win32,60,,,,,,,,,,0.469270855,-0.035185201,1,0,0,4.40189,test_pile,11,0,11,0,1,BLAME - LAWAMA,,,,,,,,,,,,,,,,,,,,,,,,,,,,,,,,,,,,,,,,,,,,,,,,,,,,,,,,,,,,,,,,,,,,,,,,,,,,,,,,
,,,,,,,,,,W1492951,2020-10-23_11h58.13.530,swahili,2020.2.4,Win32,60,,,,,,,,,,-0.578124994,-0.090740757,1,0,0,0.346335,unsorted_card,12,0,12,0,1,,,,,,,,,,,,,,,,,,,,,,,,,,,,,,,,,,,,,,,,,,,,,,,,,,,,,,,,,,,,,,,,,,,,,,,,,,,,,,,,,
,,,,,,,,,,W1492951,2020-10-23_11h58.13.530,swahili,2020.2.4,Win32,60,,,,,,,,,,-0.377083324,-0.093518535,1,0,0,3.18299,unsorted_card,13,0,13,0,1,OATH - YAMINI,,,,,,,,,,,,,,,,,,,,,,,,,,,,,,,,,,,,,,,,,,,,,,,,,,,,,,,,,,,,,,,,,,,,,,,,,,,,,,,,
,,,,,,,,,,W1492951,2020-10-23_11h58.13.530,swahili,2020.2.4,Win32,60,,,,,,,,,,-0.329166657,-0.140740758,1,0,0,0.76543,unsorted_card,14,0,14,0,1,OATH - YAMINI,,,,,,,,,,,,,,,,,,,,,,,,,,,,,,,,,,,,,,,,,,,,,,,,,,,,,,,,,,,,,,,,,,,,,,,,,,,,,,,,
,,,,,,,,,,W1492951,2020-10-23_11h58.13.530,swahili,2020.2.4,Win32,60,,,,,,,,,,0.526041689,0.504629622,1,0,0,0.83121,study_pile,15,0,15,0,1,OATH - YAMINI,,,,,,,,,,,,,,,,,,,,,,,,,,,,,,,,,,,,,,,,,,,,,,,,,,,,,,,,,,,,,,,,,,,,,,,,,,,,,,,,
,,,,,,,,,,W1492951,2020-10-23_11h58.13.530,swahili,2020.2.4,Win32,60,,,,,,,,,,-0.226041655,0.084259246,1,0,0,0.311745,unsorted_card,16,0,16,0,1,,,,,,,,,,,,,,,,,,,,,,,,,,,,,,,,,,,,,,,,,,,,,,,,,,,,,,,,,,,,,,,,,,,,,,,,,,,,,,,,,
,,,,,,,,,,W1492951,2020-10-23_11h58.13.530,swahili,2020.2.4,Win32,60,,,,,,,,,,0.446354188,-0.026851867,1,0,0,5.3021,test_pile,17,0,17,0,1,CORN - NAFAKA,,,,,,,,,,,,,,,,,,,,,,,,,,,,,,,,,,,,,,,,,,,,,,,,,,,,,,,,,,,,,,,,,,,,,,,,,,,,,,,,
,,,,,,,,,,W1492951,2020-10-23_11h58.13.530,swahili,2020.2.4,Win32,60,,,,,,,,,,-0.406249991,-0.047222238,1,0,0,0.429485,unsorted_card,18,0,18,0,1,,,,,,,,,,,,,,,,,,,,,,,,,,,,,,,,,,,,,,,,,,,,,,,,,,,,,,,,,,,,,,,,,,,,,,,,,,,,,,,,,
,,,,,,,,,,W1492951,2020-10-23_11h58.13.530,swahili,2020.2.4,Win32,60,,,,,,,,,,0.421354188,0.490740733,1,0,0,1.133265,study_pile,19,0,19,0,1,POEM - UTENZI,,,,,,,,,,,,,,,,,,,,,,,,,,,,,,,,,,,,,,,,,,,,,,,,,,,,,,,,,,,,,,,,,,,,,,,,,,,,,,,,
,,,,,,,,,,W1492951,2020-10-23_11h58.13.530,swahili,2020.2.4,Win32,60,,,,,,,,,,-0.402083324,-0.06944446,1,0,0,0.331885,unsorted_card,20,0,20,0,1,,,,,,,,,,,,,,,,,,,,,,,,,,,,,,,,,,,,,,,,,,,,,,,,,,,,,,,,,,,,,,,,,,,,,,,,,,,,,,,,,
,,,,,,,,,,W1492951,2020-10-23_11h58.13.530,swahili,2020.2.4,Win32,60,,,,,,,,,,0.476562522,0.465740733,1,0,0,1.53206,study_pile,21,0,21,0,1,TAILOR - MSHONI,,,,,,,,,,,,,,,,,,,,,,,,,,,,,,,,,,,,,,,,,,,,,,,,,,,,,,,,,,,,,,,,,,,,,,,,,,,,,,,,
,,,,,,,,,,W1492951,2020-10-23_11h58.13.530,swahili,2020.2.4,Win32,60,,,,,,,,,,-0.29843749,-0.059259275,1,0,0,0.49806,unsorted_card,22,0,22,0,1,,,,,,,,,,,,,,,,,,,,,,,,,,,,,,,,,,,,,,,,,,,,,,,,,,,,,,,,,,,,,,,,,,,,,,,,,,,,,,,,,
,,,,,,,,,,W1492951,2020-10-23_11h58.13.530,swahili,2020.2.4,Win32,60,,,,,,,,,,0.508333356,0.414814806,1,0,0,1.248245,study_pile,23,0,23,0,1,CHEESE - JIBINI,,,,,,,,,,,,,,,,,,,,,,,,,,,,,,,,,,,,,,,,,,,,,,,,,,,,,,,,,,,,,,,,,,,,,,,,,,,,,,,,
,,,,,,,,,,W1492951,2020-10-23_11h58.13.530,swahili,2020.2.4,Win32,60,,,,,,,,,,-0.528645826,-0.030555571,1,0,0,0.347325,unsorted_card,24,0,24,0,1,,,,,,,,,,,,,,,,,,,,,,,,,,,,,,,,,,,,,,,,,,,,,,,,,,,,,,,,,,,,,,,,,,,,,,,,,,,,,,,,,
,,,,,,,,,,W1492951,2020-10-23_11h58.13.530,swahili,2020.2.4,Win32,60,,,,,,,,,,0.402083354,0.42314814,1,0,0,1.349845,study_pile,25,0,25,0,1,GRAPES - ZABIBU,,,,,,,,,,,,,,,,,,,,,,,,,,,,,,,,,,,,,,,,,,,,,,,,,,,,,,,,,,,,,,,,,,,,,,,,,,,,,,,,
,,,,,,,,,,W1492951,2020-10-23_11h58.13.530,swahili,2020.2.4,Win32,60,,,,,,,,,,-0.603124962,-0.105555572,1,0,0,0.39776,unsorted_card,26,0,26,0,1,,,,,,,,,,,,,,,,,,,,,,,,,,,,,,,,,,,,,,,,,,,,,,,,,,,,,,,,,,,,,,,,,,,,,,,,,,,,,,,,,
,,,,,,,,,,W1492951,2020-10-23_11h58.13.530,swahili,2020.2.4,Win32,60,,,,,,,,,,0.408854188,0.40092586,1,0,0,1.43174,study_pile,27,0,27,0,1,GRAVE - KABURI,,,,,,,,,,,,,,,,,,,,,,,,,,,,,,,,,,,,,,,,,,,,,,,,,,,,,,,,,,,,,,,,,,,,,,,,,,,,,,,,
,,,,,,,,,,W1492951,2020-10-23_11h58.13.530,swahili,2020.2.4,Win32,60,,,,,,,,,,-0.163541654,-0.037962978,1,0,0,0.31204,unsorted_card,28,0,28,0,1,,,,,,,,,,,,,,,,,,,,,,,,,,,,,,,,,,,,,,,,,,,,,,,,,,,,,,,,,,,,,,,,,,,,,,,,,,,,,,,,,
,,,,,,,,,,W1492951,2020-10-23_11h58.13.530,swahili,2020.2.4,Win32,60,,,,,,,,,,0.406250021,0.415740732,1,0,0,1.13546,study_pile,29,0,29,0,1,MANURE - SAMADI,,,,,,,,,,,,,,,,,,,,,,,,,,,,,,,,,,,,,,,,,,,,,,,,,,,,,,,,,,,,,,,,,,,,,,,,,,,,,,,,
,,,,,,,,,,W1492951,2020-10-23_11h58.13.530,swahili,2020.2.4,Win32,60,,,,,,,,,,-0.290624989,-0.034259275,1,0,0,0.267365,unsorted_card,30,0,30,0,1,,,,,,,,,,,,,,,,,,,,,,,,,,,,,,,,,,,,,,,,,,,,,,,,,,,,,,,,,,,,,,,,,,,,,,,,,,,,,,,,,
,,,,,,,,,,W1492951,2020-10-23_11h58.13.530,swahili,2020.2.4,Win32,60,,,,,,,,,,0.518229189,0.016666652,1,0,0,3.663285,test_pile,31,0,31,0,1,AGENT - WAKILI,,,,,,,,,,,,,,,,,,,,,,,,,,,,,,,,,,,,,,,,,,,,,,,,,,,,,,,,,,,,,,,,,,,,,,,,,,,,,,,,
,,,,,,,,,,W1492951,2020-10-23_11h58.13.530,swahili,2020.2.4,Win32,60,,,,,,,,,,-0.177604091,-0.119444461,1,0,0,0.277915,unsorted_card,32,0,32,0,1,,,,,,,,,,,,,,,,,,,,,,,,,,,,,,,,,,,,,,,,,,,,,,,,,,,,,,,,,,,,,,,,,,,,,,,,,,,,,,,,,
,,,,,,,,,,W1492951,2020-10-23_11h58.13.530,swahili,2020.2.4,Win32,60,,,,,,,,,,0.388541687,-0.026851867,1,0,0,1.78406,test_pile,33,0,33,0,1,BRIBE - RUSHWA,,,,,,,,,,,,,,,,,,,,,,,,,,,,,,,,,,,,,,,,,,,,,,,,,,,,,,,,,,,,,,,,,,,,,,,,,,,,,,,,
,,,,,,,,,,W1492951,2020-10-23_11h58.13.530,swahili,2020.2.4,Win32,60,,,,,,,,,,-0.323437426,-0.018518534,1,0,0,0.328835,unsorted_card,34,0,34,0,1,,,,,,,,,,,,,,,,,,,,,,,,,,,,,,,,,,,,,,,,,,,,,,,,,,,,,,,,,,,,,,,,,,,,,,,,,,,,,,,,,
,,,,,,,,,,W1492951,2020-10-23_11h58.13.530,swahili,2020.2.4,Win32,60,,,,,,,,,,0.375520854,0.42314814,1,0,0,2.185445,study_pile,35,0,35,0,1,ORPHAN - YATIMA,,,,,,,,,,,,,,,,,,,,,,,,,,,,,,,,,,,,,,,,,,,,,,,,,,,,,,,,,,,,,,,,,,,,,,,,,,,,,,,,
,,,,,,,,,,W1492951,2020-10-23_11h58.13.530,swahili,2020.2.4,Win32,60,,,,,,,,,,-0.430208325,-0.166666684,1,0,0,0.412035,unsorted_card,36,0,36,0,1,,,,,,,,,,,,,,,,,,,,,,,,,,,,,,,,,,,,,,,,,,,,,,,,,,,,,,,,,,,,,,,,,,,,,,,,,,,,,,,,,
,,,,,,,,,,W1492951,2020-10-23_11h58.13.530,swahili,2020.2.4,Win32,60,,,,,,,,,,0.453645855,0.000925911,1,0,0,2.784905,test_pile,37,0,37,0,1,DIVORCE - TALAKA,,,,,,,,,,,,,,,,,,,,,,,,,,,,,,,,,,,,,,,,,,,,,,,,,,,,,,,,,,,,,,,,,,,,,,,,,,,,,,,,
,,,,,,,,,,W1492951,2020-10-23_11h58.13.530,swahili,2020.2.4,Win32,60,,,,,,,,,,-0.426041658,-0.017592608,1,0,0,0.263845,unsorted_card,38,0,38,0,1,,,,,,,,,,,,,,,,,,,,,,,,,,,,,,,,,,,,,,,,,,,,,,,,,,,,,,,,,,,,,,,,,,,,,,,,,,,,,,,,,
,,,,,,,,,,W1492951,2020-10-23_11h58.13.530,swahili,2020.2.4,Win32,60,,,,,,,,,,0.581250024,0.4824074,1,0,0,1.21662,study_pile,39,0,39,0,1,BOAT - MASHUA,,,,,,,,,,,,,,,,,,,,,,,,,,,,,,,,,,,,,,,,,,,,,,,,,,,,,,,,,,,,,,,,,,,,,,,,,,,,,,,,
,,,,,,,,,,W1492951,2020-10-23_11h58.13.530,swahili,2020.2.4,Win32,60,,,,,,,,,,-0.936458332,-0.092592609,1,0,0,0.28186,unsorted_card,40,0,40,0,1,,,,,,,,,,,,,,,,,,,,,,,,,,,,,,,,,,,,,,,,,,,,,,,,,,,,,,,,,,,,,,,,,,,,,,,,,,,,,,,,,
,,,,,,,,,,W1492951,2020-10-23_11h58.13.530,swahili,2020.2.4,Win32,60,,,,,,,,,,0.519270856,0.438888881,1,0,0,0.959025,study_pile,41,0,41,0,1,TREASURE - DAFINA,,,,,,,,,,,,,,,,,,,,,,,,,,,,,,,,,,,,,,,,,,,,,,,,,,,,,,,,,,,,,,,,,,,,,,,,,,,,,,,,
,,,,,,,,,,W1492951,2020-10-23_11h58.13.530,swahili,2020.2.4,Win32,60,,,,,,,,,,,,,,,,,,,,,,,0.499479189,-0.087037053,1,0,0,0.615875,test_first,,,0,0,0,0,1,,,,,,,,,,,,,,,,,,,,,,,,,,,,,,,,,,,,,,,,,,,,,,,,,,,,,,,,,,,,,,,,,,
,,,,,,,,,,W1492951,2020-10-23_11h58.13.530,swahili,2020.2.4,Win32,60,,,,,,,,,,,,,,,,,,,,,,,,,,,,,,,,,,,,,return,1.00253,3.147465,0.14427085,-0.151851869,1,0,0,0.747245,yes,AGENT,WAKILI,incorrect,0,0,0,0,1,,,,,,,,,,,,,,,,,,,,,,,,,,,,,,,,,,,,,,,,,,,,,,,,
,,,,,,,,,,W1492951,2020-10-23_11h58.13.530,swahili,2020.2.4,Win32,60,,,,,,,,,,,,,,,,,,,,,,,,,,,,,,,,,,,,,,,3.01388,0.431250148,-0.100925942,1,0,0,0.866675,yes,BRIBE,RUSHWA,incorrect,1,0,1,0,1,,,,,,,,,,,,,,,,,,,,,,,,,,,,,,,,,,,,,,,,,,,,,,,,
,,,,,,,,,,W1492951,2020-10-23_11h58.13.530,swahili,2020.2.4,Win32,60,,,,,,,,,,,,,,,,,,,,,,,,,,,,,,,,,,,,,,,17.296495,0.441666815,-0.063888905,1,0,0,0.75001,yes,BLAME,TAWAKA,incorrect,2,0,2,0,1,,,,,,,,,,,,,,,,,,,,,,,,,,,,,,,,,,,,,,,,,,,,,,,,
,,,,,,,,,,W1492951,2020-10-23_11h58.13.530,swahili,2020.2.4,Win32,60,,,,,,,,,,,,,,,,,,,,,,,,,,,,,,,,,,,,,,,11.800925,0.916145862,0.246296285,1,0,0,1.016505,yes,DIVORCE,TELAKA,incorrect,3,0,3,0,1,,,,,,,,,,,,,,,,,,,,,,,,,,,,,,,,,,,,,,,,,,,,,,,,
,,,,,,,,,,W1492951,2020-10-23_11h58.13.530,swahili,2020.2.4,Win32,60,,,,,,,,,,,,,,,,,,,,,,,,,,,,,,,,,,,,,,,2.61355,0.270312519,-0.007407422,1,0,0,0.835745,yes,CORN,MASHUA,incorrect,4,0,4,0,1,,,,,,,,,,,,,,,,,,,,,,,,,,,,,,,,,,,,,,,,,,,,,,,,
,,,,,,,,,,W1492951,2020-10-23_11h58.13.530,swahili,2020.2.4,Win32,60,,,,,,,,,,,,,,,,,,,,,,,,,,,,,,,,,,,,,,,,,,,,,,,,,,,,,,,0,0,0,0,1,,,,,,,,,,,,,,,,,,,,,,,,,,,,,,,,,,,,,,,,,,,
,,,,,,,,,,W1492951,2020-10-23_11h58.13.530,swahili,2020.2.4,Win32,60,,,,,,,,,,,,,,,,,,,,,,OATH - YAMINI,,,,,,,,return,return,0,0,0,0,1,,,,,,,,,,,,,,,,,,,,,,,,1.03303,1.167065,,,,,,,,,,,,,,,,,,,,,,,,,,,,,,,,,,,,,,,,,
,,,,,,,,,,W1492951,2020-10-23_11h58.13.530,swahili,2020.2.4,Win32,60,,,,,,,,,,,,,,,,,,,,,,BULL - FAHILI,,,,,,,,,return,1,0,1,0,1,,,,,,,,,,,,,,,,,,,,,,,,,0.53433,,,,,,,,,,,,,,,,,,,,,,,,,,,,,,,,,,,,,,,,,
,,,,,,,,,,W1492951,2020-10-23_11h58.13.530,swahili,2020.2.4,Win32,60,,,,,,,,,,,,,,,,,,,,,,ORPHAN - YATIMA,,,,,,,,,return,2,0,2,0,1,,,,,,,,,,,,,,,,,,,,,,,,,0.90021,,,,,,,,,,,,,,,,,,,,,,,,,,,,,,,,,,,,,,,,,
,,,,,,,,,,W1492951,2020-10-23_11h58.13.530,swahili,2020.2.4,Win32,60,,,,,,,,,,,,,,,,,,,,,,TAILOR - MSHONI,,,,,,,,,return,3,0,3,0,1,,,,,,,,,,,,,,,,,,,,,,,,,0.933975,,,,,,,,,,,,,,,,,,,,,,,,,,,,,,,,,,,,,,,,,
,,,,,,,,,,W1492951,2020-10-23_11h58.13.530,swahili,2020.2.4,Win32,60,,,,,,,,,,,,,,,,,,,,,,MERCHANT - TAJIRI,,,,,,,,,return,4,0,4,0,1,,,,,,,,,,,,,,,,,,,,,,,,,1.03383,,,,,,,,,,,,,,,,,,,,,,,,,,,,,,,,,,,,,,,,,
,,,,,,,,,,W1492951,2020-10-23_11h58.13.530,swahili,2020.2.4,Win32,60,,,,,,,,,,,,,,,,,,,,,,YEAST - HAMIRA,,,,,,,,,return,5,0,5,0,1,,,,,,,,,,,,,,,,,,,,,,,,,0.783735,,,,,,,,,,,,,,,,,,,,,,,,,,,,,,,,,,,,,,,,,
,,,,,,,,,,W1492951,2020-10-23_11h58.13.530,swahili,2020.2.4,Win32,60,,,,,,,,,,,,,,,,,,,,,,TREASURE - DAFINA,,,,,,,,,return,6,0,6,0,1,,,,,,,,,,,,,,,,,,,,,,,,,0.500545,,,,,,,,,,,,,,,,,,,,,,,,,,,,,,,,,,,,,,,,,
,,,,,,,,,,W1492951,2020-10-23_11h58.13.530,swahili,2020.2.4,Win32,60,,,,,,,,,,,,,,,,,,,,,,MANURE - SAMADI,,,,,,,,,return,7,0,7,0,1,,,,,,,,,,,,,,,,,,,,,,,,,0.48395,,,,,,,,,,,,,,,,,,,,,,,,,,,,,,,,,,,,,,,,,
,,,,,,,,,,W1492951,2020-10-23_11h58.13.530,swahili,2020.2.4,Win32,60,,,,,,,,,,,,,,,,,,,,,,GRAVE - KABURI,,,,,,,,,return,8,0,8,0,1,,,,,,,,,,,,,,,,,,,,,,,,,0.467315,,,,,,,,,,,,,,,,,,,,,,,,,,,,,,,,,,,,,,,,,
,,,,,,,,,,W1492951,2020-10-23_11h58.13.530,swahili,2020.2.4,Win32,60,,,,,,,,,,,,,,,,,,,,,,CHEESE - JIBINI,,,,,,,,,return,9,0,9,0,1,,,,,,,,,,,,,,,,,,,,,,,,,0.46689,,,,,,,,,,,,,,,,,,,,,,,,,,,,,,,,,,,,,,,,,
,,,,,,,,,,W1492951,2020-10-23_11h58.13.530,swahili,2020.2.4,Win32,60,,,,,,,,,,,,,,,,,,,,,,BOAT - MASHUA,,,,,,,,,return,10,0,10,0,1,,,,,,,,,,,,,,,,,,,,,,,,,0.45034,,,,,,,,,,,,,,,,,,,,,,,,,,,,,,,,,,,,,,,,,
,,,,,,,,,,W1492951,2020-10-23_11h58.13.530,swahili,2020.2.4,Win32,60,,,,,,,,,,,,,,,,,,,,,,PLATE - SAHANI,,,,,,,,,return,11,0,11,0,1,,,,,,,,,,,,,,,,,,,,,,,,,0.468315,,,,,,,,,,,,,,,,,,,,,,,,,,,,,,,,,,,,,,,,,
,,,,,,,,,,W1492951,2020-10-23_11h58.13.530,swahili,2020.2.4,Win32,60,,,,,,,,,,,,,,,,,,,,,,GRAPES - ZABIBU,,,,,,,,,return,12,0,12,0,1,,,,,,,,,,,,,,,,,,,,,,,,,0.45041,,,,,,,,,,,,,,,,,,,,,,,,,,,,,,,,,,,,,,,,,
,,,,,,,,,,W1492951,2020-10-23_11h58.13.530,swahili,2020.2.4,Win32,60,,,,,,,,,,,,,,,,,,,,,,POEM - UTENZI,,,,,,,,,return,13,0,13,0,1,,,,,,,,,,,,,,,,,,,,,,,,,0.48351,,,,,,,,,,,,,,,,,,,,,,,,,,,,,,,,,,,,,,,,,
,,,,,,,,,,W1492951,2020-10-23_11h58.13.530,swahili,2020.2.4,Win32,60,,,,,,,,,,,,,,,,,,,,,,,,,,,,,,,,,,,,,,,,,,,,,,,,,,,,,,,1,0,1,0,1,,,,,,,,,,,,,,,,,,,,,,,,,,,,,,,,,,,,,,,,,,,
,,,,,,,,,,W1492951,2020-10-23_11h58.13.530,swahili,2020.2.4,Win32,60,,,,,,,,,,,,,,,,,,,,,,,,,,,,,,,,,,,,,,,,,,,,,,,,,,,,,,,,,,,,,,3,0,3,0,1,,,,,,,,,,,,,,,,,,,,,,,,,,,,,,,,,,,,
,,,,,,,,,,W1492951,2020-10-23_11h58.13.530,swahili,2020.2.4,Win32,60,,,,,,,,,,-0.396354158,-0.096296313,1,0,0,3.759605,unsorted_card,0,0,0,0,1,,,,,,,,,,,,,,,,,,,,,,,,,,,,,,,,,,,,,,,,,,,,,,,,,,,,,,,,,,,,,,,,,,,,,,,,,,,,,,,,,
,,,,,,,,,,W1492951,2020-10-23_11h58.13.530,swahili,2020.2.4,Win32,60,,,,,,,,,,0.426041815,0.472222214,1,0,0,14.514455,study_pile,1,0,1,0,1,MERCHANT - TAJIRI,,,,,,,,,,,,,,,,,,,,,,,,,,,,,,,,,,,,,,,,,,,,,,,,,,,,,,,,,,,,,,,,,,,,,,,,,,,,,,,,
,,,,,,,,,,W1492951,2020-10-23_11h58.13.530,swahili,2020.2.4,Win32,60,,,,,,,,,,-0.192708321,0.114814802,1,0,0,0.516525,unsorted_card,2,0,2,0,1,,,,,,,,,,,,,,,,,,,,,,,,,,,,,,,,,,,,,,,,,,,,,,,,,,,,,,,,,,,,,,,,,,,,,,,,,,,,,,,,,
,,,,,,,,,,W1492951,2020-10-23_11h58.13.530,swahili,2020.2.4,Win32,60,,,,,,,,,,0.54062515,0.487962955,1,0,0,1.177405,study_pile,3,0,3,0,1,BULL - FAHILI,,,,,,,,,,,,,,,,,,,,,,,,,,,,,,,,,,,,,,,,,,,,,,,,,,,,,,,,,,,,,,,,,,,,,,,,,,,,,,,,
,,,,,,,,,,W1492951,2020-10-23_11h58.13.530,swahili,2020.2.4,Win32,60,,,,,,,,,,-0.391145824,0.006481467,1,0,0,0.33192,unsorted_card,4,0,4,0,1,,,,,,,,,,,,,,,,,,,,,,,,,,,,,,,,,,,,,,,,,,,,,,,,,,,,,,,,,,,,,,,,,,,,,,,,,,,,,,,,,
,,,,,,,,,,W1492951,2020-10-23_11h58.13.530,swahili,2020.2.4,Win32,60,,,,,,,,,,0.523958356,0.45277777,1,0,0,1.117605,study_pile,5,0,5,0,1,PLATE - SAHANI,,,,,,,,,,,,,,,,,,,,,,,,,,,,,,,,,,,,,,,,,,,,,,,,,,,,,,,,,,,,,,,,,,,,,,,,,,,,,,,,
,,,,,,,,,,W1492951,2020-10-23_11h58.13.530,swahili,2020.2.4,Win32,60,,,,,,,,,,-0.491666659,-0.079629646,1,0,0,0.330165,unsorted_card,6,0,6,0,1,,,,,,,,,,,,,,,,,,,,,,,,,,,,,,,,,,,,,,,,,,,,,,,,,,,,,,,,,,,,,,,,,,,,,,,,,,,,,,,,,
,,,,,,,,,,W1492951,2020-10-23_11h58.13.530,swahili,2020.2.4,Win32,60,,,,,,,,,,0.467708482,0.421296288,1,0,0,3.65018,study_pile,7,0,7,0,1,YEAST - HAMIRA,,,,,,,,,,,,,,,,,,,,,,,,,,,,,,,,,,,,,,,,,,,,,,,,,,,,,,,,,,,,,,,,,,,,,,,,,,,,,,,,
,,,,,,,,,,W1492951,2020-10-23_11h58.13.530,swahili,2020.2.4,Win32,60,,,,,,,,,,-0.33281249,-0.061111127,1,0,0,0.263105,unsorted_card,8,0,8,0,1,,,,,,,,,,,,,,,,,,,,,,,,,,,,,,,,,,,,,,,,,,,,,,,,,,,,,,,,,,,,,,,,,,,,,,,,,,,,,,,,,
,,,,,,,,,,W1492951,2020-10-23_11h58.13.530,swahili,2020.2.4,Win32,60,,,,,,,,,,0.451041688,-0.059259275,1,0,0,3.135735,test_pile,9,0,9,0,1,BLAME - LAWAMA,,,,,,,,,,,,,,,,,,,,,,,,,,,,,,,,,,,,,,,,,,,,,,,,,,,,,,,,,,,,,,,,,,,,,,,,,,,,,,,,
,,,,,,,,,,W1492951,2020-10-23_11h58.13.530,swahili,2020.2.4,Win32,60,,,,,,,,,,-0.33437499,-0.062962979,1,0,0,0.647815,unsorted_card,10,0,10,0,1,,,,,,,,,,,,,,,,,,,,,,,,,,,,,,,,,,,,,,,,,,,,,,,,,,,,,,,,,,,,,,,,,,,,,,,,,,,,,,,,,
,,,,,,,,,,W1492951,2020-10-23_11h58.13.530,swahili,2020.2.4,Win32,60,,,,,,,,,,0.380729187,0.396296231,1,0,0,1.117895,study_pile,11,0,11,0,1,OATH - YAMINI,,,,,,,,,,,,,,,,,,,,,,,,,,,,,,,,,,,,,,,,,,,,,,,,,,,,,,,,,,,,,,,,,,,,,,,,,,,,,,,,
,,,,,,,,,,W1492951,2020-10-23_11h58.13.530,swahili,2020.2.4,Win32,60,,,,,,,,,,-0.319270823,-0.023148163,1,0,0,0.293485,unsorted_card,12,0,12,0,1,,,,,,,,,,,,,,,,,,,,,,,,,,,,,,,,,,,,,,,,,,,,,,,,,,,,,,,,,,,,,,,,,,,,,,,,,,,,,,,,,
,,,,,,,,,,W1492951,2020-10-23_11h58.13.530,swahili,2020.2.4,Win32,60,,,,,,,,,,0.459895982,0.454629622,1,0,0,4.65314,study_pile,13,0,13,0,1,CORN - NAFAKA,,,,,,,,,,,,,,,,,,,,,,,,,,,,,,,,,,,,,,,,,,,,,,,,,,,,,,,,,,,,,,,,,,,,,,,,,,,,,,,,
,,,,,,,,,,W1492951,2020-10-23_11h58.13.530,swahili,2020.2.4,Win32,60,,,,,,,,,,-0.238541655,-0.031481497,1,0,0,0.54507,unsorted_card,14,0,14,0,1,,,,,,,,,,,,,,,,,,,,,,,,,,,,,,,,,,,,,,,,,,,,,,,,,,,,,,,,,,,,,,,,,,,,,,,,,,,,,,,,,
,,,,,,,,,,W1492951,2020-10-23_11h58.13.530,swahili,2020.2.4,Win32,60,,,,,,,,,,0.59635419,0.449999992,1,0,0,1.147145,study_pile,15,0,15,0,1,POEM - UTENZI,,,,,,,,,,,,,,,,,,,,,,,,,,,,,,,,,,,,,,,,,,,,,,,,,,,,,,,,,,,,,,,,,,,,,,,,,,,,,,,,
,,,,,,,,,,W1492951,2020-10-23_11h58.13.530,swahili,2020.2.4,Win32,60,,,,,,,,,,-0.171354154,0.055555541,1,0,0,0.349175,unsorted_card,16,0,16,0,1,,,,,,,,,,,,,,,,,,,,,,,,,,,,,,,,,,,,,,,,,,,,,,,,,,,,,,,,,,,,,,,,,,,,,,,,,,,,,,,,,
,,,,,,,,,,W1492951,2020-10-23_11h58.13.530,swahili,2020.2.4,Win32,60,,,,,,,,,,0.56979169,0.592592587,1,0,0,0.516365,study_pile,17,0,17,0,1,TAILOR - MSHONI,,,,,,,,,,,,,,,,,,,,,,,,,,,,,,,,,,,,,,,,,,,,,,,,,,,,,,,,,,,,,,,,,,,,,,,,,,,,,,,,
,,,,,,,,,,W1492951,2020-10-23_11h58.13.530,swahili,2020.2.4,Win32,60,,,,,,,,,,-0.224479092,0.022222208,1,0,0,0.36568,unsorted_card,18,0,18,0,1,,,,,,,,,,,,,,,,,,,,,,,,,,,,,,,,,,,,,,,,,,,,,,,,,,,,,,,,,,,,,,,,,,,,,,,,,,,,,,,,,
,,,,,,,,,,W1492951,2020-10-23_11h58.13.530,swahili,2020.2.4,Win32,60,,,,,,,,,,0.661979191,0.663888884,1,0,0,0.32079,study_pile,19,0,19,0,1,CHEESE - JIBINI,,,,,,,,,,,,,,,,,,,,,,,,,,,,,,,,,,,,,,,,,,,,,,,,,,,,,,,,,,,,,,,,,,,,,,,,,,,,,,,,
,,,,,,,,,,W1492951,2020-10-23_11h58.13.530,swahili,2020.2.4,Win32,60,,,,,,,,,,-0.145833321,0.0953703,1,0,0,0.31355,unsorted_card,20,0,20,0,1,,,,,,,,,,,,,,,,,,,,,,,,,,,,,,,,,,,,,,,,,,,,,,,,,,,,,,,,,,,,,,,,,,,,,,,,,,,,,,,,,
,,,,,,,,,,W1492951,2020-10-23_11h58.13.530,swahili,2020.2.4,Win32,60,,,,,,,,,,0.515625023,-0.055555571,1,0,0,7.26555,test_pile,21,0,21,0,1,GRAPES - ZABIBU,,,,,,,,,,,,,,,,,,,,,,,,,,,,,,,,,,,,,,,,,,,,,,,,,,,,,,,,,,,,,,,,,,,,,,,,,,,,,,,,
,,,,,,,,,,W1492951,2020-10-23_11h58.13.530,swahili,2020.2.4,Win32,60,,,,,,,,,,-0.228124988,-0.076851868,1,0,0,0.403465,unsorted_card,22,0,22,0,1,,,,,,,,,,,,,,,,,,,,,,,,,,,,,,,,,,,,,,,,,,,,,,,,,,,,,,,,,,,,,,,,,,,,,,,,,,,,,,,,,
,,,,,,,,,,W1492951,2020-10-23_11h58.13.530,swahili,2020.2.4,Win32,60,,,,,,,,,,0.56041669,0.543518512,1,0,0,1.06695,study_pile,23,0,23,0,1,GRAVE - KABURI,,,,,,,,,,,,,,,,,,,,,,,,,,,,,,,,,,,,,,,,,,,,,,,,,,,,,,,,,,,,,,,,,,,,,,,,,,,,,,,,
,,,,,,,,,,W1492951,2020-10-23_11h58.13.530,swahili,2020.2.4,Win32,60,,,,,,,,,,-0.314583323,-0.035185201,1,0,0,0.34748,unsorted_card,24,0,24,0,1,,,,,,,,,,,,,,,,,,,,,,,,,,,,,,,,,,,,,,,,,,,,,,,,,,,,,,,,,,,,,,,,,,,,,,,,,,,,,,,,,
,,,,,,,,,,W1492951,2020-10-23_11h58.13.530,swahili,2020.2.4,Win32,60,,,,,,,,,,0.442187521,0.44351851,1,0,0,1.277595,study_pile,25,0,25,0,1,MANURE - SAMADI,,,,,,,,,,,,,,,,,,,,,,,,,,,,,,,,,,,,,,,,,,,,,,,,,,,,,,,,,,,,,,,,,,,,,,,,,,,,,,,,
,,,,,,,,,,W1492951,2020-10-23_11h58.13.530,swahili,2020.2.4,Win32,60,,,,,,,,,,-0.417708325,0.013888874,1,0,0,0.319905,unsorted_card,26,0,26,0,1,,,,,,,,,,,,,,,,,,,,,,,,,,,,,,,,,,,,,,,,,,,,,,,,,,,,,,,,,,,,,,,,,,,,,,,,,,,,,,,,,
,,,,,,,,,,W1492951,2020-10-23_11h58.13.530,swahili,2020.2.4,Win32,60,,,,,,,,,,0.567187523,-0.570370394,1,0,0,1.72998,done_pile,27,0,27,0,1,AGENT - WAKILI,,,,,,,,,,,,,,,,,,,,,,,,,,,,,,,,,,,,,,,,,,,,,,,,,,,,,,,,,,,,,,,,,,,,,,,,,,,,,,,,
,,,,,,,,,,W1492951,2020-10-23_11h58.13.530,swahili,2020.2.4,Win32,60,,,,,,,,,,-0.448958325,-0.027777793,1,0,0,0.365015,unsorted_card,28,0,28,0,1,,,,,,,,,,,,,,,,,,,,,,,,,,,,,,,,,,,,,,,,,,,,,,,,,,,,,,,,,,,,,,,,,,,,,,,,,,,,,,,,,
,,,,,,,,,,W1492951,2020-10-23_11h58.13.530,swahili,2020.2.4,Win32,60,,,,,,,,,,0.595312651,-0.54166669,1,0,0,3.450345,done_pile,29,0,29,0,1,BRIBE - RUSHWA,,,,,,,,,,,,,,,,,,,,,,,,,,,,,,,,,,,,,,,,,,,,,,,,,,,,,,,,,,,,,,,,,,,,,,,,,,,,,,,,
,,,,,,,,,,W1492951,2020-10-23_11h58.13.530,swahili,2020.2.4,Win32,60,,,,,,,,,,-0.355729157,-0.072222238,1,0,0,0.42973,unsorted_card,30,0,30,0,1,,,,,,,,,,,,,,,,,,,,,,,,,,,,,,,,,,,,,,,,,,,,,,,,,,,,,,,,,,,,,,,,,,,,,,,,,,,,,,,,,
,,,,,,,,,,W1492951,2020-10-23_11h58.13.530,swahili,2020.2.4,Win32,60,,,,,,,,,,0.489583356,0.440740732,1,0,0,1.25109,study_pile,31,0,31,0,1,ORPHAN - YATIMA,,,,,,,,,,,,,,,,,,,,,,,,,,,,,,,,,,,,,,,,,,,,,,,,,,,,,,,,,,,,,,,,,,,,,,,,,,,,,,,,
,,,,,,,,,,W1492951,2020-10-23_11h58.13.530,swahili,2020.2.4,Win32,60,,,,,,,,,,-0.419791658,0.036111097,1,0,0,0.287365,unsorted_card,32,0,32,0,1,,,,,,,,,,,,,,,,,,,,,,,,,,,,,,,,,,,,,,,,,,,,,,,,,,,,,,,,,,,,,,,,,,,,,,,,,,,,,,,,,
,,,,,,,,,,W1492951,2020-10-23_11h58.13.530,swahili,2020.2.4,Win32,60,,,,,,,,,,0.452083482,0.009259244,1,0,0,5.17724,test_pile,33,0,33,0,1,DIVORCE - TALAKA,,,,,,,,,,,,,,,,,,,,,,,,,,,,,,,,,,,,,,,,,,,,,,,,,,,,,,,,,,,,,,,,,,,,,,,,,,,,,,,,
,,,,,,,,,,W1492951,2020-10-23_11h58.13.530,swahili,2020.2.4,Win32,60,,,,,,,,,,-0.30312499,-0.013888904,1,0,0,0.34352,unsorted_card,34,0,34,0,1,,,,,,,,,,,,,,,,,,,,,,,,,,,,,,,,,,,,,,,,,,,,,,,,,,,,,,,,,,,,,,,,,,,,,,,,,,,,,,,,,
,,,,,,,,,,W1492951,2020-10-23_11h58.13.530,swahili,2020.2.4,Win32,60,,,,,,,,,,0.56979169,0.480555548,1,0,0,4.55032,study_pile,35,0,35,0,1,BOAT - MASHUA,,,,,,,,,,,,,,,,,,,,,,,,,,,,,,,,,,,,,,,,,,,,,,,,,,,,,,,,,,,,,,,,,,,,,,,,,,,,,,,,
,,,,,,,,,,W1492951,2020-10-23_11h58.13.530,swahili,2020.2.4,Win32,60,,,,,,,,,,-0.174999924,0.081481411,1,0,0,0.438995,unsorted_card,36,0,36,0,1,,,,,,,,,,,,,,,,,,,,,,,,,,,,,,,,,,,,,,,,,,,,,,,,,,,,,,,,,,,,,,,,,,,,,,,,,,,,,,,,,
,,,,,,,,,,W1492951,2020-10-23_11h58.13.530,swahili,2020.2.4,Win32,60,,,,,,,,,,0.477083355,0.398148139,1,0,0,2.573525,study_pile,37,0,37,0,1,TREASURE - DAFINA,,,,,,,,,,,,,,,,,,,,,,,,,,,,,,,,,,,,,,,,,,,,,,,,,,,,,,,,,,,,,,,,,,,,,,,,,,,,,,,,
,,,,,,,,,,W1492951,2020-10-23_11h58.13.530,swahili,2020.2.4,Win32,60,,,,,,,,,,,,,,,,,,,,,,,0.443750022,-0.005555571,1,0,0,0.56454,test_first,,,0,0,0,0,1,,,,,,,,,,,,,,,,,,,,,,,,,,,,,,,,,,,,,,,,,,,,,,,,,,,,,,,,,,,,,,,,,,
,,,,,,,,,,W1492951,2020-10-23_11h58.13.530,swahili,2020.2.4,Win32,60,,,,,,,,,,,,,,,,,,,,,,,,,,,,,,,,,,,,,return,0.97001,5.245185,0.539062523,-0.051851868,1,0,0,0.46663,yes,BLAME,LAWAMA,incorrect,0,0,0,0,1,,,,,,,,,,,,,,,,,,,,,,,,,,,,,,,,,,,,,,,,,,,,,,,,
,,,,,,,,,,W1492951,2020-10-23_11h58.13.530,swahili,2020.2.4,Win32,60,,,,,,,,,,,,,,,,,,,,,,,,,,,,,,,,,,,,,,,3.563505,0.384375148,0.212037025,1,0,0,0.78359,yes,GRAPES,ZIMBIBU,incorrect,1,0,1,0,1,,,,,,,,,,,,,,,,,,,,,,,,,,,,,,,,,,,,,,,,,,,,,,,,
,,,,,,,,,,W1492951,2020-10-23_11h58.13.530,swahili,2020.2.4,Win32,60,,,,,,,,,,,,,,,,,,,,,,,,,,,,,,,,,,,,,,,3.049285,0.449479315,0.024999985,1,0,0,0.677245,yes,DIVORCE,TALAKA,incorrect,2,0,2,0,1,,,,,,,,,,,,,,,,,,,,,,,,,,,,,,,,,,,,,,,,,,,,,,,,
,,,,,,,,,,W1492951,2020-10-23_11h58.13.530,swahili,2020.2.4,Win32,60,,,,,,,,,,,,,,,,,,,,,,,,,,,,,,,,,,,,,,,,,,,,,,,,,,,,,,,0,0,0,0,1,,,,,,,,,,,,,,,,,,,,,,,,,,,,,,,,,,,,,,,,,,,
,,,,,,,,,,W1492951,2020-10-23_11h58.13.530,swahili,2020.2.4,Win32,60,,,,,,,,,,,,,,,,,,,,,,YEAST - HAMIRA,,,,,,,,return,return,0,0,0,0,1,,,,,,,,,,,,,,,,,,,,,,,,0.83426,1.5668,,,,,,,,,,,,,,,,,,,,,,,,,,,,,,,,,,,,,,,,,
,,,,,,,,,,W1492951,2020-10-23_11h58.13.530,swahili,2020.2.4,Win32,60,,,,,,,,,,,,,,,,,,,,,,MANURE - SAMADI,,,,,,,,,return,1,0,1,0,1,,,,,,,,,,,,,,,,,,,,,,,,,0.667145,,,,,,,,,,,,,,,,,,,,,,,,,,,,,,,,,,,,,,,,,
,,,,,,,,,,W1492951,2020-10-23_11h58.13.530,swahili,2020.2.4,Win32,60,,,,,,,,,,,,,,,,,,,,,,CORN - NAFAKA,,,,,,,,,return,2,0,2,0,1,,,,,,,,,,,,,,,,,,,,,,,,,1.100515,,,,,,,,,,,,,,,,,,,,,,,,,,,,,,,,,,,,,,,,,
,,,,,,,,,,W1492951,2020-10-23_11h58.13.530,swahili,2020.2.4,Win32,60,,,,,,,,,,,,,,,,,,,,,,TREASURE - DAFINA,,,,,,,,,return,3,0,3,0,1,,,,,,,,,,,,,,,,,,,,,,,,,0.750245,,,,,,,,,,,,,,,,,,,,,,,,,,,,,,,,,,,,,,,,,
,,,,,,,,,,W1492951,2020-10-23_11h58.13.530,swahili,2020.2.4,Win32,60,,,,,,,,,,,,,,,,,,,,,,GRAVE - KABURI,,,,,,,,,return,4,0,4,0,1,,,,,,,,,,,,,,,,,,,,,,,,,0.584005,,,,,,,,,,,,,,,,,,,,,,,,,,,,,,,,,,,,,,,,,
,,,,,,,,,,W1492951,2020-10-23_11h58.13.530,swahili,2020.2.4,Win32,60,,,,,,,,,,,,,,,,,,,,,,ORPHAN - YATIMA,,,,,,,,,return,5,0,5,0,1,,,,,,,,,,,,,,,,,,,,,,,,,0.516935,,,,,,,,,,,,,,,,,,,,,,,,,,,,,,,,,,,,,,,,,
,,,,,,,,,,W1492951,2020-10-23_11h58.13.530,swahili,2020.2.4,Win32,60,,,,,,,,,,,,,,,,,,,,,,PLATE - SAHANI,,,,,,,,,return,6,0,6,0,1,,,,,,,,,,,,,,,,,,,,,,,,,0.417005,,,,,,,,,,,,,,,,,,,,,,,,,,,,,,,,,,,,,,,,,
,,,,,,,,,,W1492951,2020-10-23_11h58.13.530,swahili,2020.2.4,Win32,60,,,,,,,,,,,,,,,,,,,,,,CHEESE - JIBINI,,,,,,,,,return,7,0,7,0,1,,,,,,,,,,,,,,,,,,,,,,,,,0.250615,,,,,,,,,,,,,,,,,,,,,,,,,,,,,,,,,,,,,,,,,
,,,,,,,,,,W1492951,2020-10-23_11h58.13.530,swahili,2020.2.4,Win32,60,,,,,,,,,,,,,,,,,,,,,,MERCHANT - TAJIRI,,,,,,,,,return,8,0,8,0,1,,,,,,,,,,,,,,,,,,,,,,,,,0.25056,,,,,,,,,,,,,,,,,,,,,,,,,,,,,,,,,,,,,,,,,
,,,,,,,,,,W1492951,2020-10-23_11h58.13.530,swahili,2020.2.4,Win32,60,,,,,,,,,,,,,,,,,,,,,,BOAT - MASHUA,,,,,,,,,return,9,0,9,0,1,,,,,,,,,,,,,,,,,,,,,,,,,0.233765,,,,,,,,,,,,,,,,,,,,,,,,,,,,,,,,,,,,,,,,,
,,,,,,,,,,W1492951,2020-10-23_11h58.13.530,swahili,2020.2.4,Win32,60,,,,,,,,,,,,,,,,,,,,,,TAILOR - MSHONI,,,,,,,,,return,10,0,10,0,1,,,,,,,,,,,,,,,,,,,,,,,,,0.25067,,,,,,,,,,,,,,,,,,,,,,,,,,,,,,,,,,,,,,,,,
,,,,,,,,,,W1492951,2020-10-23_11h58.13.530,swahili,2020.2.4,Win32,60,,,,,,,,,,,,,,,,,,,,,,POEM - UTENZI,,,,,,,,,return,11,0,11,0,1,,,,,,,,,,,,,,,,,,,,,,,,,0.218695,,,,,,,,,,,,,,,,,,,,,,,,,,,,,,,,,,,,,,,,,
,,,,,,,,,,W1492951,2020-10-23_11h58.13.530,swahili,2020.2.4,Win32,60,,,,,,,,,,,,,,,,,,,,,,BULL - FAHILI,,,,,,,,,return,12,0,12,0,1,,,,,,,,,,,,,,,,,,,,,,,,,0.250635,,,,,,,,,,,,,,,,,,,,,,,,,,,,,,,,,,,,,,,,,
,,,,,,,,,,W1492951,2020-10-23_11h58.13.530,swahili,2020.2.4,Win32,60,,,,,,,,,,,,,,,,,,,,,,OATH - YAMINI,,,,,,,,,return,13,0,13,0,1,,,,,,,,,,,,,,,,,,,,,,,,,0.235125,,,,,,,,,,,,,,,,,,,,,,,,,,,,,,,,,,,,,,,,,
,,,,,,,,,,W1492951,2020-10-23_11h58.13.530,swahili,2020.2.4,Win32,60,,,,,,,,,,,,,,,,,,,,,,,,,,,,,,,,,,,,,,,,,,,,,,,,,,,,,,,1,0,1,0,1,,,,,,,,,,,,,,,,,,,,,,,,,,,,,,,,,,,,,,,,,,,
,,,,,,,,,,W1492951,2020-10-23_11h58.13.530,swahili,2020.2.4,Win32,60,,,,,,,,,,,,,,,,,,,,,,,,,,,,,,,,,,,,,,,,,,,,,,,,,,,,,,,,,,,,,,4,0,4,0,1,,,,,,,,,,,,,,,,,,,,,,,,,,,,,,,,,,,,
,,,,,,,,,,W1492951,2020-10-23_11h58.13.530,swahili,2020.2.4,Win32,60,,,,,,,,,,-0.214583322,0.025925911,1,0,0,1.054055,unsorted_card,0,0,0,0,1,,,,,,,,,,,,,,,,,,,,,,,,,,,,,,,,,,,,,,,,,,,,,,,,,,,,,,,,,,,,,,,,,,,,,,,,,,,,,,,,,
,,,,,,,,,,W1492951,2020-10-23_11h58.13.530,swahili,2020.2.4,Win32,60,,,,,,,,,,0.483333483,0.410185176,1,0,0,2.06635,study_pile,1,0,1,0,1,MERCHANT - TAJIRI,,,,,,,,,,,,,,,,,,,,,,,,,,,,,,,,,,,,,,,,,,,,,,,,,,,,,,,,,,,,,,,,,,,,,,,,,,,,,,,,
,,,,,,,,,,W1492951,2020-10-23_11h58.13.530,swahili,2020.2.4,Win32,60,,,,,,,,,,-0.307812426,-0.050000016,1,0,0,0.32851,unsorted_card,2,0,2,0,1,,,,,,,,,,,,,,,,,,,,,,,,,,,,,,,,,,,,,,,,,,,,,,,,,,,,,,,,,,,,,,,,,,,,,,,,,,,,,,,,,
,,,,,,,,,,W1492951,2020-10-23_11h58.13.530,swahili,2020.2.4,Win32,60,,,,,,,,,,0.447916688,0.408333325,1,0,0,2.58549,study_pile,3,0,3,0,1,BULL - FAHILI,,,,,,,,,,,,,,,,,,,,,,,,,,,,,,,,,,,,,,,,,,,,,,,,,,,,,,,,,,,,,,,,,,,,,,,,,,,,,,,,
,,,,,,,,,,W1492951,2020-10-23_11h58.13.530,swahili,2020.2.4,Win32,60,,,,,,,,,,-0.416666658,-0.07407409,1,0,0,0.29801,unsorted_card,4,0,4,0,1,,,,,,,,,,,,,,,,,,,,,,,,,,,,,,,,,,,,,,,,,,,,,,,,,,,,,,,,,,,,,,,,,,,,,,,,,,,,,,,,,
,,,,,,,,,,W1492951,2020-10-23_11h58.13.530,swahili,2020.2.4,Win32,60,,,,,,,,,,0.421354188,0.514814808,1,0,0,2.04865,study_pile,5,0,5,0,1,PLATE - SAHANI,,,,,,,,,,,,,,,,,,,,,,,,,,,,,,,,,,,,,,,,,,,,,,,,,,,,,,,,,,,,,,,,,,,,,,,,,,,,,,,,
,,,,,,,,,,W1492951,2020-10-23_11h58.13.530,swahili,2020.2.4,Win32,60,,,,,,,,,,-0.30937499,0.032407393,1,0,0,0.252985,unsorted_card,6,0,6,0,1,,,,,,,,,,,,,,,,,,,,,,,,,,,,,,,,,,,,,,,,,,,,,,,,,,,,,,,,,,,,,,,,,,,,,,,,,,,,,,,,,
,,,,,,,,,,W1492951,2020-10-23_11h58.13.530,swahili,2020.2.4,Win32,60,,,,,,,,,,0.505729189,-0.030555571,1,0,0,3.57805,test_pile,7,0,7,0,1,YEAST - HAMIRA,,,,,,,,,,,,,,,,,,,,,,,,,,,,,,,,,,,,,,,,,,,,,,,,,,,,,,,,,,,,,,,,,,,,,,,,,,,,,,,,
,,,,,,,,,,W1492951,2020-10-23_11h58.13.530,swahili,2020.2.4,Win32,60,,,,,,,,,,-0.410937491,-0.227777796,1,0,0,0.298075,unsorted_card,8,0,8,0,1,,,,,,,,,,,,,,,,,,,,,,,,,,,,,,,,,,,,,,,,,,,,,,,,,,,,,,,,,,,,,,,,,,,,,,,,,,,,,,,,,
,,,,,,,,,,W1492951,2020-10-23_11h58.13.530,swahili,2020.2.4,Win32,60,,,,,,,,,,0.523437523,-0.592592616,1,0,0,3.00283,done_pile,9,0,9,0,1,BLAME - LAWAMA,,,,,,,,,,,,,,,,,,,,,,,,,,,,,,,,,,,,,,,,,,,,,,,,,,,,,,,,,,,,,,,,,,,,,,,,,,,,,,,,
,,,,,,,,,,W1492951,2020-10-23_11h58.13.530,swahili,2020.2.4,Win32,60,,,,,,,,,,-0.52604166,-0.279629649,1,0,0,0.324025,unsorted_card,10,0,10,0,1,,,,,,,,,,,,,,,,,,,,,,,,,,,,,,,,,,,,,,,,,,,,,,,,,,,,,,,,,,,,,,,,,,,,,,,,,,,,,,,,,
,,,,,,,,,,W1492951,2020-10-23_11h58.13.530,swahili,2020.2.4,Win32,60,,,,,,,,,,0.52500015,0.352777768,1,0,0,6.79867,study_pile,11,0,11,0,1,OATH - YAMINI,,,,,,,,,,,,,,,,,,,,,,,,,,,,,,,,,,,,,,,,,,,,,,,,,,,,,,,,,,,,,,,,,,,,,,,,,,,,,,,,
,,,,,,,,,,W1492951,2020-10-23_11h58.13.530,swahili,2020.2.4,Win32,60,,,,,,,,,,-0.245833322,-0.144444461,1,0,0,0.43272,unsorted_card,12,0,12,0,1,,,,,,,,,,,,,,,,,,,,,,,,,,,,,,,,,,,,,,,,,,,,,,,,,,,,,,,,,,,,,,,,,,,,,,,,,,,,,,,,,
,,,,,,,,,,W1492951,2020-10-23_11h58.13.530,swahili,2020.2.4,Win32,60,,,,,,,,,,0.490104189,0.0148148,1,0,0,2.09831,test_pile,13,0,13,0,1,CORN - NAFAKA,,,,,,,,,,,,,,,,,,,,,,,,,,,,,,,,,,,,,,,,,,,,,,,,,,,,,,,,,,,,,,,,,,,,,,,,,,,,,,,,
,,,,,,,,,,W1492951,2020-10-23_11h58.13.530,swahili,2020.2.4,Win32,60,,,,,,,,,,-0.251041656,-0.112037054,1,0,0,2.73143,unsorted_card,14,0,14,0,1,,,,,,,,,,,,,,,,,,,,,,,,,,,,,,,,,,,,,,,,,,,,,,,,,,,,,,,,,,,,,,,,,,,,,,,,,,,,,,,,,
,,,,,,,,,,W1492951,2020-10-23_11h58.13.530,swahili,2020.2.4,Win32,60,,,,,,,,,,0.390625021,0.381481472,1,0,0,0.79836,study_pile,15,0,15,0,1,POEM - UTENZI,,,,,,,,,,,,,,,,,,,,,,,,,,,,,,,,,,,,,,,,,,,,,,,,,,,,,,,,,,,,,,,,,,,,,,,,,,,,,,,,
,,,,,,,,,,W1492951,2020-10-23_11h58.13.530,swahili,2020.2.4,Win32,60,,,,,,,,,,-0.403124991,-0.021296312,1,0,0,0.34742,unsorted_card,16,0,16,0,1,,,,,,,,,,,,,,,,,,,,,,,,,,,,,,,,,,,,,,,,,,,,,,,,,,,,,,,,,,,,,,,,,,,,,,,,,,,,,,,,,
,,,,,,,,,,W1492951,2020-10-23_11h58.13.530,swahili,2020.2.4,Win32,60,,,,,,,,,,0.456250022,0.535185178,1,0,0,1.069545,study_pile,17,0,17,0,1,TAILOR - MSHONI,,,,,,,,,,,,,,,,,,,,,,,,,,,,,,,,,,,,,,,,,,,,,,,,,,,,,,,,,,,,,,,,,,,,,,,,,,,,,,,,
,,,,,,,,,,W1492951,2020-10-23_11h58.13.530,swahili,2020.2.4,Win32,60,,,,,,,,,,-0.251562489,-0.031481497,1,0,0,0.311335,unsorted_card,18,0,18,0,1,,,,,,,,,,,,,,,,,,,,,,,,,,,,,,,,,,,,,,,,,,,,,,,,,,,,,,,,,,,,,,,,,,,,,,,,,,,,,,,,,
,,,,,,,,,,W1492951,2020-10-23_11h58.13.530,swahili,2020.2.4,Win32,60,,,,,,,,,,0.511458356,0.462962955,1,0,0,0.83532,study_pile,19,0,19,0,1,CHEESE - JIBINI,,,,,,,,,,,,,,,,,,,,,,,,,,,,,,,,,,,,,,,,,,,,,,,,,,,,,,,,,,,,,,,,,,,,,,,,,,,,,,,,
,,,,,,,,,,W1492951,2020-10-23_11h58.13.530,swahili,2020.2.4,Win32,60,,,,,,,,,,-0.182812424,-0.080555572,1,0,0,0.39781,unsorted_card,20,0,20,0,1,,,,,,,,,,,,,,,,,,,,,,,,,,,,,,,,,,,,,,,,,,,,,,,,,,,,,,,,,,,,,,,,,,,,,,,,,,,,,,,,,
,,,,,,,,,,W1492951,2020-10-23_11h58.13.530,swahili,2020.2.4,Win32,60,,,,,,,,,,0.471354189,-0.475000022,1,0,0,1.66648,done_pile,21,0,21,0,1,GRAPES - ZABIBU,,,,,,,,,,,,,,,,,,,,,,,,,,,,,,,,,,,,,,,,,,,,,,,,,,,,,,,,,,,,,,,,,,,,,,,,,,,,,,,,
,,,,,,,,,,W1492951,2020-10-23_11h58.13.530,swahili,2020.2.4,Win32,60,,,,,,,,,,-0.195833258,-0.085185201,1,0,0,0.797805,unsorted_card,22,0,22,0,1,,,,,,,,,,,,,,,,,,,,,,,,,,,,,,,,,,,,,,,,,,,,,,,,,,,,,,,,,,,,,,,,,,,,,,,,,,,,,,,,,
,,,,,,,,,,W1492951,2020-10-23_11h58.13.530,swahili,2020.2.4,Win32,60,,,,,,,,,,0.494270856,0.403703695,1,0,0,1.598465,study_pile,23,0,23,0,1,GRAVE - KABURI,,,,,,,,,,,,,,,,,,,,,,,,,,,,,,,,,,,,,,,,,,,,,,,,,,,,,,,,,,,,,,,,,,,,,,,,,,,,,,,,
,,,,,,,,,,W1492951,2020-10-23_11h58.13.530,swahili,2020.2.4,Win32,60,,,,,,,,,,-0.33437499,-0.012037052,1,0,0,0.283805,unsorted_card,24,0,24,0,1,,,,,,,,,,,,,,,,,,,,,,,,,,,,,,,,,,,,,,,,,,,,,,,,,,,,,,,,,,,,,,,,,,,,,,,,,,,,,,,,,
,,,,,,,,,,W1492951,2020-10-23_11h58.13.530,swahili,2020.2.4,Win32,60,,,,,,,,,,0.505208356,0.441666658,1,0,0,1.361565,study_pile,25,0,25,0,1,MANURE - SAMADI,,,,,,,,,,,,,,,,,,,,,,,,,,,,,,,,,,,,,,,,,,,,,,,,,,,,,,,,,,,,,,,,,,,,,,,,,,,,,,,,
,,,,,,,,,,W1492951,2020-10-23_11h58.13.530,swahili,2020.2.4,Win32,60,,,,,,,,,,-0.420312491,-0.072222238,1,0,0,0.32061,unsorted_card,26,0,26,0,1,,,,,,,,,,,,,,,,,,,,,,,,,,,,,,,,,,,,,,,,,,,,,,,,,,,,,,,,,,,,,,,,,,,,,,,,,,,,,,,,,
,,,,,,,,,,W1492951,2020-10-23_11h58.13.530,swahili,2020.2.4,Win32,60,,,,,,,,,,0.499479189,0.481481474,1,0,0,4.18005,study_pile,27,0,27,0,1,ORPHAN - YATIMA,,,,,,,,,,,,,,,,,,,,,,,,,,,,,,,,,,,,,,,,,,,,,,,,,,,,,,,,,,,,,,,,,,,,,,,,,,,,,,,,
,,,,,,,,,,W1492951,2020-10-23_11h58.13.530,swahili,2020.2.4,Win32,60,,,,,,,,,,-0.217187488,-0.037962978,1,0,0,0.4446,unsorted_card,28,0,28,0,1,,,,,,,,,,,,,,,,,,,,,,,,,,,,,,,,,,,,,,,,,,,,,,,,,,,,,,,,,,,,,,,,,,,,,,,,,,,,,,,,,
,,,,,,,,,,W1492951,2020-10-23_11h58.13.530,swahili,2020.2.4,Win32,60,,,,,,,,,,0.438541688,-0.459259281,1,0,0,3.467955,done_pile,29,0,29,0,1,DIVORCE - TALAKA,,,,,,,,,,,,,,,,,,,,,,,,,,,,,,,,,,,,,,,,,,,,,,,,,,,,,,,,,,,,,,,,,,,,,,,,,,,,,,,,
,,,,,,,,,,W1492951,2020-10-23_11h58.13.530,swahili,2020.2.4,Win32,60,,,,,,,,,,-0.390624991,-0.146296313,1,0,0,0.332225,unsorted_card,30,0,30,0,1,,,,,,,,,,,,,,,,,,,,,,,,,,,,,,,,,,,,,,,,,,,,,,,,,,,,,,,,,,,,,,,,,,,,,,,,,,,,,,,,,
,,,,,,,,,,W1492951,2020-10-23_11h58.13.530,swahili,2020.2.4,Win32,60,,,,,,,,,,0.50937515,0.548148141,1,0,0,1.082995,study_pile,31,0,31,0,1,BOAT - MASHUA,,,,,,,,,,,,,,,,,,,,,,,,,,,,,,,,,,,,,,,,,,,,,,,,,,,,,,,,,,,,,,,,,,,,,,,,,,,,,,,,
,,,,,,,,,,W1492951,2020-10-23_11h58.13.530,swahili,2020.2.4,Win32,60,,,,,,,,,,-0.358854157,0.069444431,1,0,0,0.31524,unsorted_card,32,0,32,0,1,,,,,,,,,,,,,,,,,,,,,,,,,,,,,,,,,,,,,,,,,,,,,,,,,,,,,,,,,,,,,,,,,,,,,,,,,,,,,,,,,
,,,,,,,,,,W1492951,2020-10-23_11h58.13.530,swahili,2020.2.4,Win32,60,,,,,,,,,,0.513541689,0.426851843,1,0,0,1.01526,study_pile,33,0,33,0,1,TREASURE - DAFINA,,,,,,,,,,,,,,,,,,,,,,,,,,,,,,,,,,,,,,,,,,,,,,,,,,,,,,,,,,,,,,,,,,,,,,,,,,,,,,,,
,,,,,,,,,,W1492951,2020-10-23_11h58.13.530,swahili,2020.2.4,Win32,60,,,,,,,,,,,,,,,,,,,,,,,0.491145983,-0.029629645,1,0,0,0.564505,test_first,,,0,0,0,0,1,,,,,,,,,,,,,,,,,,,,,,,,,,,,,,,,,,,,,,,,,,,,,,,,,,,,,,,,,,,,,,,,,,
,,,,,,,,,,W1492951,2020-10-23_11h58.13.530,swahili,2020.2.4,Win32,60,,,,,,,,,,,,,,,,,,,,,,,,,,,,,,,,,,,,,return,0.95273,4.87878,0.448437522,0.004629615,1,0,0,0.76742,yes,CORN,LAFAKA,incorrect,0,0,0,0,1,,,,,,,,,,,,,,,,,,,,,,,,,,,,,,,,,,,,,,,,,,,,,,,,
,,,,,,,,,,W1492951,2020-10-23_11h58.13.530,swahili,2020.2.4,Win32,60,,,,,,,,,,,,,,,,,,,,,,,,,,,,,,,,,,,,,,,3.180305,0.783854193,0.013888874,1,0,0,0.81671,yes,YEAST,LAMANA,incorrect,1,0,1,0,1,,,,,,,,,,,,,,,,,,,,,,,,,,,,,,,,,,,,,,,,,,,,,,,,
,,,,,,,,,,W1492951,2020-10-23_11h58.13.530,swahili,2020.2.4,Win32,60,,,,,,,,,,,,,,,,,,,,,,,,,,,,,,,,,,,,,,,,,,,,,,,,,,,,,,,0,0,0,0,1,,,,,,,,,,,,,,,,,,,,,,,,,,,,,,,,,,,,,,,,,,,
,,,,,,,,,,W1492951,2020-10-23_11h58.13.530,swahili,2020.2.4,Win32,60,,,,,,,,,,,,,,,,,,,,,,MANURE - SAMADI,,,,,,,,return,return,0,0,0,0,1,,,,,,,,,,,,,,,,,,,,,,,,0.817265,1.133545,,,,,,,,,,,,,,,,,,,,,,,,,,,,,,,,,,,,,,,,,
,,,,,,,,,,W1492951,2020-10-23_11h58.13.530,swahili,2020.2.4,Win32,60,,,,,,,,,,,,,,,,,,,,,,CHEESE - JIBINI,,,,,,,,,return,1,0,1,0,1,,,,,,,,,,,,,,,,,,,,,,,,,0.08379,,,,,,,,,,,,,,,,,,,,,,,,,,,,,,,,,,,,,,,,,
,,,,,,,,,,W1492951,2020-10-23_11h58.13.530,swahili,2020.2.4,Win32,60,,,,,,,,,,,,,,,,,,,,,,TAILOR - MSHONI,,,,,,,,,return,2,0,2,0,1,,,,,,,,,,,,,,,,,,,,,,,,,0.08407,,,,,,,,,,,,,,,,,,,,,,,,,,,,,,,,,,,,,,,,,
,,,,,,,,,,W1492951,2020-10-23_11h58.13.530,swahili,2020.2.4,Win32,60,,,,,,,,,,,,,,,,,,,,,,MERCHANT - TAJIRI,,,,,,,,,return,3,0,3,0,1,,,,,,,,,,,,,,,,,,,,,,,,,0.1006,,,,,,,,,,,,,,,,,,,,,,,,,,,,,,,,,,,,,,,,,
,,,,,,,,,,W1492951,2020-10-23_11h58.13.530,swahili,2020.2.4,Win32,60,,,,,,,,,,,,,,,,,,,,,,BULL - FAHILI,,,,,,,,,return,4,0,4,0,1,,,,,,,,,,,,,,,,,,,,,,,,,0.083825,,,,,,,,,,,,,,,,,,,,,,,,,,,,,,,,,,,,,,,,,
,,,,,,,,,,W1492951,2020-10-23_11h58.13.530,swahili,2020.2.4,Win32,60,,,,,,,,,,,,,,,,,,,,,,BOAT - MASHUA,,,,,,,,,return,5,0,5,0,1,,,,,,,,,,,,,,,,,,,,,,,,,0.082185,,,,,,,,,,,,,,,,,,,,,,,,,,,,,,,,,,,,,,,,,
,,,,,,,,,,W1492951,2020-10-23_11h58.13.530,swahili,2020.2.4,Win32,60,,,,,,,,,,,,,,,,,,,,,,ORPHAN - YATIMA,,,,,,,,,return,6,0,6,0,1,,,,,,,,,,,,,,,,,,,,,,,,,0.09942,,,,,,,,,,,,,,,,,,,,,,,,,,,,,,,,,,,,,,,,,
,,,,,,,,,,W1492951,2020-10-23_11h58.13.530,swahili,2020.2.4,Win32,60,,,,,,,,,,,,,,,,,,,,,,OATH - YAMINI,,,,,,,,,return,7,0,7,0,1,,,,,,,,,,,,,,,,,,,,,,,,,0.073305,,,,,,,,,,,,,,,,,,,,,,,,,,,,,,,,,,,,,,,,,
,,,,,,,,,,W1492951,2020-10-23_11h58.13.530,swahili,2020.2.4,Win32,60,,,,,,,,,,,,,,,,,,,,,,PLATE - SAHANI,,,,,,,,,return,8,0,8,0,1,,,,,,,,,,,,,,,,,,,,,,,,,0.117345,,,,,,,,,,,,,,,,,,,,,,,,,,,,,,,,,,,,,,,,,
,,,,,,,,,,W1492951,2020-10-23_11h58.13.530,swahili,2020.2.4,Win32,60,,,,,,,,,,,,,,,,,,,,,,POEM - UTENZI,,,,,,,,,return,9,0,9,0,1,,,,,,,,,,,,,,,,,,,,,,,,,0.250125,,,,,,,,,,,,,,,,,,,,,,,,,,,,,,,,,,,,,,,,,
,,,,,,,,,,W1492951,2020-10-23_11h58.13.530,swahili,2020.2.4,Win32,60,,,,,,,,,,,,,,,,,,,,,,GRAVE - KABURI,,,,,,,,,return,10,0,10,0,1,,,,,,,,,,,,,,,,,,,,,,,,,0.35055,,,,,,,,,,,,,,,,,,,,,,,,,,,,,,,,,,,,,,,,,
,,,,,,,,,,W1492951,2020-10-23_11h58.13.530,swahili,2020.2.4,Win32,60,,,,,,,,,,,,,,,,,,,,,,TREASURE - DAFINA,,,,,,,,,return,11,0,11,0,1,,,,,,,,,,,,,,,,,,,,,,,,,0.450375,,,,,,,,,,,,,,,,,,,,,,,,,,,,,,,,,,,,,,,,,
,,,,,,,,,,W1492951,2020-10-23_11h58.13.530,swahili,2020.2.4,Win32,60,,,,,,,,,,,,,,,,,,,,,,,,,,,,,,,,,,,,,,,,,,,,,,,,,,,,,,,1,0,1,0,1,,,,,,,,,,,,,,,,,,,,,,,,,,,,,,,,,,,,,,,,,,,
,,,,,,,,,,W1492951,2020-10-23_11h58.13.530,swahili,2020.2.4,Win32,60,,,,,,,,,,,,,,,,,,,,,,,,,,,,,,,,,,,,,,,,,,,,,,,,,,,,,,,,,,,,,,5,0,5,0,1,,,,,,,,,,,,,,,,,,,,,,,,,,,,,,,,,,,,
,,,,,,,,,,W1492951,2020-10-23_11h58.13.530,swahili,2020.2.4,Win32,60,,,,,,,,,,-0.259895822,-0.04907409,1,0,0,1.80805,unsorted_card,0,0,0,0,1,,,,,,,,,,,,,,,,,,,,,,,,,,,,,,,,,,,,,,,,,,,,,,,,,,,,,,,,,,,,,,,,,,,,,,,,,,,,,,,,,
,,,,,,,,,,W1492951,2020-10-23_11h58.13.530,swahili,2020.2.4,Win32,60,,,,,,,,,,0.447395855,0.426851843,1,0,0,4.516265,study_pile,1,0,1,0,1,MERCHANT - TAJIRI,,,,,,,,,,,,,,,,,,,,,,,,,,,,,,,,,,,,,,,,,,,,,,,,,,,,,,,,,,,,,,,,,,,,,,,,,,,,,,,,
,,,,,,,,,,W1492951,2020-10-23_11h58.13.530,swahili,2020.2.4,Win32,60,,,,,,,,,,-0.205729155,-0.050000016,1,0,0,0.530035,unsorted_card,2,0,2,0,1,,,,,,,,,,,,,,,,,,,,,,,,,,,,,,,,,,,,,,,,,,,,,,,,,,,,,,,,,,,,,,,,,,,,,,,,,,,,,,,,,
,,,,,,,,,,W1492951,2020-10-23_11h58.13.530,swahili,2020.2.4,Win32,60,,,,,,,,,,0.462500149,0.474074066,1,0,0,1.84868,study_pile,3,0,3,0,1,BULL - FAHILI,,,,,,,,,,,,,,,,,,,,,,,,,,,,,,,,,,,,,,,,,,,,,,,,,,,,,,,,,,,,,,,,,,,,,,,,,,,,,,,,
,,,,,,,,,,W1492951,2020-10-23_11h58.13.530,swahili,2020.2.4,Win32,60,,,,,,,,,,-0.178645821,0.007407393,1,0,0,0.83285,unsorted_card,4,0,4,0,1,,,,,,,,,,,,,,,,,,,,,,,,,,,,,,,,,,,,,,,,,,,,,,,,,,,,,,,,,,,,,,,,,,,,,,,,,,,,,,,,,
,,,,,,,,,,W1492951,2020-10-23_11h58.13.530,swahili,2020.2.4,Win32,60,,,,,,,,,,0.498437522,0.431481473,1,0,0,2.21443,study_pile,5,0,5,0,1,PLATE - SAHANI,,,,,,,,,,,,,,,,,,,,,,,,,,,,,,,,,,,,,,,,,,,,,,,,,,,,,,,,,,,,,,,,,,,,,,,,,,,,,,,,
,,,,,,,,,,W1492951,2020-10-23_11h58.13.530,swahili,2020.2.4,Win32,60,,,,,,,,,,-0.158333321,-0.100925942,1,0,0,0.46453,unsorted_card,6,0,6,0,1,,,,,,,,,,,,,,,,,,,,,,,,,,,,,,,,,,,,,,,,,,,,,,,,,,,,,,,,,,,,,,,,,,,,,,,,,,,,,,,,,
,,,,,,,,,,W1492951,2020-10-23_11h58.13.530,swahili,2020.2.4,Win32,60,,,,,,,,,,0.470833355,-0.075000016,1,0,0,4.48137,test_pile,7,0,7,0,1,YEAST - HAMIRA,,,,,,,,,,,,,,,,,,,,,,,,,,,,,,,,,,,,,,,,,,,,,,,,,,,,,,,,,,,,,,,,,,,,,,,,,,,,,,,,
,,,,,,,,,,W1492951,2020-10-23_11h58.13.530,swahili,2020.2.4,Win32,60,,,,,,,,,,-0.335416657,-0.117592609,1,0,0,0.364725,unsorted_card,8,0,8,0,1,,,,,,,,,,,,,,,,,,,,,,,,,,,,,,,,,,,,,,,,,,,,,,,,,,,,,,,,,,,,,,,,,,,,,,,,,,,,,,,,,
,,,,,,,,,,W1492951,2020-10-23_11h58.13.530,swahili,2020.2.4,Win32,60,,,,,,,,,,0.54166669,0.404629621,1,0,0,6.283755,study_pile,9,0,9,0,1,OATH - YAMINI,,,,,,,,,,,,,,,,,,,,,,,,,,,,,,,,,,,,,,,,,,,,,,,,,,,,,,,,,,,,,,,,,,,,,,,,,,,,,,,,
,,,,,,,,,,W1492951,2020-10-23_11h58.13.530,swahili,2020.2.4,Win32,60,,,,,,,,,,-0.324479157,-0.050925942,1,0,0,0.313615,unsorted_card,10,0,10,0,1,,,,,,,,,,,,,,,,,,,,,,,,,,,,,,,,,,,,,,,,,,,,,,,,,,,,,,,,,,,,,,,,,,,,,,,,,,,,,,,,,
,,,,,,,,,,W1492951,2020-10-23_11h58.13.530,swahili,2020.2.4,Win32,60,,,,,,,,,,0.477083355,-0.025000015,1,0,0,9.46592,test_pile,11,0,11,0,1,CORN - NAFAKA,,,,,,,,,,,,,,,,,,,,,,,,,,,,,,,,,,,,,,,,,,,,,,,,,,,,,,,,,,,,,,,,,,,,,,,,,,,,,,,,
,,,,,,,,,,W1492951,2020-10-23_11h58.13.530,swahili,2020.2.4,Win32,60,,,,,,,,,,-0.377083324,-0.06944446,1,0,0,0.49676,unsorted_card,12,0,12,0,1,,,,,,,,,,,,,,,,,,,,,,,,,,,,,,,,,,,,,,,,,,,,,,,,,,,,,,,,,,,,,,,,,,,,,,,,,,,,,,,,,
,,,,,,,,,,W1492951,2020-10-23_11h58.13.530,swahili,2020.2.4,Win32,60,,,,,,,,,,0.502604189,0.499074067,1,0,0,1.14815,study_pile,13,0,13,0,1,POEM - UTENZI,,,,,,,,,,,,,,,,,,,,,,,,,,,,,,,,,,,,,,,,,,,,,,,,,,,,,,,,,,,,,,,,,,,,,,,,,,,,,,,,
,,,,,,,,,,W1492951,2020-10-23_11h58.13.530,swahili,2020.2.4,Win32,60,,,,,,,,,,-0.313541656,-0.027777793,1,0,0,0.58468,unsorted_card,14,0,14,0,1,,,,,,,,,,,,,,,,,,,,,,,,,,,,,,,,,,,,,,,,,,,,,,,,,,,,,,,,,,,,,,,,,,,,,,,,,,,,,,,,,
,,,,,,,,,,W1492951,2020-10-23_11h58.13.530,swahili,2020.2.4,Win32,60,,,,,,,,,,0.485937649,0.512962956,1,0,0,0.512865,study_pile,15,0,15,0,1,TAILOR - MSHONI,,,,,,,,,,,,,,,,,,,,,,,,,,,,,,,,,,,,,,,,,,,,,,,,,,,,,,,,,,,,,,,,,,,,,,,,,,,,,,,,
,,,,,,,,,,W1492951,2020-10-23_11h58.13.530,swahili,2020.2.4,Win32,60,,,,,,,,,,-0.246874989,0.049999986,1,0,0,0.346625,unsorted_card,16,0,16,0,1,,,,,,,,,,,,,,,,,,,,,,,,,,,,,,,,,,,,,,,,,,,,,,,,,,,,,,,,,,,,,,,,,,,,,,,,,,,,,,,,,
,,,,,,,,,,W1492951,2020-10-23_11h58.13.530,swahili,2020.2.4,Win32,60,,,,,,,,,,0.587500151,0.519444437,1,0,0,0.35226,study_pile,17,0,17,0,1,CHEESE - JIBINI,,,,,,,,,,,,,,,,,,,,,,,,,,,,,,,,,,,,,,,,,,,,,,,,,,,,,,,,,,,,,,,,,,,,,,,,,,,,,,,,
,,,,,,,,,,W1492951,2020-10-23_11h58.13.530,swahili,2020.2.4,Win32,60,,,,,,,,,,-0.129166654,0.007407393,1,0,0,0.314425,unsorted_card,18,0,18,0,1,,,,,,,,,,,,,,,,,,,,,,,,,,,,,,,,,,,,,,,,,,,,,,,,,,,,,,,,,,,,,,,,,,,,,,,,,,,,,,,,,
,,,,,,,,,,W1492951,2020-10-23_11h58.13.530,swahili,2020.2.4,Win32,60,,,,,,,,,,0.653125025,0.588888883,1,0,0,0.3142,study_pile,19,0,19,0,1,GRAVE - KABURI,,,,,,,,,,,,,,,,,,,,,,,,,,,,,,,,,,,,,,,,,,,,,,,,,,,,,,,,,,,,,,,,,,,,,,,,,,,,,,,,
,,,,,,,,,,W1492951,2020-10-23_11h58.13.530,swahili,2020.2.4,Win32,60,,,,,,,,,,-0.111979153,0.071296282,1,0,0,0.314735,unsorted_card,20,0,20,0,1,,,,,,,,,,,,,,,,,,,,,,,,,,,,,,,,,,,,,,,,,,,,,,,,,,,,,,,,,,,,,,,,,,,,,,,,,,,,,,,,,
,,,,,,,,,,W1492951,2020-10-23_11h58.13.530,swahili,2020.2.4,Win32,60,,,,,,,,,,0.578125024,0.493518511,1,0,0,0.282965,study_pile,21,0,21,0,1,MANURE - SAMADI,,,,,,,,,,,,,,,,,,,,,,,,,,,,,,,,,,,,,,,,,,,,,,,,,,,,,,,,,,,,,,,,,,,,,,,,,,,,,,,,
,,,,,,,,,,W1492951,2020-10-23_11h58.13.530,swahili,2020.2.4,Win32,60,,,,,,,,,,-0.268749926,0.003703689,1,0,0,0.26862,unsorted_card,22,0,22,0,1,,,,,,,,,,,,,,,,,,,,,,,,,,,,,,,,,,,,,,,,,,,,,,,,,,,,,,,,,,,,,,,,,,,,,,,,,,,,,,,,,
,,,,,,,,,,W1492951,2020-10-23_11h58.13.530,swahili,2020.2.4,Win32,60,,,,,,,,,,0.479166689,0.425925917,1,0,0,0.26307,study_pile,23,0,23,0,1,ORPHAN - YATIMA,,,,,,,,,,,,,,,,,,,,,,,,,,,,,,,,,,,,,,,,,,,,,,,,,,,,,,,,,,,,,,,,,,,,,,,,,,,,,,,,
,,,,,,,,,,W1492951,2020-10-23_11h58.13.530,swahili,2020.2.4,Win32,60,,,,,,,,,,-0.184374988,-0.005555571,1,0,0,0.284795,unsorted_card,24,0,24,0,1,,,,,,,,,,,,,,,,,,,,,,,,,,,,,,,,,,,,,,,,,,,,,,,,,,,,,,,,,,,,,,,,,,,,,,,,,,,,,,,,,
,,,,,,,,,,W1492951,2020-10-23_11h58.13.530,swahili,2020.2.4,Win32,60,,,,,,,,,,0.530729189,0.438888881,1,0,0,0.26566,study_pile,25,0,25,0,1,BOAT - MASHUA,,,,,,,,,,,,,,,,,,,,,,,,,,,,,,,,,,,,,,,,,,,,,,,,,,,,,,,,,,,,,,,,,,,,,,,,,,,,,,,,
,,,,,,,,,,W1492951,2020-10-23_11h58.13.530,swahili,2020.2.4,Win32,60,,,,,,,,,,-0.182291654,-0.022222237,1,0,0,0.282135,unsorted_card,26,0,26,0,1,,,,,,,,,,,,,,,,,,,,,,,,,,,,,,,,,,,,,,,,,,,,,,,,,,,,,,,,,,,,,,,,,,,,,,,,,,,,,,,,,
,,,,,,,,,,W1492951,2020-10-23_11h58.13.530,swahili,2020.2.4,Win32,60,,,,,,,,,,0.497395856,0.453703696,1,0,0,0.26632,study_pile,27,0,27,0,1,TREASURE - DAFINA,,,,,,,,,,,,,,,,,,,,,,,,,,,,,,,,,,,,,,,,,,,,,,,,,,,,,,,,,,,,,,,,,,,,,,,,,,,,,,,,
,,,,,,,,,,W1492951,2020-10-23_11h58.13.530,swahili,2020.2.4,Win32,60,,,,,,,,,,,,,,,,,,,,,,,0.435937521,0.015740726,1,0,0,1.54728,test_first,,,0,0,0,0,1,,,,,,,,,,,,,,,,,,,,,,,,,,,,,,,,,,,,,,,,,,,,,,,,,,,,,,,,,,,,,,,,,,
,,,,,,,,,,W1492951,2020-10-23_11h58.13.530,swahili,2020.2.4,Win32,60,,,,,,,,,,,,,,,,,,,,,,,,,,,,,,,,,,,,,return,0.920155,3.546785,0.494270856,0.000925911,1,0,0,0.78738,yes,CORN,NAFAKA,incorrect,0,0,0,0,1,,,,,,,,,,,,,,,,,,,,,,,,,,,,,,,,,,,,,,,,,,,,,,,,
,,,,,,,,,,W1492951,2020-10-23_11h58.13.530,swahili,2020.2.4,Win32,60,,,,,,,,,,,,,,,,,,,,,,,,,,,,,,,,,,,,,,,3.44987,0.35937502,-0.174074092,1,0,0,0.699685,yes,YEAST,HAMIRA,incorrect,1,0,1,0,1,,,,,,,,,,,,,,,,,,,,,,,,,,,,,,,,,,,,,,,,,,,,,,,,
,,,,,,,,,,W1492951,2020-10-23_11h58.13.530,swahili,2020.2.4,Win32,60,,,,,,,,,,,,,,,,,,,,,,,,,,,,,,,,,,,,,,,,,,,,,,,,,,,,,,,0,0,0,0,1,,,,,,,,,,,,,,,,,,,,,,,,,,,,,,,,,,,,,,,,,,,
,,,,,,,,,,W1492951,2020-10-23_11h58.13.530,swahili,2020.2.4,Win32,60,,,,,,,,,,,,,,,,,,,,,,OATH - YAMINI,,,,,,,,return,return,0,0,0,0,1,,,,,,,,,,,,,,,,,,,,,,,,0.66734,0.30138,,,,,,,,,,,,,,,,,,,,,,,,,,,,,,,,,,,,,,,,,
,,,,,,,,,,W1492951,2020-10-23_11h58.13.530,swahili,2020.2.4,Win32,60,,,,,,,,,,,,,,,,,,,,,,POEM - UTENZI,,,,,,,,,return,1,0,1,0,1,,,,,,,,,,,,,,,,,,,,,,,,,0.200485,,,,,,,,,,,,,,,,,,,,,,,,,,,,,,,,,,,,,,,,,
,,,,,,,,,,W1492951,2020-10-23_11h58.13.530,swahili,2020.2.4,Win32,60,,,,,,,,,,,,,,,,,,,,,,BOAT - MASHUA,,,,,,,,,return,2,0,2,0,1,,,,,,,,,,,,,,,,,,,,,,,,,0.183685,,,,,,,,,,,,,,,,,,,,,,,,,,,,,,,,,,,,,,,,,
,,,,,,,,,,W1492951,2020-10-23_11h58.13.530,swahili,2020.2.4,Win32,60,,,,,,,,,,,,,,,,,,,,,,TAILOR - MSHONI,,,,,,,,,return,3,0,3,0,1,,,,,,,,,,,,,,,,,,,,,,,,,0.150255,,,,,,,,,,,,,,,,,,,,,,,,,,,,,,,,,,,,,,,,,
,,,,,,,,,,W1492951,2020-10-23_11h58.13.530,swahili,2020.2.4,Win32,60,,,,,,,,,,,,,,,,,,,,,,PLATE - SAHANI,,,,,,,,,return,4,0,4,0,1,,,,,,,,,,,,,,,,,,,,,,,,,0.150315,,,,,,,,,,,,,,,,,,,,,,,,,,,,,,,,,,,,,,,,,
,,,,,,,,,,W1492951,2020-10-23_11h58.13.530,swahili,2020.2.4,Win32,60,,,,,,,,,,,,,,,,,,,,,,MERCHANT - TAJIRI,,,,,,,,,return,5,0,5,0,1,,,,,,,,,,,,,,,,,,,,,,,,,0.13386,,,,,,,,,,,,,,,,,,,,,,,,,,,,,,,,,,,,,,,,,
,,,,,,,,,,W1492951,2020-10-23_11h58.13.530,swahili,2020.2.4,Win32,60,,,,,,,,,,,,,,,,,,,,,,ORPHAN - YATIMA,,,,,,,,,return,6,0,6,0,1,,,,,,,,,,,,,,,,,,,,,,,,,0.12891,,,,,,,,,,,,,,,,,,,,,,,,,,,,,,,,,,,,,,,,,
,,,,,,,,,,W1492951,2020-10-23_11h58.13.530,swahili,2020.2.4,Win32,60,,,,,,,,,,,,,,,,,,,,,,GRAVE - KABURI,,,,,,,,,return,7,0,7,0,1,,,,,,,,,,,,,,,,,,,,,,,,,0.132355,,,,,,,,,,,,,,,,,,,,,,,,,,,,,,,,,,,,,,,,,
,,,,,,,,,,W1492951,2020-10-23_11h58.13.530,swahili,2020.2.4,Win32,60,,,,,,,,,,,,,,,,,,,,,,BULL - FAHILI,,,,,,,,,return,8,0,8,0,1,,,,,,,,,,,,,,,,,,,,,,,,,0.1173,,,,,,,,,,,,,,,,,,,,,,,,,,,,,,,,,,,,,,,,,
,,,,,,,,,,W1492951,2020-10-23_11h58.13.530,swahili,2020.2.4,Win32,60,,,,,,,,,,,,,,,,,,,,,,CHEESE - JIBINI,,,,,,,,,return,9,0,9,0,1,,,,,,,,,,,,,,,,,,,,,,,,,0.302185,,,,,,,,,,,,,,,,,,,,,,,,,,,,,,,,,,,,,,,,,
,,,,,,,,,,W1492951,2020-10-23_11h58.13.530,swahili,2020.2.4,Win32,60,,,,,,,,,,,,,,,,,,,,,,MANURE - SAMADI,,,,,,,,,return,10,0,10,0,1,,,,,,,,,,,,,,,,,,,,,,,,,0.11718,,,,,,,,,,,,,,,,,,,,,,,,,,,,,,,,,,,,,,,,,
,,,,,,,,,,W1492951,2020-10-23_11h58.13.530,swahili,2020.2.4,Win32,60,,,,,,,,,,,,,,,,,,,,,,TREASURE - DAFINA,,,,,,,,,return,11,0,11,0,1,,,,,,,,,,,,,,,,,,,,,,,,,0.087745,,,,,,,,,,,,,,,,,,,,,,,,,,,,,,,,,,,,,,,,,
,,,,,,,,,,W1492951,2020-10-23_11h58.13.530,swahili,2020.2.4,Win32,60,,,,,,,,,,,,,,,,,,,,,,,,,,,,,,,,,,,,,,,,,,,,,,,,,,,,,,,1,0,1,0,1,,,,,,,,,,,,,,,,,,,,,,,,,,,,,,,,,,,,,,,,,,,
,,,,,,,,,,W1492951,2020-10-23_11h58.13.530,swahili,2020.2.4,Win32,60,,,,,,,,,,,,,,,,,,,,,,,,,,,,,,,,,,,,,,,,,,,,,,,,,,,,,,,,,,,,,,6,0,6,0,1,,,,,,,,,,,,,,,,,,,,,,,,,,,,,,,,,,,,
,,,,,,,,,,W1492951,2020-10-23_11h58.13.530,swahili,2020.2.4,Win32,60,,,,,,,,,,-0.450520825,-0.083333349,1,0,0,1.070585,unsorted_card,0,0,0,0,1,,,,,,,,,,,,,,,,,,,,,,,,,,,,,,,,,,,,,,,,,,,,,,,,,,,,,,,,,,,,,,,,,,,,,,,,,,,,,,,,,
,,,,,,,,,,W1492951,2020-10-23_11h58.13.530,swahili,2020.2.4,Win32,60,,,,,,,,,,0.494791689,-0.033333349,1,0,0,8.781375,test_pile,1,0,1,0,1,MERCHANT - TAJIRI,,,,,,,,,,,,,,,,,,,,,,,,,,,,,,,,,,,,,,,,,,,,,,,,,,,,,,,,,,,,,,,,,,,,,,,,,,,,,,,,
,,,,,,,,,,W1492951,2020-10-23_11h58.13.530,swahili,2020.2.4,Win32,60,,,,,,,,,,-0.30937499,-0.042592608,1,0,0,0.42937,unsorted_card,2,0,2,0,1,,,,,,,,,,,,,,,,,,,,,,,,,,,,,,,,,,,,,,,,,,,,,,,,,,,,,,,,,,,,,,,,,,,,,,,,,,,,,,,,,
,,,,,,,,,,W1492951,2020-10-23_11h58.13.530,swahili,2020.2.4,Win32,60,,,,,,,,,,0.493229189,-0.028703719,1,0,0,10.216385,test_pile,3,0,3,0,1,BULL - FAHILI,,,,,,,,,,,,,,,,,,,,,,,,,,,,,,,,,,,,,,,,,,,,,,,,,,,,,,,,,,,,,,,,,,,,,,,,,,,,,,,,
,,,,,,,,,,W1492951,2020-10-23_11h58.13.530,swahili,2020.2.4,Win32,60,,,,,,,,,,-0.373958324,-0.031481497,1,0,0,0.3324,unsorted_card,4,0,4,0,1,,,,,,,,,,,,,,,,,,,,,,,,,,,,,,,,,,,,,,,,,,,,,,,,,,,,,,,,,,,,,,,,,,,,,,,,,,,,,,,,,
