condition,consent_key.keys,consent_key.rt,done_with_instructions.keys,done_with_instructions.rt,instr_loop.thisRepN,instr_loop.thisTrialN,instr_loop.thisN,instr_loop.thisIndex,instr_loop.ran,Student ID #,date,expName,psychopyVersion,OS,frameRate,instr_learning_key.keys,instr_learning_key.rt,card_gen_loop.thisRepN,card_gen_loop.thisTrialN,card_gen_loop.thisN,card_gen_loop.thisIndex,card_gen_loop.ran,swa,eng,choose_pile.x,choose_pile.y,choose_pile.leftButton,choose_pile.midButton,choose_pile.rightButton,choose_pile.time,choose_pile.clicked_name,choices.thisRepN,choices.thisTrialN,choices.thisN,choices.thisIndex,choices.ran,card_to_show,mouse_pick.x,mouse_pick.y,mouse_pick.leftButton,mouse_pick.midButton,mouse_pick.rightButton,mouse_pick.time,mouse_pick.clicked_name,key_instr_study.keys,key_instr_study.rt,next_study.keys,next_study.rt,study_loop.thisRepN,study_loop.thisTrialN,study_loop.thisN,study_loop.thisIndex,study_loop.ran,key_instr_test.keys,learn_loop.thisRepN,learn_loop.thisTrialN,learn_loop.thisN,learn_loop.thisIndex,learn_loop.ran,trials.thisRepN,trials.thisTrialN,trials.thisN,trials.thisIndex,trials.ran,key_instr_test.rt,duration,yes_or_no.x,yes_or_no.y,yes_or_no.leftButton,yes_or_no.midButton,yes_or_no.rightButton,yes_or_no.time,yes_or_no.clicked_name,test_response.stim,test_response.resp,test_response.eval,test_loop.thisRepN,test_loop.thisTrialN,test_loop.thisN,test_loop.thisIndex,test_loop.ran,instr_movie_key.keys,instr_movie_key.rt,return_to_exp.keys,return_to_exp.rt,instr_assess_key.keys,instr_assess_key.rt,assess_loop.thisRepN,assess_loop.thisTrialN,assess_loop.thisN,assess_loop.thisIndex,assess_loop.ran,ans_gen_loop.thisRepN,ans_gen_loop.thisTrialN,ans_gen_loop.thisN,ans_gen_loop.thisIndex,ans_gen_loop.ran,sen,ans,instr_transfer_key.keys,instr_transfer_key.rt,transfer_response.resp,transfer_response.eval,select_word.x,select_word.y,select_word.leftButton,select_word.midButton,select_word.rightButton,select_word.time,select_word.clicked_name,transfers.thisRepN,transfers.thisTrialN,transfers.thisN,transfers.thisIndex,transfers.ran,end_experiment.keys,end_experiment.rt
2,return,25.02885,return,17.885685,0,0,0,0,1,00001598050,2020-10-23_17h18.15.704,swahili,2020.2.4,Win32,60,,,,,,,,,,,,,,,,,,,,,,,,,,,,,,,,,,,,,,,,,,,,,,,,,,,,,,,,,,,,,,,,,,,,,,,,,,,,,,,,,,,,,,,,,,,,,,,,,,,,,,
,,,return,24.3869,1,0,1,0,1,00001598050,2020-10-23_17h18.15.704,swahili,2020.2.4,Win32,60,,,,,,,,,,,,,,,,,,,,,,,,,,,,,,,,,,,,,,,,,,,,,,,,,,,,,,,,,,,,,,,,,,,,,,,,,,,,,,,,,,,,,,,,,,,,,,,,,,,,,,
,,,,,,,,,,00001598050,2020-10-23_17h18.15.704,swahili,2020.2.4,Win32,60,return,14.40606,0,0,0,0,1,TAJIRI,MERCHANT,,,,,,,,,,,,,,,,,,,,,,,,,,,,,,,,,,,,,,,,,,,,,,,,,,,,,,,,,,,,,,,,,,,,,,,,,,,,,,,,,,,,,,,,,,,,,
,,,,,,,,,,00001598050,2020-10-23_17h18.15.704,swahili,2020.2.4,Win32,60,,,0,1,1,1,1,KASUKU,PARROT,,,,,,,,,,,,,,,,,,,,,,,,,,,,,,,,,,,,,,,,,,,,,,,,,,,,,,,,,,,,,,,,,,,,,,,,,,,,,,,,,,,,,,,,,,,,,
,,,,,,,,,,00001598050,2020-10-23_17h18.15.704,swahili,2020.2.4,Win32,60,,,0,2,2,2,1,FAHILI,BULL,,,,,,,,,,,,,,,,,,,,,,,,,,,,,,,,,,,,,,,,,,,,,,,,,,,,,,,,,,,,,,,,,,,,,,,,,,,,,,,,,,,,,,,,,,,,,
,,,,,,,,,,00001598050,2020-10-23_17h18.15.704,swahili,2020.2.4,Win32,60,,,0,3,3,3,1,SAHANI,PLATE,,,,,,,,,,,,,,,,,,,,,,,,,,,,,,,,,,,,,,,,,,,,,,,,,,,,,,,,,,,,,,,,,,,,,,,,,,,,,,,,,,,,,,,,,,,,,
,,,,,,,,,,00001598050,2020-10-23_17h18.15.704,swahili,2020.2.4,Win32,60,,,0,4,4,4,1,HAMIRA,YEAST,,,,,,,,,,,,,,,,,,,,,,,,,,,,,,,,,,,,,,,,,,,,,,,,,,,,,,,,,,,,,,,,,,,,,,,,,,,,,,,,,,,,,,,,,,,,,
,,,,,,,,,,00001598050,2020-10-23_17h18.15.704,swahili,2020.2.4,Win32,60,,,0,5,5,5,1,LAWAMA,BLAME,,,,,,,,,,,,,,,,,,,,,,,,,,,,,,,,,,,,,,,,,,,,,,,,,,,,,,,,,,,,,,,,,,,,,,,,,,,,,,,,,,,,,,,,,,,,,
,,,,,,,,,,00001598050,2020-10-23_17h18.15.704,swahili,2020.2.4,Win32,60,,,0,6,6,6,1,YAMINI,OATH,,,,,,,,,,,,,,,,,,,,,,,,,,,,,,,,,,,,,,,,,,,,,,,,,,,,,,,,,,,,,,,,,,,,,,,,,,,,,,,,,,,,,,,,,,,,,
,,,,,,,,,,00001598050,2020-10-23_17h18.15.704,swahili,2020.2.4,Win32,60,,,0,7,7,7,1,NAFAKA,CORN,,,,,,,,,,,,,,,,,,,,,,,,,,,,,,,,,,,,,,,,,,,,,,,,,,,,,,,,,,,,,,,,,,,,,,,,,,,,,,,,,,,,,,,,,,,,,
,,,,,,,,,,00001598050,2020-10-23_17h18.15.704,swahili,2020.2.4,Win32,60,,,0,8,8,8,1,UTENZI,POEM,,,,,,,,,,,,,,,,,,,,,,,,,,,,,,,,,,,,,,,,,,,,,,,,,,,,,,,,,,,,,,,,,,,,,,,,,,,,,,,,,,,,,,,,,,,,,
,,,,,,,,,,00001598050,2020-10-23_17h18.15.704,swahili,2020.2.4,Win32,60,,,0,9,9,9,1,MSHONI,TAILOR,,,,,,,,,,,,,,,,,,,,,,,,,,,,,,,,,,,,,,,,,,,,,,,,,,,,,,,,,,,,,,,,,,,,,,,,,,,,,,,,,,,,,,,,,,,,,
,,,,,,,,,,00001598050,2020-10-23_17h18.15.704,swahili,2020.2.4,Win32,60,,,0,10,10,10,1,JIBINI,CHEESE,,,,,,,,,,,,,,,,,,,,,,,,,,,,,,,,,,,,,,,,,,,,,,,,,,,,,,,,,,,,,,,,,,,,,,,,,,,,,,,,,,,,,,,,,,,,,
,,,,,,,,,,00001598050,2020-10-23_17h18.15.704,swahili,2020.2.4,Win32,60,,,0,11,11,11,1,ZABIBU,GRAPES,,,,,,,,,,,,,,,,,,,,,,,,,,,,,,,,,,,,,,,,,,,,,,,,,,,,,,,,,,,,,,,,,,,,,,,,,,,,,,,,,,,,,,,,,,,,,
,,,,,,,,,,00001598050,2020-10-23_17h18.15.704,swahili,2020.2.4,Win32,60,,,0,12,12,12,1,KABURI,GRAVE,,,,,,,,,,,,,,,,,,,,,,,,,,,,,,,,,,,,,,,,,,,,,,,,,,,,,,,,,,,,,,,,,,,,,,,,,,,,,,,,,,,,,,,,,,,,,
,,,,,,,,,,00001598050,2020-10-23_17h18.15.704,swahili,2020.2.4,Win32,60,,,0,13,13,13,1,SAMADI,MANURE,,,,,,,,,,,,,,,,,,,,,,,,,,,,,,,,,,,,,,,,,,,,,,,,,,,,,,,,,,,,,,,,,,,,,,,,,,,,,,,,,,,,,,,,,,,,,
,,,,,,,,,,00001598050,2020-10-23_17h18.15.704,swahili,2020.2.4,Win32,60,,,0,14,14,14,1,WAKILI,AGENT,,,,,,,,,,,,,,,,,,,,,,,,,,,,,,,,,,,,,,,,,,,,,,,,,,,,,,,,,,,,,,,,,,,,,,,,,,,,,,,,,,,,,,,,,,,,,
,,,,,,,,,,00001598050,2020-10-23_17h18.15.704,swahili,2020.2.4,Win32,60,,,0,15,15,15,1,RUSHWA,BRIBE,,,,,,,,,,,,,,,,,,,,,,,,,,,,,,,,,,,,,,,,,,,,,,,,,,,,,,,,,,,,,,,,,,,,,,,,,,,,,,,,,,,,,,,,,,,,,
,,,,,,,,,,00001598050,2020-10-23_17h18.15.704,swahili,2020.2.4,Win32,60,,,0,16,16,16,1,YATIMA,ORPHAN,,,,,,,,,,,,,,,,,,,,,,,,,,,,,,,,,,,,,,,,,,,,,,,,,,,,,,,,,,,,,,,,,,,,,,,,,,,,,,,,,,,,,,,,,,,,,
,,,,,,,,,,00001598050,2020-10-23_17h18.15.704,swahili,2020.2.4,Win32,60,,,0,17,17,17,1,TALAKA,DIVORCE,,,,,,,,,,,,,,,,,,,,,,,,,,,,,,,,,,,,,,,,,,,,,,,,,,,,,,,,,,,,,,,,,,,,,,,,,,,,,,,,,,,,,,,,,,,,,
,,,,,,,,,,00001598050,2020-10-23_17h18.15.704,swahili,2020.2.4,Win32,60,,,0,18,18,18,1,MASHUA,BOAT,,,,,,,,,,,,,,,,,,,,,,,,,,,,,,,,,,,,,,,,,,,,,,,,,,,,,,,,,,,,,,,,,,,,,,,,,,,,,,,,,,,,,,,,,,,,,
,,,,,,,,,,00001598050,2020-10-23_17h18.15.704,swahili,2020.2.4,Win32,60,,,0,19,19,19,1,DAFINA,TREASURE,,,,,,,,,,,,,,,,,,,,,,,,,,,,,,,,,,,,,,,,,,,,,,,,,,,,,,,,,,,,,,,,,,,,,,,,,,,,,,,,,,,,,,,,,,,,,
,,,,,,,,,,00001598050,2020-10-23_17h18.15.704,swahili,2020.2.4,Win32,60,,,,,,,,,,-0.451241118,-0.036889363,1,0,0,4.971665001,unsorted_card,0,0,0,0,1,,,,,,,,,,,,,,,,,,,,,,,,,,,,,,,,,,,,,,,,,,,,,,,,,,,,,,,,,,,,,,,,,,,,,,,,,,,,,,,,,
,,,,,,,,,,00001598050,2020-10-23_17h18.15.704,swahili,2020.2.4,Win32,60,,,,,,,,,,0.546099445,0.484213969,1,0,0,5.089934999,study_pile,1,0,1,0,1,MERCHANT - TAJIRI,,,,,,,,,,,,,,,,,,,,,,,,,,,,,,,,,,,,,,,,,,,,,,,,,,,,,,,,,,,,,,,,,,,,,,,,,,,,,,,,
,,,,,,,,,,00001598050,2020-10-23_17h18.15.704,swahili,2020.2.4,Win32,60,,,,,,,,,,-0.284574447,0.036224631,1,0,0,1.610679999,unsorted_card,2,0,2,0,1,,,,,,,,,,,,,,,,,,,,,,,,,,,,,,,,,,,,,,,,,,,,,,,,,,,,,,,,,,,,,,,,,,,,,,,,,,,,,,,,,
,,,,,,,,,,00001598050,2020-10-23_17h18.15.704,swahili,2020.2.4,Win32,60,,,,,,,,,,0.518617067,0.534729132,1,0,0,2.328144999,study_pile,3,0,3,0,1,PARROT - KASUKU,,,,,,,,,,,,,,,,,,,,,,,,,,,,,,,,,,,,,,,,,,,,,,,,,,,,,,,,,,,,,,,,,,,,,,,,,,,,,,,,
,,,,,,,,,,00001598050,2020-10-23_17h18.15.704,swahili,2020.2.4,Win32,60,,,,,,,,,,-0.232269427,-0.059488315,1,0,0,1.44447,unsorted_card,4,0,4,0,1,,,,,,,,,,,,,,,,,,,,,,,,,,,,,,,,,,,,,,,,,,,,,,,,,,,,,,,,,,,,,,,,,,,,,,,,,,,,,,,,,
,,,,,,,,,,00001598050,2020-10-23_17h18.15.704,swahili,2020.2.4,Win32,60,,,,,,,,,,0.562056892,0.440345573,1,0,0,1.813405,study_pile,5,0,5,0,1,BULL - FAHILI,,,,,,,,,,,,,,,,,,,,,,,,,,,,,,,,,,,,,,,,,,,,,,,,,,,,,,,,,,,,,,,,,,,,,,,,,,,,,,,,
,,,,,,,,,,00001598050,2020-10-23_17h18.15.704,swahili,2020.2.4,Win32,60,,,,,,,,,,-0.343085087,0.062811537,1,0,0,0.82773,unsorted_card,6,0,6,0,1,,,,,,,,,,,,,,,,,,,,,,,,,,,,,,,,,,,,,,,,,,,,,,,,,,,,,,,,,,,,,,,,,,,,,,,,,,,,,,,,,
,,,,,,,,,,00001598050,2020-10-23_17h18.15.704,swahili,2020.2.4,Win32,60,,,,,,,,,,0.489361747,0.4868727,1,0,0,2.08217,study_pile,7,0,7,0,1,PLATE - SAHANI,,,,,,,,,,,,,,,,,,,,,,,,,,,,,,,,,,,,,,,,,,,,,,,,,,,,,,,,,,,,,,,,,,,,,,,,,,,,,,,,
,,,,,,,,,,00001598050,2020-10-23_17h18.15.704,swahili,2020.2.4,Win32,60,,,,,,,,,,-0.359042534,0.022931177,1,0,0,1.178265002,unsorted_card,8,0,8,0,1,,,,,,,,,,,,,,,,,,,,,,,,,,,,,,,,,,,,,,,,,,,,,,,,,,,,,,,,,,,,,,,,,,,,,,,,,,,,,,,,,
,,,,,,,,,,00001598050,2020-10-23_17h18.15.704,swahili,2020.2.4,Win32,60,,,,,,,,,,0.487588805,0.498836808,1,0,0,1.912784999,study_pile,9,0,9,0,1,YEAST - HAMIRA,,,,,,,,,,,,,,,,,,,,,,,,,,,,,,,,,,,,,,,,,,,,,,,,,,,,,,,,,,,,,,,,,,,,,,,,,,,,,,,,
,,,,,,,,,,00001598050,2020-10-23_17h18.15.704,swahili,2020.2.4,Win32,60,,,,,,,,,,-0.509751758,-0.014290492,1,0,0,0.91186,unsorted_card,10,0,10,0,1,,,,,,,,,,,,,,,,,,,,,,,,,,,,,,,,,,,,,,,,,,,,,,,,,,,,,,,,,,,,,,,,,,,,,,,,,,,,,,,,,
,,,,,,,,,,00001598050,2020-10-23_17h18.15.704,swahili,2020.2.4,Win32,60,,,,,,,,,,0.49911352,0.450980376,1,0,0,1.596445,study_pile,11,0,11,0,1,BLAME - LAWAMA,,,,,,,,,,,,,,,,,,,,,,,,,,,,,,,,,,,,,,,,,,,,,,,,,,,,,,,,,,,,,,,,,,,,,,,,,,,,,,,,
,,,,,,,,,,00001598050,2020-10-23_17h18.15.704,swahili,2020.2.4,Win32,60,,,,,,,,,,-0.345744661,-0.0262546,1,0,0,1.013769999,unsorted_card,12,0,12,0,1,,,,,,,,,,,,,,,,,,,,,,,,,,,,,,,,,,,,,,,,,,,,,,,,,,,,,,,,,,,,,,,,,,,,,,,,,,,,,,,,,
,,,,,,,,,,00001598050,2020-10-23_17h18.15.704,swahili,2020.2.4,Win32,60,,,,,,,,,,0.52659579,0.497507463,1,0,0,1.379445,study_pile,13,0,13,0,1,OATH - YAMINI,,,,,,,,,,,,,,,,,,,,,,,,,,,,,,,,,,,,,,,,,,,,,,,,,,,,,,,,,,,,,,,,,,,,,,,,,,,,,,,,
,,,,,,,,,,00001598050,2020-10-23_17h18.15.704,swahili,2020.2.4,Win32,60,,,,,,,,,,-0.301418365,0.000332307,1,0,0,1.096425001,unsorted_card,14,0,14,0,1,,,,,,,,,,,,,,,,,,,,,,,,,,,,,,,,,,,,,,,,,,,,,,,,,,,,,,,,,,,,,,,,,,,,,,,,,,,,,,,,,
,,,,,,,,,,00001598050,2020-10-23_17h18.15.704,swahili,2020.2.4,Win32,60,,,,,,,,,,0.529255365,0.460285753,1,0,0,1.48075,study_pile,15,0,15,0,1,CORN - NAFAKA,,,,,,,,,,,,,,,,,,,,,,,,,,,,,,,,,,,,,,,,,,,,,,,,,,,,,,,,,,,,,,,,,,,,,,,,,,,,,,,,
,,,,,,,,,,00001598050,2020-10-23_17h18.15.704,swahili,2020.2.4,Win32,60,,,,,,,,,,-0.390070904,0.044200703,1,0,0,0.91347,unsorted_card,16,0,16,0,1,,,,,,,,,,,,,,,,,,,,,,,,,,,,,,,,,,,,,,,,,,,,,,,,,,,,,,,,,,,,,,,,,,,,,,,,,,,,,,,,,
,,,,,,,,,,00001598050,2020-10-23_17h18.15.704,swahili,2020.2.4,Win32,60,,,,,,,,,,0.513297917,0.530741096,1,0,0,1.88008,study_pile,17,0,17,0,1,POEM - UTENZI,,,,,,,,,,,,,,,,,,,,,,,,,,,,,,,,,,,,,,,,,,,,,,,,,,,,,,,,,,,,,,,,,,,,,,,,,,,,,,,,
,,,,,,,,,,00001598050,2020-10-23_17h18.15.704,swahili,2020.2.4,Win32,60,,,,,,,,,,-0.436170196,-0.020937219,1,0,0,0.997015001,unsorted_card,18,0,18,0,1,,,,,,,,,,,,,,,,,,,,,,,,,,,,,,,,,,,,,,,,,,,,,,,,,,,,,,,,,,,,,,,,,,,,,,,,,,,,,,,,,
,,,,,,,,,,00001598050,2020-10-23_17h18.15.704,swahili,2020.2.4,Win32,60,,,,,,,,,,0.527482423,0.460285753,1,0,0,1.713895001,study_pile,19,0,19,0,1,TAILOR - MSHONI,,,,,,,,,,,,,,,,,,,,,,,,,,,,,,,,,,,,,,,,,,,,,,,,,,,,,,,,,,,,,,,,,,,,,,,,,,,,,,,,
,,,,,,,,,,00001598050,2020-10-23_17h18.15.704,swahili,2020.2.4,Win32,60,,,,,,,,,,-0.255319127,0.068128919,1,0,0,0.963805001,unsorted_card,20,0,20,0,1,,,,,,,,,,,,,,,,,,,,,,,,,,,,,,,,,,,,,,,,,,,,,,,,,,,,,,,,,,,,,,,,,,,,,,,,,,,,,,,,,
,,,,,,,,,,00001598050,2020-10-23_17h18.15.704,swahili,2020.2.4,Win32,60,,,,,,,,,,0.484042597,0.54669324,1,0,0,1.46297,study_pile,21,0,21,0,1,CHEESE - JIBINI,,,,,,,,,,,,,,,,,,,,,,,,,,,,,,,,,,,,,,,,,,,,,,,,,,,,,,,,,,,,,,,,,,,,,,,,,,,,,,,,
,,,,,,,,,,00001598050,2020-10-23_17h18.15.704,swahili,2020.2.4,Win32,60,,,,,,,,,,-0.481382963,-0.028913291,1,0,0,0.82997,unsorted_card,22,0,22,0,1,,,,,,,,,,,,,,,,,,,,,,,,,,,,,,,,,,,,,,,,,,,,,,,,,,,,,,,,,,,,,,,,,,,,,,,,,,,,,,,,,
,,,,,,,,,,00001598050,2020-10-23_17h18.15.704,swahili,2020.2.4,Win32,60,,,,,,,,,,0.447695187,0.494848772,1,0,0,1.496929999,study_pile,23,0,23,0,1,GRAPES - ZABIBU,,,,,,,,,,,,,,,,,,,,,,,,,,,,,,,,,,,,,,,,,,,,,,,,,,,,,,,,,,,,,,,,,,,,,,,,,,,,,,,,
,,,,,,,,,,00001598050,2020-10-23_17h18.15.704,swahili,2020.2.4,Win32,60,,,,,,,,,,-0.426418423,-0.032901327,1,0,0,1.010435,unsorted_card,24,0,24,0,1,,,,,,,,,,,,,,,,,,,,,,,,,,,,,,,,,,,,,,,,,,,,,,,,,,,,,,,,,,,,,,,,,,,,,,,,,,,,,,,,,
,,,,,,,,,,00001598050,2020-10-23_17h18.15.704,swahili,2020.2.4,Win32,60,,,,,,,,,,0.4698582,0.439016268,1,0,0,2.063059999,study_pile,25,0,25,0,1,GRAVE - KABURI,,,,,,,,,,,,,,,,,,,,,,,,,,,,,,,,,,,,,,,,,,,,,,,,,,,,,,,,,,,,,,,,,,,,,,,,,,,,,,,,
,,,,,,,,,,00001598050,2020-10-23_17h18.15.704,swahili,2020.2.4,Win32,60,,,,,,,,,,-0.416666649,0.072116955,1,0,0,1.146904999,unsorted_card,26,0,26,0,1,,,,,,,,,,,,,,,,,,,,,,,,,,,,,,,,,,,,,,,,,,,,,,,,,,,,,,,,,,,,,,,,,,,,,,,,,,,,,,,,,
,,,,,,,,,,00001598050,2020-10-23_17h18.15.704,swahili,2020.2.4,Win32,60,,,,,,,,,,0.621453949,0.532070441,1,0,0,2.44744,study_pile,27,0,27,0,1,MANURE - SAMADI,,,,,,,,,,,,,,,,,,,,,,,,,,,,,,,,,,,,,,,,,,,,,,,,,,,,,,,,,,,,,,,,,,,,,,,,,,,,,,,,
,,,,,,,,,,00001598050,2020-10-23_17h18.15.704,swahili,2020.2.4,Win32,60,,,,,,,,,,0.621453949,0.532070441,1,0,0,0.563885,study_pile,28,0,28,0,1,,,,,,,,,,,,,,,,,,,,,,,,,,,,,,,,,,,,,,,,,,,,,,,,,,,,,,,,,,,,,,,,,,,,,,,,,,,,,,,,,
,,,,,,,,,,00001598050,2020-10-23_17h18.15.704,swahili,2020.2.4,Win32,60,,,,,,,,,,-0.374113457,-0.067464387,1,0,0,0.69805,unsorted_card,29,0,29,0,1,,,,,,,,,,,,,,,,,,,,,,,,,,,,,,,,,,,,,,,,,,,,,,,,,,,,,,,,,,,,,,,,,,,,,,,,,,,,,,,,,
,,,,,,,,,,00001598050,2020-10-23_17h18.15.704,swahili,2020.2.4,Win32,60,,,,,,,,,,0.454787277,0.439016268,1,0,0,1.530464999,study_pile,30,0,30,0,1,AGENT - WAKILI,,,,,,,,,,,,,,,,,,,,,,,,,,,,,,,,,,,,,,,,,,,,,,,,,,,,,,,,,,,,,,,,,,,,,,,,,,,,,,,,
,,,,,,,,,,00001598050,2020-10-23_17h18.15.704,swahili,2020.2.4,Win32,60,,,,,,,,,,-0.373226932,0.072116955,1,0,0,1.063765001,unsorted_card,31,0,31,0,1,,,,,,,,,,,,,,,,,,,,,,,,,,,,,,,,,,,,,,,,,,,,,,,,,,,,,,,,,,,,,,,,,,,,,,,,,,,,,,,,,
,,,,,,,,,,00001598050,2020-10-23_17h18.15.704,swahili,2020.2.4,Win32,60,,,,,,,,,,0.457446852,0.428381464,1,0,0,2.380365001,study_pile,32,0,32,0,1,BRIBE - RUSHWA,,,,,,,,,,,,,,,,,,,,,,,,,,,,,,,,,,,,,,,,,,,,,,,,,,,,,,,,,,,,,,,,,,,,,,,,,,,,,,,,
,,,,,,,,,,00001598050,2020-10-23_17h18.15.704,swahili,2020.2.4,Win32,60,,,,,,,,,,-0.270390049,-0.00631442,1,0,0,0.97869,unsorted_card,33,0,33,0,1,,,,,,,,,,,,,,,,,,,,,,,,,,,,,,,,,,,,,,,,,,,,,,,,,,,,,,,,,,,,,,,,,,,,,,,,,,,,,,,,,
,,,,,,,,,,00001598050,2020-10-23_17h18.15.704,swahili,2020.2.4,Win32,60,,,,,,,,,,0.491134796,0.470920556,1,0,0,1.980419999,study_pile,34,0,34,0,1,ORPHAN - YATIMA,,,,,,,,,,,,,,,,,,,,,,,,,,,,,,,,,,,,,,,,,,,,,,,,,,,,,,,,,,,,,,,,,,,,,,,,,,,,,,,,
,,,,,,,,,,00001598050,2020-10-23_17h18.15.704,swahili,2020.2.4,Win32,60,,,,,,,,,,-0.425531898,0.008308379,1,0,0,1.057709999,unsorted_card,35,0,35,0,1,,,,,,,,,,,,,,,,,,,,,,,,,,,,,,,,,,,,,,,,,,,,,,,,,,,,,,,,,,,,,,,,,,,,,,,,,,,,,,,,,
,,,,,,,,,,00001598050,2020-10-23_17h18.15.704,swahili,2020.2.4,Win32,60,,,,,,,,,,0.476063874,0.510800916,1,0,0,1.897335,study_pile,36,0,36,0,1,DIVORCE - TALAKA,,,,,,,,,,,,,,,,,,,,,,,,,,,,,,,,,,,,,,,,,,,,,,,,,,,,,,,,,,,,,,,,,,,,,,,,,,,,,,,,
,,,,,,,,,,00001598050,2020-10-23_17h18.15.704,swahili,2020.2.4,Win32,60,,,,,,,,,,-0.344858137,0.016284451,1,0,0,1.096765,unsorted_card,37,0,37,0,1,,,,,,,,,,,,,,,,,,,,,,,,,,,,,,,,,,,,,,,,,,,,,,,,,,,,,,,,,,,,,,,,,,,,,,,,,,,,,,,,,
,,,,,,,,,,00001598050,2020-10-23_17h18.15.704,swahili,2020.2.4,Win32,60,,,,,,,,,,0.515070967,0.52675306,1,0,0,2.346690001,study_pile,38,0,38,0,1,BOAT - MASHUA,,,,,,,,,,,,,,,,,,,,,,,,,,,,,,,,,,,,,,,,,,,,,,,,,,,,,,,,,,,,,,,,,,,,,,,,,,,,,,,,
,,,,,,,,,,00001598050,2020-10-23_17h18.15.704,swahili,2020.2.4,Win32,60,,,,,,,,,,-0.446808494,-0.039548135,1,0,0,0.947404999,unsorted_card,39,0,39,0,1,,,,,,,,,,,,,,,,,,,,,,,,,,,,,,,,,,,,,,,,,,,,,,,,,,,,,,,,,,,,,,,,,,,,,,,,,,,,,,,,,
,,,,,,,,,,00001598050,2020-10-23_17h18.15.704,swahili,2020.2.4,Win32,60,,,,,,,,,,0.561170259,0.555998657,1,0,0,1.497594999,study_pile,40,0,40,0,1,TREASURE - DAFINA,,,,,,,,,,,,,,,,,,,,,,,,,,,,,,,,,,,,,,,,,,,,,,,,,,,,,,,,,,,,,,,,,,,,,,,,,,,,,,,,
,,,,,,,,,,00001598050,2020-10-23_17h18.15.704,swahili,2020.2.4,Win32,60,,,,,,,,,,,,,,,,,,,,,,GRAVE - KABURI,,,,,,,,return,5.372835001,return,1.658219999,0,0,0,0,1,,,,,,,,,,,,,,,,,,,,,,,,,,,,,,,,,,,,,,,,,,,,,,,,,,,,,,,,,,,,,,,,
,,,,,,,,,,00001598050,2020-10-23_17h18.15.704,swahili,2020.2.4,Win32,60,,,,,,,,,,,,,,,,,,,,,,BRIBE - RUSHWA,,,,,,,,,,return,1.230110001,1,0,1,0,1,,,,,,,,,,,,,,,,,,,,,,,,,,,,,,,,,,,,,,,,,,,,,,,,,,,,,,,,,,,,,,,,
,,,,,,,,,,00001598050,2020-10-23_17h18.15.704,swahili,2020.2.4,Win32,60,,,,,,,,,,,,,,,,,,,,,,PARROT - KASUKU,,,,,,,,,,return,1.141185001,2,0,2,0,1,,,,,,,,,,,,,,,,,,,,,,,,,,,,,,,,,,,,,,,,,,,,,,,,,,,,,,,,,,,,,,,,
,,,,,,,,,,00001598050,2020-10-23_17h18.15.704,swahili,2020.2.4,Win32,60,,,,,,,,,,,,,,,,,,,,,,MERCHANT - TAJIRI,,,,,,,,,,return,1.269804999,3,0,3,0,1,,,,,,,,,,,,,,,,,,,,,,,,,,,,,,,,,,,,,,,,,,,,,,,,,,,,,,,,,,,,,,,,
,,,,,,,,,,00001598050,2020-10-23_17h18.15.704,swahili,2020.2.4,Win32,60,,,,,,,,,,,,,,,,,,,,,,YEAST - HAMIRA,,,,,,,,,,return,0.935770001,4,0,4,0,1,,,,,,,,,,,,,,,,,,,,,,,,,,,,,,,,,,,,,,,,,,,,,,,,,,,,,,,,,,,,,,,,
,,,,,,,,,,00001598050,2020-10-23_17h18.15.704,swahili,2020.2.4,Win32,60,,,,,,,,,,,,,,,,,,,,,,PLATE - SAHANI,,,,,,,,,,return,0.932559999,5,0,5,0,1,,,,,,,,,,,,,,,,,,,,,,,,,,,,,,,,,,,,,,,,,,,,,,,,,,,,,,,,,,,,,,,,
,,,,,,,,,,00001598050,2020-10-23_17h18.15.704,swahili,2020.2.4,Win32,60,,,,,,,,,,,,,,,,,,,,,,MANURE - SAMADI,,,,,,,,,,return,1.101050001,6,0,6,0,1,,,,,,,,,,,,,,,,,,,,,,,,,,,,,,,,,,,,,,,,,,,,,,,,,,,,,,,,,,,,,,,,
,,,,,,,,,,00001598050,2020-10-23_17h18.15.704,swahili,2020.2.4,Win32,60,,,,,,,,,,,,,,,,,,,,,,OATH - YAMINI,,,,,,,,,,return,1.101185,7,0,7,0,1,,,,,,,,,,,,,,,,,,,,,,,,,,,,,,,,,,,,,,,,,,,,,,,,,,,,,,,,,,,,,,,,
,,,,,,,,,,00001598050,2020-10-23_17h18.15.704,swahili,2020.2.4,Win32,60,,,,,,,,,,,,,,,,,,,,,,ORPHAN - YATIMA,,,,,,,,,,return,1.14029,8,0,8,0,1,,,,,,,,,,,,,,,,,,,,,,,,,,,,,,,,,,,,,,,,,,,,,,,,,,,,,,,,,,,,,,,,
,,,,,,,,,,00001598050,2020-10-23_17h18.15.704,swahili,2020.2.4,Win32,60,,,,,,,,,,,,,,,,,,,,,,POEM - UTENZI,,,,,,,,,,return,1.084890001,9,0,9,0,1,,,,,,,,,,,,,,,,,,,,,,,,,,,,,,,,,,,,,,,,,,,,,,,,,,,,,,,,,,,,,,,,
,,,,,,,,,,00001598050,2020-10-23_17h18.15.704,swahili,2020.2.4,Win32,60,,,,,,,,,,,,,,,,,,,,,,GRAPES - ZABIBU,,,,,,,,,,return,1.069305001,10,0,10,0,1,,,,,,,,,,,,,,,,,,,,,,,,,,,,,,,,,,,,,,,,,,,,,,,,,,,,,,,,,,,,,,,,
,,,,,,,,,,00001598050,2020-10-23_17h18.15.704,swahili,2020.2.4,Win32,60,,,,,,,,,,,,,,,,,,,,,,AGENT - WAKILI,,,,,,,,,,return,1.480204999,11,0,11,0,1,,,,,,,,,,,,,,,,,,,,,,,,,,,,,,,,,,,,,,,,,,,,,,,,,,,,,,,,,,,,,,,,
,,,,,,,,,,00001598050,2020-10-23_17h18.15.704,swahili,2020.2.4,Win32,60,,,,,,,,,,,,,,,,,,,,,,BLAME - LAWAMA,,,,,,,,,,return,1.187744999,12,0,12,0,1,,,,,,,,,,,,,,,,,,,,,,,,,,,,,,,,,,,,,,,,,,,,,,,,,,,,,,,,,,,,,,,,
,,,,,,,,,,00001598050,2020-10-23_17h18.15.704,swahili,2020.2.4,Win32,60,,,,,,,,,,,,,,,,,,,,,,TAILOR - MSHONI,,,,,,,,,,return,1.238500001,13,0,13,0,1,,,,,,,,,,,,,,,,,,,,,,,,,,,,,,,,,,,,,,,,,,,,,,,,,,,,,,,,,,,,,,,,
,,,,,,,,,,00001598050,2020-10-23_17h18.15.704,swahili,2020.2.4,Win32,60,,,,,,,,,,,,,,,,,,,,,,CORN - NAFAKA,,,,,,,,,,return,0.98491,14,0,14,0,1,,,,,,,,,,,,,,,,,,,,,,,,,,,,,,,,,,,,,,,,,,,,,,,,,,,,,,,,,,,,,,,,
,,,,,,,,,,00001598050,2020-10-23_17h18.15.704,swahili,2020.2.4,Win32,60,,,,,,,,,,,,,,,,,,,,,,TREASURE - DAFINA,,,,,,,,,,return,1.21776,15,0,15,0,1,,,,,,,,,,,,,,,,,,,,,,,,,,,,,,,,,,,,,,,,,,,,,,,,,,,,,,,,,,,,,,,,
,,,,,,,,,,00001598050,2020-10-23_17h18.15.704,swahili,2020.2.4,Win32,60,,,,,,,,,,,,,,,,,,,,,,BOAT - MASHUA,,,,,,,,,,return,1.051475,16,0,16,0,1,,,,,,,,,,,,,,,,,,,,,,,,,,,,,,,,,,,,,,,,,,,,,,,,,,,,,,,,,,,,,,,,
,,,,,,,,,,00001598050,2020-10-23_17h18.15.704,swahili,2020.2.4,Win32,60,,,,,,,,,,,,,,,,,,,,,,DIVORCE - TALAKA,,,,,,,,,,return,1.332880002,17,0,17,0,1,,,,,,,,,,,,,,,,,,,,,,,,,,,,,,,,,,,,,,,,,,,,,,,,,,,,,,,,,,,,,,,,
,,,,,,,,,,00001598050,2020-10-23_17h18.15.704,swahili,2020.2.4,Win32,60,,,,,,,,,,,,,,,,,,,,,,BULL - FAHILI,,,,,,,,,,return,1.16463,18,0,18,0,1,,,,,,,,,,,,,,,,,,,,,,,,,,,,,,,,,,,,,,,,,,,,,,,,,,,,,,,,,,,,,,,,
,,,,,,,,,,00001598050,2020-10-23_17h18.15.704,swahili,2020.2.4,Win32,60,,,,,,,,,,,,,,,,,,,,,,CHEESE - JIBINI,,,,,,,,,,return,1.180794999,19,0,19,0,1,,,,,,,,,,,,,,,,,,,,,,,,,,,,,,,,,,,,,,,,,,,,,,,,,,,,,,,,,,,,,,,,
,,,,,,,,,,00001598050,2020-10-23_17h18.15.704,swahili,2020.2.4,Win32,60,,,,,,,,,,,,,,,,,,,,,,,,,,,,,,,,,,,,,,,,0,0,0,0,1,,,,,,,,,,,,,,,,,,,,,,,,,,,,,,,,,,,,,,,,,,,,,,,,,,,,,,,,,,
,,,,,,,,,,00001598050,2020-10-23_17h18.15.704,swahili,2020.2.4,Win32,60,,,,,,,,,,,,,,,,,,,,,,,,,,,,,,,,,,,,,,,,1,0,1,0,1,,,,,,,,,,,,,,,,,,,,,,,,,,,,,,,,,,,,,,,,,,,,,,,,,,,,,,,,,,
,,,,,,,,,,00001598050,2020-10-23_17h18.15.704,swahili,2020.2.4,Win32,60,,,,,,,,,,,,,,,,,,,,,,,,,,,,,,,,,,,,,,,,,,,,,0,0,0,0,1,,,,,,,,,,,,,,,,,,,,,,,,,,,,,,,,,,,,,,,,,,,,,,,,,,,,,
,,,,,,,,,,00001598050,2020-10-23_17h18.15.704,swahili,2020.2.4,Win32,60,,,,,,,,,,-0.357269484,-0.051512243,1,0,0,1.599955,unsorted_card,0,0,0,0,1,,,,,,,,,,,,,,,,,,,,,,,,,,,,,,,,,,,,,,,,,,,,,,,,,,,,,,,,,,,,,,,,,,,,,,,,,,,,,,,,,
,,,,,,,,,,00001598050,2020-10-23_17h18.15.704,swahili,2020.2.4,Win32,60,,,,,,,,,,0.472517774,-0.019607874,1,0,0,3.363964999,test_pile,1,0,1,0,1,MERCHANT - TAJIRI,,,,,,,,,,,,,,,,,,,,,,,,,,,,,,,,,,,,,,,,,,,,,,,,,,,,,,,,,,,,,,,,,,,,,,,,,,,,,,,,
,,,,,,,,,,00001598050,2020-10-23_17h18.15.704,swahili,2020.2.4,Win32,60,,,,,,,,,,-0.348404236,-0.1259555,1,0,0,0.881109999,unsorted_card,2,0,2,0,1,,,,,,,,,,,,,,,,,,,,,,,,,,,,,,,,,,,,,,,,,,,,,,,,,,,,,,,,,,,,,,,,,,,,,,,,,,,,,,,,,
,,,,,,,,,,00001598050,2020-10-23_17h18.15.704,swahili,2020.2.4,Win32,60,,,,,,,,,,0.646276645,-0.000997039,1,0,0,0.746694999,test_pile,3,0,3,0,1,PARROT - KASUKU,,,,,,,,,,,,,,,,,,,,,,,,,,,,,,,,,,,,,,,,,,,,,,,,,,,,,,,,,,,,,,,,,,,,,,,,,,,,,,,,
,,,,,,,,,,00001598050,2020-10-23_17h18.15.704,swahili,2020.2.4,Win32,60,,,,,,,,,,-0.279255298,-0.032901327,1,0,0,1.362609999,unsorted_card,4,0,4,0,1,,,,,,,,,,,,,,,,,,,,,,,,,,,,,,,,,,,,,,,,,,,,,,,,,,,,,,,,,,,,,,,,,,,,,,,,,,,,,,,,,
,,,,,,,,,,00001598050,2020-10-23_17h18.15.704,swahili,2020.2.4,Win32,60,,,,,,,,,,0.516844125,-0.015619838,1,0,0,1.114085,test_pile,5,0,5,0,1,BULL - FAHILI,,,,,,,,,,,,,,,,,,,,,,,,,,,,,,,,,,,,,,,,,,,,,,,,,,,,,,,,,,,,,,,,,,,,,,,,,,,,,,,,
,,,,,,,,,,00001598050,2020-10-23_17h18.15.704,swahili,2020.2.4,Win32,60,,,,,,,,,,-0.230496431,-0.116650083,1,0,0,0.780270001,unsorted_card,6,0,6,0,1,,,,,,,,,,,,,,,,,,,,,,,,,,,,,,,,,,,,,,,,,,,,,,,,,,,,,,,,,,,,,,,,,,,,,,,,,,,,,,,,,
,,,,,,,,,,00001598050,2020-10-23_17h18.15.704,swahili,2020.2.4,Win32,60,,,,,,,,,,0.510638343,0.022931177,1,0,0,1.064139999,test_pile,7,0,7,0,1,PLATE - SAHANI,,,,,,,,,,,,,,,,,,,,,,,,,,,,,,,,,,,,,,,,,,,,,,,,,,,,,,,,,,,,,,,,,,,,,,,,,,,,,,,,
,,,,,,,,,,00001598050,2020-10-23_17h18.15.704,swahili,2020.2.4,Win32,60,,,,,,,,,,-0.349290761,0.03356594,1,0,0,0.763824999,unsorted_card,8,0,8,0,1,,,,,,,,,,,,,,,,,,,,,,,,,,,,,,,,,,,,,,,,,,,,,,,,,,,,,,,,,,,,,,,,,,,,,,,,,,,,,,,,,
,,,,,,,,,,00001598050,2020-10-23_17h18.15.704,swahili,2020.2.4,Win32,60,,,,,,,,,,0.478723448,0.018943141,1,0,0,1.247640001,test_pile,9,0,9,0,1,YEAST - HAMIRA,,,,,,,,,,,,,,,,,,,,,,,,,,,,,,,,,,,,,,,,,,,,,,,,,,,,,,,,,,,,,,,,,,,,,,,,,,,,,,,,
,,,,,,,,,,00001598050,2020-10-23_17h18.15.704,swahili,2020.2.4,Win32,60,,,,,,,,,,-0.415780124,0.037553976,1,0,0,0.963775,unsorted_card,10,0,10,0,1,,,,,,,,,,,,,,,,,,,,,,,,,,,,,,,,,,,,,,,,,,,,,,,,,,,,,,,,,,,,,,,,,,,,,,,,,,,,,,,,,
,,,,,,,,,,00001598050,2020-10-23_17h18.15.704,swahili,2020.2.4,Win32,60,,,,,,,,,,0.575354765,-0.022266564,1,0,0,1.280695001,test_pile,11,0,11,0,1,BLAME - LAWAMA,,,,,,,,,,,,,,,,,,,,,,,,,,,,,,,,,,,,,,,,,,,,,,,,,,,,,,,,,,,,,,,,,,,,,,,,,,,,,,,,
,,,,,,,,,,00001598050,2020-10-23_17h18.15.704,swahili,2020.2.4,Win32,60,,,,,,,,,,-0.134751747,-0.129943536,1,0,0,0.797254998,unsorted_card,12,0,12,0,1,,,,,,,,,,,,,,,,,,,,,,,,,,,,,,,,,,,,,,,,,,,,,,,,,,,,,,,,,,,,,,,,,,,,,,,,,,,,,,,,,
,,,,,,,,,,00001598050,2020-10-23_17h18.15.704,swahili,2020.2.4,Win32,60,,,,,,,,,,0.531914939,-0.00631442,1,0,0,1.163315,test_pile,13,0,13,0,1,OATH - YAMINI,,,,,,,,,,,,,,,,,,,,,,,,,,,,,,,,,,,,,,,,,,,,,,,,,,,,,,,,,,,,,,,,,,,,,,,,,,,,,,,,
,,,,,,,,,,00001598050,2020-10-23_17h18.15.704,swahili,2020.2.4,Win32,60,,,,,,,,,,-0.532801405,0.058823501,1,0,0,0.73037,unsorted_card,14,0,14,0,1,,,,,,,,,,,,,,,,,,,,,,,,,,,,,,,,,,,,,,,,,,,,,,,,,,,,,,,,,,,,,,,,,,,,,,,,,,,,,,,,,
,,,,,,,,,,00001598050,2020-10-23_17h18.15.704,swahili,2020.2.4,Win32,60,,,,,,,,,,0.462766001,0.097374516,1,0,0,1.647709999,test_pile,15,0,15,0,1,CORN - NAFAKA,,,,,,,,,,,,,,,,,,,,,,,,,,,,,,,,,,,,,,,,,,,,,,,,,,,,,,,,,,,,,,,,,,,,,,,,,,,,,,,,
,,,,,,,,,,00001598050,2020-10-23_17h18.15.704,swahili,2020.2.4,Win32,60,,,,,,,,,,-0.47163119,0.129278804,1,0,0,0.763445001,unsorted_card,16,0,16,0,1,,,,,,,,,,,,,,,,,,,,,,,,,,,,,,,,,,,,,,,,,,,,,,,,,,,,,,,,,,,,,,,,,,,,,,,,,,,,,,,,,
,,,,,,,,,,00001598050,2020-10-23_17h18.15.704,swahili,2020.2.4,Win32,60,,,,,,,,,,0.40248242,0.012296415,1,0,0,1.447485,test_pile,17,0,17,0,1,POEM - UTENZI,,,,,,,,,,,,,,,,,,,,,,,,,,,,,,,,,,,,,,,,,,,,,,,,,,,,,,,,,,,,,,,,,,,,,,,,,,,,,,,,
,,,,,,,,,,00001598050,2020-10-23_17h18.15.704,swahili,2020.2.4,Win32,60,,,,,,,,,,-0.369680832,-0.157859789,1,0,0,3.463855,unsorted_card,18,0,18,0,1,,,,,,,,,,,,,,,,,,,,,,,,,,,,,,,,,,,,,,,,,,,,,,,,,,,,,,,,,,,,,,,,,,,,,,,,,,,,,,,,,
,,,,,,,,,,00001598050,2020-10-23_17h18.15.704,swahili,2020.2.4,Win32,60,,,,,,,,,,0.531028414,-0.023595991,1,0,0,3.145609999,test_pile,19,0,19,0,1,TAILOR - MSHONI,,,,,,,,,,,,,,,,,,,,,,,,,,,,,,,,,,,,,,,,,,,,,,,,,,,,,,,,,,,,,,,,,,,,,,,,,,,,,,,,
,,,,,,,,,,00001598050,2020-10-23_17h18.15.704,swahili,2020.2.4,Win32,60,,,,,,,,,,-0.332446789,-0.018278528,1,0,0,1.529209999,unsorted_card,20,0,20,0,1,,,,,,,,,,,,,,,,,,,,,,,,,,,,,,,,,,,,,,,,,,,,,,,,,,,,,,,,,,,,,,,,,,,,,,,,,,,,,,,,,
,,,,,,,,,,00001598050,2020-10-23_17h18.15.704,swahili,2020.2.4,Win32,60,,,,,,,,,,0.539893663,-0.032901327,1,0,0,4.69792,test_pile,21,0,21,0,1,CHEESE - JIBINI,,,,,,,,,,,,,,,,,,,,,,,,,,,,,,,,,,,,,,,,,,,,,,,,,,,,,,,,,,,,,,,,,,,,,,,,,,,,,,,,
,,,,,,,,,,00001598050,2020-10-23_17h18.15.704,swahili,2020.2.4,Win32,60,,,,,,,,,,-0.35638296,0.006979033,1,0,0,0.744990001,unsorted_card,22,0,22,0,1,,,,,,,,,,,,,,,,,,,,,,,,,,,,,,,,,,,,,,,,,,,,,,,,,,,,,,,,,,,,,,,,,,,,,,,,,,,,,,,,,
,,,,,,,,,,00001598050,2020-10-23_17h18.15.704,swahili,2020.2.4,Win32,60,,,,,,,,,,0.480496498,-0.051512243,1,0,0,1.380815001,test_pile,23,0,23,0,1,GRAPES - ZABIBU,,,,,,,,,,,,,,,,,,,,,,,,,,,,,,,,,,,,,,,,,,,,,,,,,,,,,,,,,,,,,,,,,,,,,,,,,,,,,,,,
,,,,,,,,,,00001598050,2020-10-23_17h18.15.704,swahili,2020.2.4,Win32,60,,,,,,,,,,-0.182624089,0.064140883,1,0,0,0.612840001,unsorted_card,24,0,24,0,1,,,,,,,,,,,,,,,,,,,,,,,,,,,,,,,,,,,,,,,,,,,,,,,,,,,,,,,,,,,,,,,,,,,,,,,,,,,,,,,,,
,,,,,,,,,,00001598050,2020-10-23_17h18.15.704,swahili,2020.2.4,Win32,60,,,,,,,,,,0.554078169,0.005649688,1,0,0,1.815880001,test_pile,25,0,25,0,1,GRAVE - KABURI,,,,,,,,,,,,,,,,,,,,,,,,,,,,,,,,,,,,,,,,,,,,,,,,,,,,,,,,,,,,,,,,,,,,,,,,,,,,,,,,
,,,,,,,,,,00001598050,2020-10-23_17h18.15.704,swahili,2020.2.4,Win32,60,,,,,,,,,,-0.304964518,-0.039548135,1,0,0,0.996359998,unsorted_card,26,0,26,0,1,,,,,,,,,,,,,,,,,,,,,,,,,,,,,,,,,,,,,,,,,,,,,,,,,,,,,,,,,,,,,,,,,,,,,,,,,,,,,,,,,
,,,,,,,,,,00001598050,2020-10-23_17h18.15.704,swahili,2020.2.4,Win32,60,,,,,,,,,,0.603723452,0.040212667,1,0,0,1.881689999,test_pile,27,0,27,0,1,MANURE - SAMADI,,,,,,,,,,,,,,,,,,,,,,,,,,,,,,,,,,,,,,,,,,,,,,,,,,,,,,,,,,,,,,,,,,,,,,,,,,,,,,,,
,,,,,,,,,,00001598050,2020-10-23_17h18.15.704,swahili,2020.2.4,Win32,60,,,,,,,,,,-0.339538987,0.100033207,1,0,0,0.87922,unsorted_card,28,0,28,0,1,,,,,,,,,,,,,,,,,,,,,,,,,,,,,,,,,,,,,,,,,,,,,,,,,,,,,,,,,,,,,,,,,,,,,,,,,,,,,,,,,
,,,,,,,,,,00001598050,2020-10-23_17h18.15.704,swahili,2020.2.4,Win32,60,,,,,,,,,,0.562056892,0.014955105,1,0,0,1.514419999,test_pile,29,0,29,0,1,AGENT - WAKILI,,,,,,,,,,,,,,,,,,,,,,,,,,,,,,,,,,,,,,,,,,,,,,,,,,,,,,,,,,,,,,,,,,,,,,,,,,,,,,,,
,,,,,,,,,,00001598050,2020-10-23_17h18.15.704,swahili,2020.2.4,Win32,60,,,,,,,,,,-0.187943238,0.050847429,1,0,0,0.93022,unsorted_card,30,0,30,0,1,,,,,,,,,,,,,,,,,,,,,,,,,,,,,,,,,,,,,,,,,,,,,,,,,,,,,,,,,,,,,,,,,,,,,,,,,,,,,,,,,
,,,,,,,,,,00001598050,2020-10-23_17h18.15.704,swahili,2020.2.4,Win32,60,,,,,,,,,,0.495567529,0.05350612,1,0,0,1.180214999,test_pile,31,0,31,0,1,BRIBE - RUSHWA,,,,,,,,,,,,,,,,,,,,,,,,,,,,,,,,,,,,,,,,,,,,,,,,,,,,,,,,,,,,,,,,,,,,,,,,,,,,,,,,
,,,,,,,,,,00001598050,2020-10-23_17h18.15.704,swahili,2020.2.4,Win32,60,,,,,,,,,,-0.261524747,0.070787609,1,0,0,0.763865,unsorted_card,32,0,32,0,1,,,,,,,,,,,,,,,,,,,,,,,,,,,,,,,,,,,,,,,,,,,,,,,,,,,,,,,,,,,,,,,,,,,,,,,,,,,,,,,,,
,,,,,,,,,,00001598050,2020-10-23_17h18.15.704,swahili,2020.2.4,Win32,60,,,,,,,,,,0.560283734,-0.014290492,1,0,0,1.047414999,test_pile,33,0,33,0,1,ORPHAN - YATIMA,,,,,,,,,,,,,,,,,,,,,,,,,,,,,,,,,,,,,,,,,,,,,,,,,,,,,,,,,,,,,,,,,,,,,,,,,,,,,,,,
,,,,,,,,,,00001598050,2020-10-23_17h18.15.704,swahili,2020.2.4,Win32,60,,,,,,,,,,-0.29255317,0.05350612,1,0,0,0.879830001,unsorted_card,34,0,34,0,1,,,,,,,,,,,,,,,,,,,,,,,,,,,,,,,,,,,,,,,,,,,,,,,,,,,,,,,,,,,,,,,,,,,,,,,,,,,,,,,,,
,,,,,,,,,,00001598050,2020-10-23_17h18.15.704,swahili,2020.2.4,Win32,60,,,,,,,,,,0.6161348,0.041542012,1,0,0,1.247959999,test_pile,35,0,35,0,1,DIVORCE - TALAKA,,,,,,,,,,,,,,,,,,,,,,,,,,,,,,,,,,,,,,,,,,,,,,,,,,,,,,,,,,,,,,,,,,,,,,,,,,,,,,,,
,,,,,,,,,,00001598050,2020-10-23_17h18.15.704,swahili,2020.2.4,Win32,60,,,,,,,,,,-0.200354532,0.001661652,1,0,0,0.78025,unsorted_card,36,0,36,0,1,,,,,,,,,,,,,,,,,,,,,,,,,,,,,,,,,,,,,,,,,,,,,,,,,,,,,,,,,,,,,,,,,,,,,,,,,,,,,,,,,
,,,,,,,,,,00001598050,2020-10-23_17h18.15.704,swahili,2020.2.4,Win32,60,,,,,,,,,,0.476950507,-0.0262546,1,0,0,1.131045001,test_pile,37,0,37,0,1,BOAT - MASHUA,,,,,,,,,,,,,,,,,,,,,,,,,,,,,,,,,,,,,,,,,,,,,,,,,,,,,,,,,,,,,,,,,,,,,,,,,,,,,,,,
,,,,,,,,,,00001598050,2020-10-23_17h18.15.704,swahili,2020.2.4,Win32,60,,,,,,,,,,-0.406028351,0.010967069,1,0,0,0.713865001,unsorted_card,38,0,38,0,1,,,,,,,,,,,,,,,,,,,,,,,,,,,,,,,,,,,,,,,,,,,,,,,,,,,,,,,,,,,,,,,,,,,,,,,,,,,,,,,,,
,,,,,,,,,,00001598050,2020-10-23_17h18.15.704,swahili,2020.2.4,Win32,60,,,,,,,,,,0.483156073,0.024260523,1,0,0,1.281084999,test_pile,39,0,39,0,1,TREASURE - DAFINA,,,,,,,,,,,,,,,,,,,,,,,,,,,,,,,,,,,,,,,,,,,,,,,,,,,,,,,,,,,,,,,,,,,,,,,,,,,,,,,,
,,,,,,,,,,00001598050,2020-10-23_17h18.15.704,swahili,2020.2.4,Win32,60,,,,,,,,,,,,,,,,,,,,,,,,,,,,,,,,,,0,0,0,0,1,,,,,,,,,,,,,,,,,,,,,,,,,,,,,,,,,,,,,,,,,,,,,,,,,,,,,,,,,,,,,,,,
,,,,,,,,,,00001598050,2020-10-23_17h18.15.704,swahili,2020.2.4,Win32,60,,,,,,,,,,,,,,,,,,,,,,,,,,,,,,,,,,,,,,,return,,,,,,,,,,,2.82601,4.745035,0.414893659,0.044200703,1,0,0,1.781305,yes,OATH,LAMAWA,incorrect,0,0,0,0,1,,,,,,,,,,,,,,,,,,,,,,,,,,,,,,,,,,,,
,,,,,,,,,,00001598050,2020-10-23_17h18.15.704,swahili,2020.2.4,Win32,60,,,,,,,,,,,,,,,,,,,,,,,,,,,,,,,,,,,,,,,,,,,,,,,,,,,4.863144999,0.414893659,0.044200703,1,0,0,0.733885,yes,AGENT,WAKIWI,incorrect,1,0,1,0,1,,,,,,,,,,,,,,,,,,,,,,,,,,,,,,,,,,,,
,,,,,,,,,,00001598050,2020-10-23_17h18.15.704,swahili,2020.2.4,Win32,60,,,,,,,,,,,,,,,,,,,,,,,,,,,,,,,,,,,,,,,,,,,,,,,,,,,3.912705,0.46099306,-0.040877399,1,0,0,1.083699999,yes,BLAME,LAMAWA,incorrect,2,0,2,0,1,,,,,,,,,,,,,,,,,,,,,,,,,,,,,,,,,,,,
,,,,,,,,,,00001598050,2020-10-23_17h18.15.704,swahili,2020.2.4,Win32,60,,,,,,,,,,,,,,,,,,,,,,,,,,,,,,,,,,,,,,,,,,,,,,,,,,,2.163604999,0.355496494,-0.127284927,1,0,0,0.950139999,yes,CHEESE,JIBIRI,incorrect,3,0,3,0,1,,,,,,,,,,,,,,,,,,,,,,,,,,,,,,,,,,,,
,,,,,,,,,,00001598050,2020-10-23_17h18.15.704,swahili,2020.2.4,Win32,60,,,,,,,,,,,,,,,,,,,,,,,,,,,,,,,,,,,,,,,,,,,,,,,,,,,5.61349,0.453900753,-0.107344747,1,0,0,1.15009,yes,BOAT,TA,incorrect,4,0,4,0,1,,,,,,,,,,,,,,,,,,,,,,,,,,,,,,,,,,,,
,,,,,,,,,,00001598050,2020-10-23_17h18.15.704,swahili,2020.2.4,Win32,60,,,,,,,,,,,,,,,,,,,,,,,,,,,,,,,,,,,,,,,,,,,,,,,,,,,4.046615001,0.542553237,-0.063476351,1,0,0,1.083795,yes,CORN,TABULA,incorrect,5,0,5,0,1,,,,,,,,,,,,,,,,,,,,,,,,,,,,,,,,,,,,
,,,,,,,,,,00001598050,2020-10-23_17h18.15.704,swahili,2020.2.4,Win32,60,,,,,,,,,,,,,,,,,,,,,,,,,,,,,,,,,,,,,,,,,,,,,,,,,,,2.413454998,-0.348404236,-0.096709903,1,0,0,1.21693,no,MANURE,SAMADI,incorrect,6,0,6,0,1,,,,,,,,,,,,,,,,,,,,,,,,,,,,,,,,,,,,
,,,,,,,,,,00001598050,2020-10-23_17h18.15.704,swahili,2020.2.4,Win32,60,,,,,,,,,,,,,,,,,,,,,,,,,,,,,,,,,,,,,,,,,,,,,,,,,,,6.52775,0.527482423,-0.024925255,1,0,0,1.150984999,yes,GRAVE,MA,incorrect,7,0,7,0,1,,,,,,,,,,,,,,,,,,,,,,,,,,,,,,,,,,,,
,,,,,,,,,,00001598050,2020-10-23_17h18.15.704,swahili,2020.2.4,Win32,60,,,,,,,,,,,,,,,,,,,,,,,,,,,,,,,,,,,,,,,,,,,,,,,,,,,5.680034999,0.378546249,-0.117979428,1,0,0,1.084055001,yes,PARROT,KATAWA,incorrect,8,0,8,0,1,,,,,,,,,,,,,,,,,,,,,,,,,,,,,,,,,,,,
,,,,,,,,,,00001598050,2020-10-23_17h18.15.704,swahili,2020.2.4,Win32,60,,,,,,,,,,,,,,,,,,,,,,,,,,,,,,,,,,,,,,,,,,,,,,,,,,,5.429395,0.410461143,-0.163177251,1,0,0,1.067120001,yes,BULL,JUBUIR,incorrect,9,0,9,0,1,,,,,,,,,,,,,,,,,,,,,,,,,,,,,,,,,,,,
,,,,,,,,,,00001598050,2020-10-23_17h18.15.704,swahili,2020.2.4,Win32,60,,,,,,,,,,,,,,,,,,,,,,,,,,,,,,,,,,,,,,,,,,,,,,,,,,,2.36252,0.393617063,-0.168494551,1,0,0,0.983695,yes,ORPHAN,YATIMA,incorrect,10,0,10,0,1,,,,,,,,,,,,,,,,,,,,,,,,,,,,,,,,,,,,
,,,,,,,,,,00001598050,2020-10-23_17h18.15.704,swahili,2020.2.4,Win32,60,,,,,,,,,,,,,,,,,,,,,,,,,,,,,,,,,,,,,,,,,,,,,,,,,,,8.263474999,0.456560327,-0.031572063,1,0,0,0.950195001,yes,POEM,MSHOU,incorrect,11,0,11,0,1,,,,,,,,,,,,,,,,,,,,,,,,,,,,,,,,,,,,
,,,,,,,,,,00001598050,2020-10-23_17h18.15.704,swahili,2020.2.4,Win32,60,,,,,,,,,,,,,,,,,,,,,,,,,,,,,,,,,,,,,,,,,,,,,,,,,,,2.528725,0.49911352,0.074775645,1,0,0,0.93344,yes,PLATE,S,incorrect,12,0,12,0,1,,,,,,,,,,,,,,,,,,,,,,,,,,,,,,,,,,,,
,,,,,,,,,,00001598050,2020-10-23_17h18.15.704,swahili,2020.2.4,Win32,60,,,,,,,,,,,,,,,,,,,,,,,,,,,,,,,,,,,,,,,,,,,,,,,,,,,3.063509999,0.44060288,-0.112662047,1,0,0,1.13376,yes,DIVORCE,TALAWA,incorrect,13,0,13,0,1,,,,,,,,,,,,,,,,,,,,,,,,,,,,,,,,,,,,
,,,,,,,,,,00001598050,2020-10-23_17h18.15.704,swahili,2020.2.4,Win32,60,,,,,,,,,,,,,,,,,,,,,,,,,,,,,,,,,,,,,,,,,,,,,,,,,,,4.998995,0.511524976,-0.117979428,1,0,0,0.96706,yes,BRIBE,MSHOU,incorrect,14,0,14,0,1,,,,,,,,,,,,,,,,,,,,,,,,,,,,,,,,,,,,
,,,,,,,,,,00001598050,2020-10-23_17h18.15.704,swahili,2020.2.4,Win32,60,,,,,,,,,,,,,,,,,,,,,,,,,,,,,,,,,,,,,,,,,,,,,,,,,,,3.346205,0.564716467,-0.00631442,1,0,0,0.917174999,yes,MERCHANT,SAD,incorrect,15,0,15,0,1,,,,,,,,,,,,,,,,,,,,,,,,,,,,,,,,,,,,
,,,,,,,,,,00001598050,2020-10-23_17h18.15.704,swahili,2020.2.4,Win32,60,,,,,,,,,,,,,,,,,,,,,,,,,,,,,,,,,,,,,,,,,,,,,,,,,,,4.697039999,0.592198629,0.275506791,1,0,0,0.95025,yes,TREASURE,MAJIWA,incorrect,16,0,16,0,1,,,,,,,,,,,,,,,,,,,,,,,,,,,,,,,,,,,,
,,,,,,,,,,00001598050,2020-10-23_17h18.15.704,swahili,2020.2.4,Win32,60,,,,,,,,,,,,,,,,,,,,,,,,,,,,,,,,,,,,,,,,,,,,,,,,,,,5.013309998,0.347517771,-0.185776041,1,0,0,0.900320001,yes,GRAPES,MINUZU,incorrect,17,0,17,0,1,,,,,,,,,,,,,,,,,,,,,,,,,,,,,,,,,,,,
,,,,,,,,,,00001598050,2020-10-23_17h18.15.704,swahili,2020.2.4,Win32,60,,,,,,,,,,,,,,,,,,,,,,,,,,,,,,,,,,,,,,,,,,,,,,,,,,,2.797,0.500000045,0.179793927,1,0,0,0.950245,yes,YEAST,ASD,incorrect,18,0,18,0,1,,,,,,,,,,,,,,,,,,,,,,,,,,,,,,,,,,,,
,,,,,,,,,,00001598050,2020-10-23_17h18.15.704,swahili,2020.2.4,Win32,60,,,,,,,,,,,,,,,,,,,,,,,,,,,,,,,,,,,,,,,,,,,,,,,,,,,2.380030001,0.317375926,0.041542012,1,0,0,1.717095001,yes,TAILOR,K,incorrect,19,0,19,0,1,,,,,,,,,,,,,,,,,,,,,,,,,,,,,,,,,,,,
,,,,,,,,,,00001598050,2020-10-23_17h18.15.704,swahili,2020.2.4,Win32,60,,,,,,,,,,,,,,,,,,,,,,,,,,,,,,,,,,,,,,,,0,0,0,0,1,,,,,,,,,,,,,,,,,,,,,,,,,,,,,,,,,,,,,,,,,,,,,,,,,,,,,,,,,,
,,,,,,,,,,00001598050,2020-10-23_17h18.15.704,swahili,2020.2.4,Win32,60,,,,,,,,,,,,,,,,,,,,,,,,,,,,,,,,,,,,,,,,1,0,1,0,1,,,,,,,,,,,,,,,,,,,,,,,,,,,,,,,,,,,,,,,,,,,,,,,,,,,,,,,,,,
,,,,,,,,,,00001598050,2020-10-23_17h18.15.704,swahili,2020.2.4,Win32,60,,,,,,,,,,,,,,,,,,,,,,,,,,,,,,,,,,,,,,,,,,,,,1,0,1,0,1,,,,,,,,,,,,,,,,,,,,,,,,,,,,,,,,,,,,,,,,,,,,,,,,,,,,,
,,,,,,,,,,00001598050,2020-10-23_17h18.15.704,swahili,2020.2.4,Win32,60,,,,,,,,,,-0.374113457,-0.063476351,1,0,0,1.864604998,unsorted_card,0,0,0,0,1,,,,,,,,,,,,,,,,,,,,,,,,,,,,,,,,,,,,,,,,,,,,,,,,,,,,,,,,,,,,,,,,,,,,,,,,,,,,,,,,,
,,,,,,,,,,00001598050,2020-10-23_17h18.15.704,swahili,2020.2.4,Win32,60,,,,,,,,,,-0.374113457,-0.063476351,1,0,0,2.61348,unsorted_card,1,0,1,0,1,MERCHANT - TAJIRI,,,,,,,,,,,,,,,,,,,,,,,,,,,,,,,,,,,,,,,,,,,,,,,,,,,,,,,,,,,,,,,,,,,,,,,,,,,,,,,,
,,,,,,,,,,00001598050,2020-10-23_17h18.15.704,swahili,2020.2.4,Win32,60,,,,,,,,,,0.523049691,0.497507463,1,0,0,3.23088,study_pile,2,0,2,0,1,MERCHANT - TAJIRI,,,,,,,,,,,,,,,,,,,,,,,,,,,,,,,,,,,,,,,,,,,,,,,,,,,,,,,,,,,,,,,,,,,,,,,,,,,,,,,,
,,,,,,,,,,00001598050,2020-10-23_17h18.15.704,swahili,2020.2.4,Win32,60,,,,,,,,,,-0.333333313,-0.185776041,1,0,0,1.347315,unsorted_card,3,0,3,0,1,,,,,,,,,,,,,,,,,,,,,,,,,,,,,,,,,,,,,,,,,,,,,,,,,,,,,,,,,,,,,,,,,,,,,,,,,,,,,,,,,
,,,,,,,,,,00001598050,2020-10-23_17h18.15.704,swahili,2020.2.4,Win32,60,,,,,,,,,,0.570922033,0.578597528,1,0,0,4.314379999,study_pile,4,0,4,0,1,PARROT - KASUKU,,,,,,,,,,,,,,,,,,,,,,,,,,,,,,,,,,,,,,,,,,,,,,,,,,,,,,,,,,,,,,,,,,,,,,,,,,,,,,,,
,,,,,,,,,,00001598050,2020-10-23_17h18.15.704,swahili,2020.2.4,Win32,60,,,,,,,,,,-0.428191472,0.016284451,1,0,0,1.07942,unsorted_card,5,0,5,0,1,,,,,,,,,,,,,,,,,,,,,,,,,,,,,,,,,,,,,,,,,,,,,,,,,,,,,,,,,,,,,,,,,,,,,,,,,,,,,,,,,
,,,,,,,,,,00001598050,2020-10-23_17h18.15.704,swahili,2020.2.4,Win32,60,,,,,,,,,,0.601063878,0.005649688,1,0,0,2.94806,test_pile,6,0,6,0,1,BULL - FAHILI,,,,,,,,,,,,,,,,,,,,,,,,,,,,,,,,,,,,,,,,,,,,,,,,,,,,,,,,,,,,,,,,,,,,,,,,,,,,,,,,
,,,,,,,,,,00001598050,2020-10-23_17h18.15.704,swahili,2020.2.4,Win32,60,,,,,,,,,,-0.314716238,-0.102027284,1,0,0,1.06422,unsorted_card,7,0,7,0,1,,,,,,,,,,,,,,,,,,,,,,,,,,,,,,,,,,,,,,,,,,,,,,,,,,,,,,,,,,,,,,,,,,,,,,,,,,,,,,,,,
,,,,,,,,,,00001598050,2020-10-23_17h18.15.704,swahili,2020.2.4,Win32,60,,,,,,,,,,0.60726966,0.50681288,1,0,0,4.21473,study_pile,8,0,8,0,1,PLATE - SAHANI,,,,,,,,,,,,,,,,,,,,,,,,,,,,,,,,,,,,,,,,,,,,,,,,,,,,,,,,,,,,,,,,,,,,,,,,,,,,,,,,
,,,,,,,,,,00001598050,2020-10-23_17h18.15.704,swahili,2020.2.4,Win32,60,,,,,,,,,,-0.349290761,-0.035560099,1,0,0,1.27908,unsorted_card,9,0,9,0,1,,,,,,,,,,,,,,,,,,,,,,,,,,,,,,,,,,,,,,,,,,,,,,,,,,,,,,,,,,,,,,,,,,,,,,,,,,,,,,,,,
,,,,,,,,,,00001598050,2020-10-23_17h18.15.704,swahili,2020.2.4,Win32,60,,,,,,,,,,0.512411393,0.40711198,1,0,0,3.498199999,study_pile,10,0,10,0,1,YEAST - HAMIRA,,,,,,,,,,,,,,,,,,,,,,,,,,,,,,,,,,,,,,,,,,,,,,,,,,,,,,,,,,,,,,,,,,,,,,,,,,,,,,,,
,,,,,,,,,,00001598050,2020-10-23_17h18.15.704,swahili,2020.2.4,Win32,60,,,,,,,,,,-0.40957445,0.010967069,1,0,0,1.146840001,unsorted_card,11,0,11,0,1,,,,,,,,,,,,,,,,,,,,,,,,,,,,,,,,,,,,,,,,,,,,,,,,,,,,,,,,,,,,,,,,,,,,,,,,,,,,,,,,,
,,,,,,,,,,00001598050,2020-10-23_17h18.15.704,swahili,2020.2.4,Win32,60,,,,,,,,,,0.502659619,0.001661652,1,0,0,4.230119999,test_pile,12,0,12,0,1,BLAME - LAWAMA,,,,,,,,,,,,,,,,,,,,,,,,,,,,,,,,,,,,,,,,,,,,,,,,,,,,,,,,,,,,,,,,,,,,,,,,,,,,,,,,
,,,,,,,,,,00001598050,2020-10-23_17h18.15.704,swahili,2020.2.4,Win32,60,,,,,,,,,,-0.400709202,-0.137919609,1,0,0,1.07982,unsorted_card,13,0,13,0,1,,,,,,,,,,,,,,,,,,,,,,,,,,,,,,,,,,,,,,,,,,,,,,,,,,,,,,,,,,,,,,,,,,,,,,,,,,,,,,,,,
,,,,,,,,,,00001598050,2020-10-23_17h18.15.704,swahili,2020.2.4,Win32,60,,,,,,,,,,0.570922033,0.42971085,1,0,0,3.684149999,study_pile,14,0,14,0,1,OATH - YAMINI,,,,,,,,,,,,,,,,,,,,,,,,,,,,,,,,,,,,,,,,,,,,,,,,,,,,,,,,,,,,,,,,,,,,,,,,,,,,,,,,
,,,,,,,,,,00001598050,2020-10-23_17h18.15.704,swahili,2020.2.4,Win32,60,,,,,,,,,,-0.401595727,-0.039548135,1,0,0,1.25859,unsorted_card,15,0,15,0,1,,,,,,,,,,,,,,,,,,,,,,,,,,,,,,,,,,,,,,,,,,,,,,,,,,,,,,,,,,,,,,,,,,,,,,,,,,,,,,,,,
,,,,,,,,,,00001598050,2020-10-23_17h18.15.704,swahili,2020.2.4,Win32,60,,,,,,,,,,0.447695187,-0.016949183,1,0,0,2.964769999,test_pile,16,0,16,0,1,CORN - NAFAKA,,,,,,,,,,,,,,,,,,,,,,,,,,,,,,,,,,,,,,,,,,,,,,,,,,,,,,,,,,,,,,,,,,,,,,,,,,,,,,,,
,,,,,,,,,,00001598050,2020-10-23_17h18.15.704,swahili,2020.2.4,Win32,60,,,,,,,,,,-0.371453882,0.050847429,1,0,0,1.197914999,unsorted_card,17,0,17,0,1,,,,,,,,,,,,,,,,,,,,,,,,,,,,,,,,,,,,,,,,,,,,,,,,,,,,,,,,,,,,,,,,,,,,,,,,,,,,,,,,,
,,,,,,,,,,00001598050,2020-10-23_17h18.15.704,swahili,2020.2.4,Win32,60,,,,,,,,,,0.412234085,0.046859393,1,0,0,2.664814999,test_pile,18,0,18,0,1,POEM - UTENZI,,,,,,,,,,,,,,,,,,,,,,,,,,,,,,,,,,,,,,,,,,,,,,,,,,,,,,,,,,,,,,,,,,,,,,,,,,,,,,,,
,,,,,,,,,,00001598050,2020-10-23_17h18.15.704,swahili,2020.2.4,Win32,60,,,,,,,,,,-0.44414892,-0.132602227,1,0,0,0.98071,unsorted_card,19,0,19,0,1,,,,,,,,,,,,,,,,,,,,,,,,,,,,,,,,,,,,,,,,,,,,,,,,,,,,,,,,,,,,,,,,,,,,,,,,,,,,,,,,,
,,,,,,,,,,00001598050,2020-10-23_17h18.15.704,swahili,2020.2.4,Win32,60,,,,,,,,,,0.513297917,0.420405392,1,0,0,3.397925001,study_pile,20,0,20,0,1,TAILOR - MSHONI,,,,,,,,,,,,,,,,,,,,,,,,,,,,,,,,,,,,,,,,,,,,,,,,,,,,,,,,,,,,,,,,,,,,,,,,,,,,,,,,
,,,,,,,,,,00001598050,2020-10-23_17h18.15.704,swahili,2020.2.4,Win32,60,,,,,,,,,,-0.426418423,-0.082087104,1,0,0,0.781135,unsorted_card,21,0,21,0,1,,,,,,,,,,,,,,,,,,,,,,,,,,,,,,,,,,,,,,,,,,,,,,,,,,,,,,,,,,,,,,,,,,,,,,,,,,,,,,,,,
,,,,,,,,,,00001598050,2020-10-23_17h18.15.704,swahili,2020.2.4,Win32,60,,,,,,,,,,0.521276641,-0.047524207,1,0,0,3.098300001,test_pile,22,0,22,0,1,CHEESE - JIBINI,,,,,,,,,,,,,,,,,,,,,,,,,,,,,,,,,,,,,,,,,,,,,,,,,,,,,,,,,,,,,,,,,,,,,,,,,,,,,,,,
,,,,,,,,,,00001598050,2020-10-23_17h18.15.704,swahili,2020.2.4,Win32,60,,,,,,,,,,-0.275709198,-0.036889363,1,0,0,0.797120001,unsorted_card,23,0,23,0,1,,,,,,,,,,,,,,,,,,,,,,,,,,,,,,,,,,,,,,,,,,,,,,,,,,,,,,,,,,,,,,,,,,,,,,,,,,,,,,,,,
,,,,,,,,,,00001598050,2020-10-23_17h18.15.704,swahili,2020.2.4,Win32,60,,,,,,,,,,0.384751814,0.478896628,1,0,0,3.031445,study_pile,24,0,24,0,1,GRAPES - ZABIBU,,,,,,,,,,,,,,,,,,,,,,,,,,,,,,,,,,,,,,,,,,,,,,,,,,,,,,,,,,,,,,,,,,,,,,,,,,,,,,,,
,,,,,,,,,,00001598050,2020-10-23_17h18.15.704,swahili,2020.2.4,Win32,60,,,,,,,,,,-0.402482252,-0.030242636,1,0,0,1.398530001,unsorted_card,25,0,25,0,1,,,,,,,,,,,,,,,,,,,,,,,,,,,,,,,,,,,,,,,,,,,,,,,,,,,,,,,,,,,,,,,,,,,,,,,,,,,,,,,,,
,,,,,,,,,,00001598050,2020-10-23_17h18.15.704,swahili,2020.2.4,Win32,60,,,,,,,,,,0.320035488,-0.40245937,1,0,0,2.396915,done_pile,26,0,26,0,1,GRAVE - KABURI,,,,,,,,,,,,,,,,,,,,,,,,,,,,,,,,,,,,,,,,,,,,,,,,,,,,,,,,,,,,,,,,,,,,,,,,,,,,,,,,
,,,,,,,,,,00001598050,2020-10-23_17h18.15.704,swahili,2020.2.4,Win32,60,,,,,,,,,,0.42287234,-0.552675348,1,0,0,2.332939999,done_pile,27,0,27,0,1,,,,,,,,,,,,,,,,,,,,,,,,,,,,,,,,,,,,,,,,,,,,,,,,,,,,,,,,,,,,,,,,,,,,,,,,,,,,,,,,,
,,,,,,,,,,00001598050,2020-10-23_17h18.15.704,swahili,2020.2.4,Win32,60,,,,,,,,,,0.414893617,0.53074109,1,0,0,0.948814999,study_pile,28,0,28,0,1,,,,,,,,,,,,,,,,,,,,,,,,,,,,,,,,,,,,,,,,,,,,,,,,,,,,,,,,,,,,,,,,,,,,,,,,,,,,,,,,,
,,,,,,,,,,00001598050,2020-10-23_17h18.15.704,swahili,2020.2.4,Win32,60,,,,,,,,,,-0.388297854,-0.078099068,1,0,0,1.949309999,unsorted_card,29,0,29,0,1,,,,,,,,,,,,,,,,,,,,,,,,,,,,,,,,,,,,,,,,,,,,,,,,,,,,,,,,,,,,,,,,,,,,,,,,,,,,,,,,,
,,,,,,,,,,00001598050,2020-10-23_17h18.15.704,swahili,2020.2.4,Win32,60,,,,,,,,,,0.621453949,-0.004985075,1,0,0,2.84763,test_pile,30,0,30,0,1,MANURE - SAMADI,,,,,,,,,,,,,,,,,,,,,,,,,,,,,,,,,,,,,,,,,,,,,,,,,,,,,,,,,,,,,,,,,,,,,,,,,,,,,,,,
,,,,,,,,,,00001598050,2020-10-23_17h18.15.704,swahili,2020.2.4,Win32,60,,,,,,,,,,-0.347517711,0.080093027,1,0,0,0.897104999,unsorted_card,31,0,31,0,1,,,,,,,,,,,,,,,,,,,,,,,,,,,,,,,,,,,,,,,,,,,,,,,,,,,,,,,,,,,,,,,,,,,,,,,,,,,,,,,,,
,,,,,,,,,,00001598050,2020-10-23_17h18.15.704,swahili,2020.2.4,Win32,60,,,,,,,,,,0.471631358,-0.050182816,1,0,0,3.99794,test_pile,32,0,32,0,1,AGENT - WAKILI,,,,,,,,,,,,,,,,,,,,,,,,,,,,,,,,,,,,,,,,,,,,,,,,,,,,,,,,,,,,,,,,,,,,,,,,,,,,,,,,
,,,,,,,,,,00001598050,2020-10-23_17h18.15.704,swahili,2020.2.4,Win32,60,,,,,,,,,,-0.401595727,-0.015619838,1,0,0,1.079519998,unsorted_card,33,0,33,0,1,,,,,,,,,,,,,,,,,,,,,,,,,,,,,,,,,,,,,,,,,,,,,,,,,,,,,,,,,,,,,,,,,,,,,,,,,,,,,,,,,
,,,,,,,,,,00001598050,2020-10-23_17h18.15.704,swahili,2020.2.4,Win32,60,,,,,,,,,,0.478723448,0.008308379,1,0,0,2.26427,test_pile,34,0,34,0,1,BRIBE - RUSHWA,,,,,,,,,,,,,,,,,,,,,,,,,,,,,,,,,,,,,,,,,,,,,,,,,,,,,,,,,,,,,,,,,,,,,,,,,,,,,,,,
,,,,,,,,,,00001598050,2020-10-23_17h18.15.704,swahili,2020.2.4,Win32,60,,,,,,,,,,-0.388297854,0.020272487,1,0,0,0.864085,unsorted_card,35,0,35,0,1,,,,,,,,,,,,,,,,,,,,,,,,,,,,,,,,,,,,,,,,,,,,,,,,,,,,,,,,,,,,,,,,,,,,,,,,,,,,,,,,,
,,,,,,,,,,00001598050,2020-10-23_17h18.15.704,swahili,2020.2.4,Win32,60,,,,,,,,,,0.503546252,-0.007643765,1,0,0,2.597620001,test_pile,36,0,36,0,1,ORPHAN - YATIMA,,,,,,,,,,,,,,,,,,,,,,,,,,,,,,,,,,,,,,,,,,,,,,,,,,,,,,,,,,,,,,,,,,,,,,,,,,,,,,,,
,,,,,,,,,,00001598050,2020-10-23_17h18.15.704,swahili,2020.2.4,Win32,60,,,,,,,,,,-0.32712764,-0.040877399,1,0,0,0.79724,unsorted_card,37,0,37,0,1,,,,,,,,,,,,,,,,,,,,,,,,,,,,,,,,,,,,,,,,,,,,,,,,,,,,,,,,,,,,,,,,,,,,,,,,,,,,,,,,,
,,,,,,,,,,00001598050,2020-10-23_17h18.15.704,swahili,2020.2.4,Win32,60,,,,,,,,,,0.626773098,0.577268183,1,0,0,2.33092,study_pile,38,0,38,0,1,DIVORCE - TALAKA,,,,,,,,,,,,,,,,,,,,,,,,,,,,,,,,,,,,,,,,,,,,,,,,,,,,,,,,,,,,,,,,,,,,,,,,,,,,,,,,
,,,,,,,,,,00001598050,2020-10-23_17h18.15.704,swahili,2020.2.4,Win32,60,,,,,,,,,,-0.372340407,0.020272487,1,0,0,0.87844,unsorted_card,39,0,39,0,1,,,,,,,,,,,,,,,,,,,,,,,,,,,,,,,,,,,,,,,,,,,,,,,,,,,,,,,,,,,,,,,,,,,,,,,,,,,,,,,,,
,,,,,,,,,,00001598050,2020-10-23_17h18.15.704,swahili,2020.2.4,Win32,60,,,,,,,,,,0.500886678,0.509471571,1,0,0,2.348030001,study_pile,40,0,40,0,1,BOAT - MASHUA,,,,,,,,,,,,,,,,,,,,,,,,,,,,,,,,,,,,,,,,,,,,,,,,,,,,,,,,,,,,,,,,,,,,,,,,,,,,,,,,
,,,,,,,,,,00001598050,2020-10-23_17h18.15.704,swahili,2020.2.4,Win32,60,,,,,,,,,,-0.314716238,0.108009279,1,0,0,0.91368,unsorted_card,41,0,41,0,1,,,,,,,,,,,,,,,,,,,,,,,,,,,,,,,,,,,,,,,,,,,,,,,,,,,,,,,,,,,,,,,,,,,,,,,,,,,,,,,,,
,,,,,,,,,,00001598050,2020-10-23_17h18.15.704,swahili,2020.2.4,Win32,60,,,,,,,,,,0.560283734,0.461615138,1,0,0,2.515054999,study_pile,42,0,42,0,1,TREASURE - DAFINA,,,,,,,,,,,,,,,,,,,,,,,,,,,,,,,,,,,,,,,,,,,,,,,,,,,,,,,,,,,,,,,,,,,,,,,,,,,,,,,,
,,,,,,,,,,00001598050,2020-10-23_17h18.15.704,swahili,2020.2.4,Win32,60,,,,,,,,,,,,,,,,,,,,,,OATH - YAMINI,-0.50088651,0.016284451,1,0,0,1.497329999,study_first,return,2.035784999,return,3.716574999,0,0,0,0,1,,,,,,,,,,,,,,,,,,,,,,,,,,,,,,,,,,,,,,,,,,,,,,,,,,,,,,,,,,,,,,,,
,,,,,,,,,,00001598050,2020-10-23_17h18.15.704,swahili,2020.2.4,Win32,60,,,,,,,,,,,,,,,,,,,,,,MERCHANT - TAJIRI,,,,,,,,,,return,2.589484999,1,0,1,0,1,,,,,,,,,,,,,,,,,,,,,,,,,,,,,,,,,,,,,,,,,,,,,,,,,,,,,,,,,,,,,,,,
,,,,,,,,,,00001598050,2020-10-23_17h18.15.704,swahili,2020.2.4,Win32,60,,,,,,,,,,,,,,,,,,,,,,BOAT - MASHUA,,,,,,,,,,return,1.833455,2,0,2,0,1,,,,,,,,,,,,,,,,,,,,,,,,,,,,,,,,,,,,,,,,,,,,,,,,,,,,,,,,,,,,,,,,
,,,,,,,,,,00001598050,2020-10-23_17h18.15.704,swahili,2020.2.4,Win32,60,,,,,,,,,,,,,,,,,,,,,,DIVORCE - TALAKA,,,,,,,,,,return,1.495860001,3,0,3,0,1,,,,,,,,,,,,,,,,,,,,,,,,,,,,,,,,,,,,,,,,,,,,,,,,,,,,,,,,,,,,,,,,
,,,,,,,,,,00001598050,2020-10-23_17h18.15.704,swahili,2020.2.4,Win32,60,,,,,,,,,,,,,,,,,,,,,,GRAPES - ZABIBU,,,,,,,,,,return,1.655440001,4,0,4,0,1,,,,,,,,,,,,,,,,,,,,,,,,,,,,,,,,,,,,,,,,,,,,,,,,,,,,,,,,,,,,,,,,
,,,,,,,,,,00001598050,2020-10-23_17h18.15.704,swahili,2020.2.4,Win32,60,,,,,,,,,,,,,,,,,,,,,,TREASURE - DAFINA,,,,,,,,,,return,1.472955002,5,0,5,0,1,,,,,,,,,,,,,,,,,,,,,,,,,,,,,,,,,,,,,,,,,,,,,,,,,,,,,,,,,,,,,,,,
,,,,,,,,,,00001598050,2020-10-23_17h18.15.704,swahili,2020.2.4,Win32,60,,,,,,,,,,,,,,,,,,,,,,PLATE - SAHANI,,,,,,,,,,return,1.737845,6,0,6,0,1,,,,,,,,,,,,,,,,,,,,,,,,,,,,,,,,,,,,,,,,,,,,,,,,,,,,,,,,,,,,,,,,
,,,,,,,,,,00001598050,2020-10-23_17h18.15.704,swahili,2020.2.4,Win32,60,,,,,,,,,,,,,,,,,,,,,,PARROT - KASUKU,,,,,,,,,,return,4.156084999,7,0,7,0,1,,,,,,,,,,,,,,,,,,,,,,,,,,,,,,,,,,,,,,,,,,,,,,,,,,,,,,,,,,,,,,,,
,,,,,,,,,,00001598050,2020-10-23_17h18.15.704,swahili,2020.2.4,Win32,60,,,,,,,,,,,,,,,,,,,,,,YEAST - HAMIRA,,,,,,,,,,return,2.361624999,8,0,8,0,1,,,,,,,,,,,,,,,,,,,,,,,,,,,,,,,,,,,,,,,,,,,,,,,,,,,,,,,,,,,,,,,,
,,,,,,,,,,00001598050,2020-10-23_17h18.15.704,swahili,2020.2.4,Win32,60,,,,,,,,,,,,,,,,,,,,,,TAILOR - MSHONI,,,,,,,,,,return,2.62786,9,0,9,0,1,,,,,,,,,,,,,,,,,,,,,,,,,,,,,,,,,,,,,,,,,,,,,,,,,,,,,,,,,,,,,,,,
,,,,,,,,,,00001598050,2020-10-23_17h18.15.704,swahili,2020.2.4,Win32,60,,,,,,,,,,,,,,,,,,,,,,,,,,,,,,,,,,,,,,,,0,0,0,0,1,,,,,,,,,,,,,,,,,,,,,,,,,,,,,,,,,,,,,,,,,,,,,,,,,,,,,,,,,,
,,,,,,,,,,00001598050,2020-10-23_17h18.15.704,swahili,2020.2.4,Win32,60,,,,,,,,,,,,,,,,,,,,,,,,,,,,,,,,,,0,0,0,0,1,,,,,,,,,,,,,,,,,,,,,,,,,,,,,,,,,,,,,,,,,,,,,,,,,,,,,,,,,,,,,,,,
,,,,,,,,,,00001598050,2020-10-23_17h18.15.704,swahili,2020.2.4,Win32,60,,,,,,,,,,,,,,,,,,,,,,,,,,,,,,,,,,,,,,,return,,,,,,,,,,,0.991935,2.880299998,0.406028411,-0.00631442,1,0,0,1.350004999,yes,POEM,UTENZI,incorrect,0,0,0,0,1,,,,,,,,,,,,,,,,,,,,,,,,,,,,,,,,,,,,
,,,,,,,,,,00001598050,2020-10-23_17h18.15.704,swahili,2020.2.4,Win32,60,,,,,,,,,,,,,,,,,,,,,,,,,,,,,,,,,,,,,,,,,,,,,,,,,,,3.546004999,0.463652634,-0.055500279,1,0,0,0.950230001,yes,CHEESE,JIBINI,incorrect,1,0,1,0,1,,,,,,,,,,,,,,,,,,,,,,,,,,,,,,,,,,,,
,,,,,,,,,,00001598050,2020-10-23_17h18.15.704,swahili,2020.2.4,Win32,60,,,,,,,,,,,,,,,,,,,,,,,,,,,,,,,,,,,,,,,,,,,,,,,,,,,2.646295,0.656914943,-0.044865435,1,0,0,0.86713,yes,BRIBE,RUSHWA,incorrect,2,0,2,0,1,,,,,,,,,,,,,,,,,,,,,,,,,,,,,,,,,,,,
,,,,,,,,,,00001598050,2020-10-23_17h18.15.704,swahili,2020.2.4,Win32,60,,,,,,,,,,,,,,,,,,,,,,,,,,,,,,,,,,,,,,,,,,,,,,,,,,,1.996129999,0.594858204,0.029577904,1,0,0,1.217795001,yes,ORPHAN,YATIMA,incorrect,3,0,3,0,1,,,,,,,,,,,,,,,,,,,,,,,,,,,,,,,,,,,,
,,,,,,,,,,00001598050,2020-10-23_17h18.15.704,swahili,2020.2.4,Win32,60,,,,,,,,,,,,,,,,,,,,,,,,,,,,,,,,,,,,,,,,,,,,,,,,,,,2.229430001,0.221631242,-0.184446695,1,0,0,0.933504999,yes,CORN,NAFAKA,incorrect,4,0,4,0,1,,,,,,,,,,,,,,,,,,,,,,,,,,,,,,,,,,,,
,,,,,,,,,,00001598050,2020-10-23_17h18.15.704,swahili,2020.2.4,Win32,60,,,,,,,,,,,,,,,,,,,,,,,,,,,,,,,,,,,,,,,,,,,,,,,,,,,6.845450001,0.421985858,-0.139249035,1,0,0,0.967104999,yes,BULL,FAJILI,incorrect,5,0,5,0,1,,,,,,,,,,,,,,,,,,,,,,,,,,,,,,,,,,,,
,,,,,,,,,,00001598050,2020-10-23_17h18.15.704,swahili,2020.2.4,Win32,60,,,,,,,,,,,,,,,,,,,,,,,,,,,,,,,,,,,,,,,,,,,,,,,,,,,2.829615001,0.600177353,0.014955105,1,0,0,1.033645,yes,BLAME,AA,incorrect,6,0,6,0,1,,,,,,,,,,,,,,,,,,,,,,,,,,,,,,,,,,,,
,,,,,,,,,,00001598050,2020-10-23_17h18.15.704,swahili,2020.2.4,Win32,60,,,,,,,,,,,,,,,,,,,,,,,,,,,,,,,,,,,,,,,,,,,,,,,,,,,2.945344999,0.475177349,-0.095380639,1,0,0,0.950259998,yes,AGENT,WAKILI,incorrect,7,0,7,0,1,,,,,,,,,,,,,,,,,,,,,,,,,,,,,,,,,,,,
,,,,,,,,,,00001598050,2020-10-23_17h18.15.704,swahili,2020.2.4,Win32,60,,,,,,,,,,,,,,,,,,,,,,,,,,,,,,,,,,,,,,,,,,,,,,,,,,,3.66295,0.669326291,0.025589868,1,0,0,1.183699999,yes,MANURE,SAMADI,incorrect,8,0,8,0,1,,,,,,,,,,,,,,,,,,,,,,,,,,,,,,,,,,,,
,,,,,,,,,,00001598050,2020-10-23_17h18.15.704,swahili,2020.2.4,Win32,60,,,,,,,,,,,,,,,,,,,,,,,,,,,,,,,,,,,,,,,,1,0,1,0,1,,,,,,,,,,,,,,,,,,,,,,,,,,,,,,,,,,,,,,,,,,,,,,,,,,,,,,,,,,
,,,,,,,,,,00001598050,2020-10-23_17h18.15.704,swahili,2020.2.4,Win32,60,,,,,,,,,,,,,,,,,,,,,,,,,,,,,,,,,,,,,,,,,,,,,2,0,2,0,1,,,,,,,,,,,,,,,,,,,,,,,,,,,,,,,,,,,,,,,,,,,,,,,,,,,,,
,,,,,,,,,,00001598050,2020-10-23_17h18.15.704,swahili,2020.2.4,Win32,60,,,,,,,,,,-0.224290703,-0.054170852,1,0,0,2.104015,unsorted_card,0,0,0,0,1,,,,,,,,,,,,,,,,,,,,,,,,,,,,,,,,,,,,,,,,,,,,,,,,,,,,,,,,,,,,,,,,,,,,,,,,,,,,,,,,,
,,,,,,,,,,00001598050,2020-10-23_17h18.15.704,swahili,2020.2.4,Win32,60,,,,,,,,,,0.510638343,0.481555319,1,0,0,3.881545,study_pile,1,0,1,0,1,MERCHANT - TAJIRI,,,,,,,,,,,,,,,,,,,,,,,,,,,,,,,,,,,,,,,,,,,,,,,,,,,,,,,,,,,,,,,,,,,,,,,,,,,,,,,,
,,,,,,,,,,00001598050,2020-10-23_17h18.15.704,swahili,2020.2.4,Win32,60,,,,,,,,,,-0.418439699,-0.108674011,1,0,0,0.962975001,unsorted_card,2,0,2,0,1,,,,,,,,,,,,,,,,,,,,,,,,,,,,,,,,,,,,,,,,,,,,,,,,,,,,,,,,,,,,,,,,,,,,,,,,,,,,,,,,,
,,,,,,,,,,00001598050,2020-10-23_17h18.15.704,swahili,2020.2.4,Win32,60,,,,,,,,,,0.547872387,0.068128919,1,0,0,3.647979999,test_pile,3,0,3,0,1,PARROT - KASUKU,,,,,,,,,,,,,,,,,,,,,,,,,,,,,,,,,,,,,,,,,,,,,,,,,,,,,,,,,,,,,,,,,,,,,,,,,,,,,,,,
,,,,,,,,,,00001598050,2020-10-23_17h18.15.704,swahili,2020.2.4,Win32,60,,,,,,,,,,-0.452127643,-0.112662047,1,0,0,0.863195,unsorted_card,4,0,4,0,1,,,,,,,,,,,,,,,,,,,,,,,,,,,,,,,,,,,,,,,,,,,,,,,,,,,,,,,,,,,,,,,,,,,,,,,,,,,,,,,,,
,,,,,,,,,,00001598050,2020-10-23_17h18.15.704,swahili,2020.2.4,Win32,60,,,,,,,,,,0.579787281,0.060152847,1,0,0,2.28142,test_pile,5,0,5,0,1,BULL - FAHILI,,,,,,,,,,,,,,,,,,,,,,,,,,,,,,,,,,,,,,,,,,,,,,,,,,,,,,,,,,,,,,,,,,,,,,,,,,,,,,,,
,,,,,,,,,,00001598050,2020-10-23_17h18.15.704,swahili,2020.2.4,Win32,60,,,,,,,,,,-0.35106381,-0.038218708,1,0,0,0.797840001,unsorted_card,6,0,6,0,1,,,,,,,,,,,,,,,,,,,,,,,,,,,,,,,,,,,,,,,,,,,,,,,,,,,,,,,,,,,,,,,,,,,,,,,,,,,,,,,,,
,,,,,,,,,,00001598050,2020-10-23_17h18.15.704,swahili,2020.2.4,Win32,60,,,,,,,,,,0.525709265,0.56663342,1,0,0,5.131380001,study_pile,7,0,7,0,1,PLATE - SAHANI,,,,,,,,,,,,,,,,,,,,,,,,,,,,,,,,,,,,,,,,,,,,,,,,,,,,,,,,,,,,,,,,,,,,,,,,,,,,,,,,
,,,,,,,,,,00001598050,2020-10-23_17h18.15.704,swahili,2020.2.4,Win32,60,,,,,,,,,,-0.453014168,-0.008973111,1,0,0,0.862935001,unsorted_card,8,0,8,0,1,,,,,,,,,,,,,,,,,,,,,,,,,,,,,,,,,,,,,,,,,,,,,,,,,,,,,,,,,,,,,,,,,,,,,,,,,,,,,,,,,
,,,,,,,,,,00001598050,2020-10-23_17h18.15.704,swahili,2020.2.4,Win32,60,,,,,,,,,,0.43882983,0.468261825,1,0,0,4.264830001,study_pile,9,0,9,0,1,YEAST - HAMIRA,,,,,,,,,,,,,,,,,,,,,,,,,,,,,,,,,,,,,,,,,,,,,,,,,,,,,,,,,,,,,,,,,,,,,,,,,,,,,,,,
,,,,,,,,,,00001598050,2020-10-23_17h18.15.704,swahili,2020.2.4,Win32,60,,,,,,,,,,-0.374113457,0.020272487,1,0,0,1.093179999,unsorted_card,10,0,10,0,1,,,,,,,,,,,,,,,,,,,,,,,,,,,,,,,,,,,,,,,,,,,,,,,,,,,,,,,,,,,,,,,,,,,,,,,,,,,,,,,,,
,,,,,,,,,,00001598050,2020-10-23_17h18.15.704,swahili,2020.2.4,Win32,60,,,,,,,,,,0.544326287,-0.103356711,1,0,0,2.04826,test_pile,11,0,11,0,1,BLAME - LAWAMA,,,,,,,,,,,,,,,,,,,,,,,,,,,,,,,,,,,,,,,,,,,,,,,,,,,,,,,,,,,,,,,,,,,,,,,,,,,,,,,,
,,,,,,,,,,00001598050,2020-10-23_17h18.15.704,swahili,2020.2.4,Win32,60,,,,,,,,,,-0.237588576,-0.203057611,1,0,0,0.830800001,unsorted_card,12,0,12,0,1,,,,,,,,,,,,,,,,,,,,,,,,,,,,,,,,,,,,,,,,,,,,,,,,,,,,,,,,,,,,,,,,,,,,,,,,,,,,,,,,,
,,,,,,,,,,00001598050,2020-10-23_17h18.15.704,swahili,2020.2.4,Win32,60,,,,,,,,,,0.544326287,0.030907249,1,0,0,2.76496,test_pile,13,0,13,0,1,OATH - YAMINI,,,,,,,,,,,,,,,,,,,,,,,,,,,,,,,,,,,,,,,,,,,,,,,,,,,,,,,,,,,,,,,,,,,,,,,,,,,,,,,,
,,,,,,,,,,00001598050,2020-10-23_17h18.15.704,swahili,2020.2.4,Win32,60,,,,,,,,,,-0.257978701,0.068128919,1,0,0,2.01348,unsorted_card,14,0,14,0,1,,,,,,,,,,,,,,,,,,,,,,,,,,,,,,,,,,,,,,,,,,,,,,,,,,,,,,,,,,,,,,,,,,,,,,,,,,,,,,,,,
,,,,,,,,,,00001598050,2020-10-23_17h18.15.704,swahili,2020.2.4,Win32,60,,,,,,,,,,0.489361747,0.001661652,1,0,0,1.448235,test_pile,15,0,15,0,1,CORN - NAFAKA,,,,,,,,,,,,,,,,,,,,,,,,,,,,,,,,,,,,,,,,,,,,,,,,,,,,,,,,,,,,,,,,,,,,,,,,,,,,,,,,
,,,,,,,,,,00001598050,2020-10-23_17h18.15.704,swahili,2020.2.4,Win32,60,,,,,,,,,,-0.38209218,0.060152847,1,0,0,0.763885001,unsorted_card,16,0,16,0,1,,,,,,,,,,,,,,,,,,,,,,,,,,,,,,,,,,,,,,,,,,,,,,,,,,,,,,,,,,,,,,,,,,,,,,,,,,,,,,,,,
,,,,,,,,,,00001598050,2020-10-23_17h18.15.704,swahili,2020.2.4,Win32,60,,,,,,,,,,0.472517774,-0.015619838,1,0,0,1.664890001,test_pile,17,0,17,0,1,POEM - UTENZI,,,,,,,,,,,,,,,,,,,,,,,,,,,,,,,,,,,,,,,,,,,,,,,,,,,,,,,,,,,,,,,,,,,,,,,,,,,,,,,,
,,,,,,,,,,00001598050,2020-10-23_17h18.15.704,swahili,2020.2.4,Win32,60,,,,,,,,,,-0.38386523,0.030907249,1,0,0,0.797730001,unsorted_card,18,0,18,0,1,,,,,,,,,,,,,,,,,,,,,,,,,,,,,,,,,,,,,,,,,,,,,,,,,,,,,,,,,,,,,,,,,,,,,,,,,,,,,,,,,
,,,,,,,,,,00001598050,2020-10-23_17h18.15.704,swahili,2020.2.4,Win32,60,,,,,,,,,,0.393617063,0.050847429,1,0,0,4.664425001,test_pile,19,0,19,0,1,TAILOR - MSHONI,,,,,,,,,,,,,,,,,,,,,,,,,,,,,,,,,,,,,,,,,,,,,,,,,,,,,,,,,,,,,,,,,,,,,,,,,,,,,,,,
,,,,,,,,,,00001598050,2020-10-23_17h18.15.704,swahili,2020.2.4,Win32,60,,,,,,,,,,-0.314716238,-0.022266564,1,0,0,1.563300001,unsorted_card,20,0,20,0,1,,,,,,,,,,,,,,,,,,,,,,,,,,,,,,,,,,,,,,,,,,,,,,,,,,,,,,,,,,,,,,,,,,,,,,,,,,,,,,,,,
,,,,,,,,,,00001598050,2020-10-23_17h18.15.704,swahili,2020.2.4,Win32,60,,,,,,,,,,0.533687989,0.009637724,1,0,0,1.914720001,test_pile,21,0,21,0,1,CHEESE - JIBINI,,,,,,,,,,,,,,,,,,,,,,,,,,,,,,,,,,,,,,,,,,,,,,,,,,,,,,,,,,,,,,,,,,,,,,,,,,,,,,,,
,,,,,,,,,,00001598050,2020-10-23_17h18.15.704,swahili,2020.2.4,Win32,60,,,,,,,,,,-0.281028347,-0.028913291,1,0,0,0.781305,unsorted_card,22,0,22,0,1,,,,,,,,,,,,,,,,,,,,,,,,,,,,,,,,,,,,,,,,,,,,,,,,,,,,,,,,,,,,,,,,,,,,,,,,,,,,,,,,,
,,,,,,,,,,00001598050,2020-10-23_17h18.15.704,swahili,2020.2.4,Win32,60,,,,,,,,,,0.510638343,-0.012961147,1,0,0,2.231304999,test_pile,23,0,23,0,1,GRAPES - ZABIBU,,,,,,,,,,,,,,,,,,,,,,,,,,,,,,,,,,,,,,,,,,,,,,,,,,,,,,,,,,,,,,,,,,,,,,,,,,,,,,,,
,,,,,,,,,,00001598050,2020-10-23_17h18.15.704,swahili,2020.2.4,Win32,60,,,,,,,,,,-0.305851043,0.081422372,1,0,0,0.946840001,unsorted_card,24,0,24,0,1,,,,,,,,,,,,,,,,,,,,,,,,,,,,,,,,,,,,,,,,,,,,,,,,,,,,,,,,,,,,,,,,,,,,,,,,,,,,,,,,,
,,,,,,,,,,00001598050,2020-10-23_17h18.15.704,swahili,2020.2.4,Win32,60,,,,,,,,,,0.48492923,0.018943141,1,0,0,2.398125,test_pile,25,0,25,0,1,MANURE - SAMADI,,,,,,,,,,,,,,,,,,,,,,,,,,,,,,,,,,,,,,,,,,,,,,,,,,,,,,,,,,,,,,,,,,,,,,,,,,,,,,,,
,,,,,,,,,,00001598050,2020-10-23_17h18.15.704,swahili,2020.2.4,Win32,60,,,,,,,,,,-0.333333313,0.057494156,1,0,0,0.914135,unsorted_card,26,0,26,0,1,,,,,,,,,,,,,,,,,,,,,,,,,,,,,,,,,,,,,,,,,,,,,,,,,,,,,,,,,,,,,,,,,,,,,,,,,,,,,,,,,
,,,,,,,,,,00001598050,2020-10-23_17h18.15.704,swahili,2020.2.4,Win32,60,,,,,,,,,,0.511524976,-0.022266564,1,0,0,1.981465001,test_pile,27,0,27,0,1,AGENT - WAKILI,,,,,,,,,,,,,,,,,,,,,,,,,,,,,,,,,,,,,,,,,,,,,,,,,,,,,,,,,,,,,,,,,,,,,,,,,,,,,,,,
,,,,,,,,,,00001598050,2020-10-23_17h18.15.704,swahili,2020.2.4,Win32,60,,,,,,,,,,-0.29875879,0.034895285,1,0,0,0.964369999,unsorted_card,28,0,28,0,1,,,,,,,,,,,,,,,,,,,,,,,,,,,,,,,,,,,,,,,,,,,,,,,,,,,,,,,,,,,,,,,,,,,,,,,,,,,,,,,,,
,,,,,,,,,,00001598050,2020-10-23_17h18.15.704,swahili,2020.2.4,Win32,60,,,,,,,,,,0.521276641,-0.028913291,1,0,0,1.46503,test_pile,29,0,29,0,1,BRIBE - RUSHWA,,,,,,,,,,,,,,,,,,,,,,,,,,,,,,,,,,,,,,,,,,,,,,,,,,,,,,,,,,,,,,,,,,,,,,,,,,,,,,,,
,,,,,,,,,,00001598050,2020-10-23_17h18.15.704,swahili,2020.2.4,Win32,60,,,,,,,,,,-0.367907783,-0.000997039,1,0,0,0.93072,unsorted_card,30,0,30,0,1,,,,,,,,,,,,,,,,,,,,,,,,,,,,,,,,,,,,,,,,,,,,,,,,,,,,,,,,,,,,,,,,,,,,,,,,,,,,,,,,,
,,,,,,,,,,00001598050,2020-10-23_17h18.15.704,swahili,2020.2.4,Win32,60,,,,,,,,,,0.534574514,-0.052841507,1,0,0,1.681559999,test_pile,31,0,31,0,1,ORPHAN - YATIMA,,,,,,,,,,,,,,,,,,,,,,,,,,,,,,,,,,,,,,,,,,,,,,,,,,,,,,,,,,,,,,,,,,,,,,,,,,,,,,,,
,,,,,,,,,,00001598050,2020-10-23_17h18.15.704,swahili,2020.2.4,Win32,60,,,,,,,,,,-0.260638276,0.086739753,1,0,0,0.814165,unsorted_card,32,0,32,0,1,,,,,,,,,,,,,,,,,,,,,,,,,,,,,,,,,,,,,,,,,,,,,,,,,,,,,,,,,,,,,,,,,,,,,,,,,,,,,,,,,
,,,,,,,,,,00001598050,2020-10-23_17h18.15.704,swahili,2020.2.4,Win32,60,,,,,,,,,,0.540780296,0.634430032,1,0,0,1.715,study_pile,33,0,33,0,1,DIVORCE - TALAKA,,,,,,,,,,,,,,,,,,,,,,,,,,,,,,,,,,,,,,,,,,,,,,,,,,,,,,,,,,,,,,,,,,,,,,,,,,,,,,,,
,,,,,,,,,,00001598050,2020-10-23_17h18.15.704,swahili,2020.2.4,Win32,60,,,,,,,,,,-0.299645369,0.036224631,1,0,0,1.014374999,unsorted_card,34,0,34,0,1,,,,,,,,,,,,,,,,,,,,,,,,,,,,,,,,,,,,,,,,,,,,,,,,,,,,,,,,,,,,,,,,,,,,,,,,,,,,,,,,,
,,,,,,,,,,00001598050,2020-10-23_17h18.15.704,swahili,2020.2.4,Win32,60,,,,,,,,,,0.453900753,0.504154189,1,0,0,3.248260001,study_pile,35,0,35,0,1,BOAT - MASHUA,,,,,,,,,,,,,,,,,,,,,,,,,,,,,,,,,,,,,,,,,,,,,,,,,,,,,,,,,,,,,,,,,,,,,,,,,,,,,,,,
,,,,,,,,,,00001598050,2020-10-23_17h18.15.704,swahili,2020.2.4,Win32,60,,,,,,,,,,-0.08776593,0.0734463,1,0,0,0.946735,unsorted_card,36,0,36,0,1,,,,,,,,,,,,,,,,,,,,,,,,,,,,,,,,,,,,,,,,,,,,,,,,,,,,,,,,,,,,,,,,,,,,,,,,,,,,,,,,,
,,,,,,,,,,00001598050,2020-10-23_17h18.15.704,swahili,2020.2.4,Win32,60,,,,,,,,,,0.518617067,0.009637724,1,0,0,2.38154,test_pile,37,0,37,0,1,TREASURE - DAFINA,,,,,,,,,,,,,,,,,,,,,,,,,,,,,,,,,,,,,,,,,,,,,,,,,,,,,,,,,,,,,,,,,,,,,,,,,,,,,,,,
,,,,,,,,,,00001598050,2020-10-23_17h18.15.704,swahili,2020.2.4,Win32,60,,,,,,,,,,,,,,,,,,,,,,,0.572695191,0.077434336,1,0,0,1.51443,test_first,,,,,0,0,0,0,1,,,,,,,,,,,,,,,,,,,,,,,,,,,,,,,,,,,,,,,,,,,,,,,,,,,,,,,,,,,,,,,,
,,,,,,,,,,00001598050,2020-10-23_17h18.15.704,swahili,2020.2.4,Win32,60,,,,,,,,,,,,,,,,,,,,,,,,,,,,,,,,,,,,,,,return,,,,,,,,,,,0.871920001,4.531014999,0.392730538,-0.06613496,1,0,0,1.166864999,yes,PARROT,A,incorrect,0,0,0,0,1,,,,,,,,,,,,,,,,,,,,,,,,,,,,,,,,,,,,
,,,,,,,,,,00001598050,2020-10-23_17h18.15.704,swahili,2020.2.4,Win32,60,,,,,,,,,,,,,,,,,,,,,,,,,,,,,,,,,,,,,,,,,,,,,,,,,,,2.280205,-0.406028351,-0.236291163,1,0,0,1.283495,no,MANURE,SAMADI,incorrect,1,0,1,0,1,,,,,,,,,,,,,,,,,,,,,,,,,,,,,,,,,,,,
,,,,,,,,,,00001598050,2020-10-23_17h18.15.704,swahili,2020.2.4,Win32,60,,,,,,,,,,,,,,,,,,,,,,,,,,,,,,,,,,,,,,,,,,,,,,,,,,,3.236430001,0.427305007,-0.107344747,1,0,0,1.066849999,yes,TAILOR,MSHONI,incorrect,2,0,2,0,1,,,,,,,,,,,,,,,,,,,,,,,,,,,,,,,,,,,,
,,,,,,,,,,00001598050,2020-10-23_17h18.15.704,swahili,2020.2.4,Win32,60,,,,,,,,,,,,,,,,,,,,,,,,,,,,,,,,,,,,,,,,,,,,,,,,,,,8.12992,0.472517774,-0.092721867,1,0,0,0.917225001,yes,OATH,YAMINA,incorrect,3,0,3,0,1,,,,,,,,,,,,,,,,,,,,,,,,,,,,,,,,,,,,
,,,,,,,,,,00001598050,2020-10-23_17h18.15.704,swahili,2020.2.4,Win32,60,,,,,,,,,,,,,,,,,,,,,,,,,,,,,,,,,,,,,,,,,,,,,,,,,,,2.363214999,0.475177349,-0.155201179,1,0,0,0.950335,yes,ORPHAN,YATIMA,incorrect,4,0,4,0,1,,,,,,,,,,,,,,,,,,,,,,,,,,,,,,,,,,,,
,,,,,,,,,,00001598050,2020-10-23_17h18.15.704,swahili,2020.2.4,Win32,60,,,,,,,,,,,,,,,,,,,,,,,,,,,,,,,,,,,,,,,,,,,,,,,,,,,1.863515001,0.493794371,-0.055500279,1,0,0,0.950224999,yes,TREASURE,DAFINA,incorrect,5,0,5,0,1,,,,,,,,,,,,,,,,,,,,,,,,,,,,,,,,,,,,
,,,,,,,,,,00001598050,2020-10-23_17h18.15.704,swahili,2020.2.4,Win32,60,,,,,,,,,,,,,,,,,,,,,,,,,,,,,,,,,,,,,,,,,,,,,,,,,,,1.846995,0.477836923,0.016284451,1,0,0,1.267065,yes,POEM,UTENZI,incorrect,6,0,6,0,1,,,,,,,,,,,,,,,,,,,,,,,,,,,,,,,,,,,,
,,,,,,,,,,00001598050,2020-10-23_17h18.15.704,swahili,2020.2.4,Win32,60,,,,,,,,,,,,,,,,,,,,,,,,,,,,,,,,,,,,,,,,,,,,,,,,,,,6.896784998,0.608156076,0.012296415,1,0,0,0.983655,yes,GRAPES,BUBU,incorrect,7,0,7,0,1,,,,,,,,,,,,,,,,,,,,,,,,,,,,,,,,,,,,
,,,,,,,,,,00001598050,2020-10-23_17h18.15.704,swahili,2020.2.4,Win32,60,,,,,,,,,,,,,,,,,,,,,,,,,,,,,,,,,,,,,,,,,,,,,,,,,,,3.079779999,-0.29787232,-0.117979428,1,0,0,0.950449999,no,AGENT,WAKILI,incorrect,8,0,8,0,1,,,,,,,,,,,,,,,,,,,,,,,,,,,,,,,,,,,,
,,,,,,,,,,00001598050,2020-10-23_17h18.15.704,swahili,2020.2.4,Win32,60,,,,,,,,,,,,,,,,,,,,,,,,,,,,,,,,,,,,,,,,,,,,,,,,,,,2.743485,-0.230496431,-0.193752113,1,0,0,1.050319999,no,BRIBE,RUSHWA,incorrect,9,0,9,0,1,,,,,,,,,,,,,,,,,,,,,,,,,,,,,,,,,,,,
,,,,,,,,,,00001598050,2020-10-23_17h18.15.704,swahili,2020.2.4,Win32,60,,,,,,,,,,,,,,,,,,,,,,,,,,,,,,,,,,,,,,,,,,,,,,,,,,,3.443925001,0.44060288,-0.062146924,1,0,0,0.967115,yes,BULL,FAHILI,incorrect,10,0,10,0,1,,,,,,,,,,,,,,,,,,,,,,,,,,,,,,,,,,,,
,,,,,,,,,,00001598050,2020-10-23_17h18.15.704,swahili,2020.2.4,Win32,60,,,,,,,,,,,,,,,,,,,,,,,,,,,,,,,,,,,,,,,,,,,,,,,,,,,2.063184999,0.34929082,-0.211033683,1,0,0,0.93372,yes,CORN,NAFAKA,incorrect,11,0,11,0,1,,,,,,,,,,,,,,,,,,,,,,,,,,,,,,,,,,,,
,,,,,,,,,,00001598050,2020-10-23_17h18.15.704,swahili,2020.2.4,Win32,60,,,,,,,,,,,,,,,,,,,,,,,,,,,,,,,,,,,,,,,,,,,,,,,,,,,2.780235,0.483156073,-0.120638119,1,0,0,0.916935001,yes,CHEESE,JIBINI,incorrect,12,0,12,0,1,,,,,,,,,,,,,,,,,,,,,,,,,,,,,,,,,,,,
,,,,,,,,,,00001598050,2020-10-23_17h18.15.704,swahili,2020.2.4,Win32,60,,,,,,,,,,,,,,,,,,,,,,,,,,,,,,,,,,,,,,,,,,,,,,,,,,,8.930425001,0.565602884,-0.094051212,1,0,0,0.933545001,yes,BLAME,LAWAMA,incorrect,13,0,13,0,1,,,,,,,,,,,,,,,,,,,,,,,,,,,,,,,,,,,,
,,,,,,,,,,00001598050,2020-10-23_17h18.15.704,swahili,2020.2.4,Win32,60,,,,,,,,,,,,,,,,,,,,,,,,,,,,,,,,,,,,,,,,0,0,0,0,1,,,,,,,,,,,,,,,,,,,,,,,,,,,,,,,,,,,,,,,,,,,,,,,,,,,,,,,,,,
,,,,,,,,,,00001598050,2020-10-23_17h18.15.704,swahili,2020.2.4,Win32,60,,,,,,,,,,,,,,,,,,,,,,BOAT - MASHUA,,,,,,,,return,3.207655,return,2.371485,0,0,0,0,1,,,,,,,,,,,,,,,,,,,,,,,,,,,,,,,,,,,,,,,,,,,,,,,,,,,,,,,,,,,,,,,,
,,,,,,,,,,00001598050,2020-10-23_17h18.15.704,swahili,2020.2.4,Win32,60,,,,,,,,,,,,,,,,,,,,,,DIVORCE - TALAKA,,,,,,,,,,return,2.872275,1,0,1,0,1,,,,,,,,,,,,,,,,,,,,,,,,,,,,,,,,,,,,,,,,,,,,,,,,,,,,,,,,,,,,,,,,
,,,,,,,,,,00001598050,2020-10-23_17h18.15.704,swahili,2020.2.4,Win32,60,,,,,,,,,,,,,,,,,,,,,,MERCHANT - TAJIRI,,,,,,,,,,return,1.742725,2,0,2,0,1,,,,,,,,,,,,,,,,,,,,,,,,,,,,,,,,,,,,,,,,,,,,,,,,,,,,,,,,,,,,,,,,
,,,,,,,,,,00001598050,2020-10-23_17h18.15.704,swahili,2020.2.4,Win32,60,,,,,,,,,,,,,,,,,,,,,,YEAST - HAMIRA,,,,,,,,,,return,1.959279999,3,0,3,0,1,,,,,,,,,,,,,,,,,,,,,,,,,,,,,,,,,,,,,,,,,,,,,,,,,,,,,,,,,,,,,,,,
,,,,,,,,,,00001598050,2020-10-23_17h18.15.704,swahili,2020.2.4,Win32,60,,,,,,,,,,,,,,,,,,,,,,PLATE - SAHANI,,,,,,,,,,return,1.303649999,4,0,4,0,1,,,,,,,,,,,,,,,,,,,,,,,,,,,,,,,,,,,,,,,,,,,,,,,,,,,,,,,,,,,,,,,,
,,,,,,,,,,00001598050,2020-10-23_17h18.15.704,swahili,2020.2.4,Win32,60,,,,,,,,,,,,,,,,,,,,,,,,,,,,,,,,,,,,,,,,1,0,1,0,1,,,,,,,,,,,,,,,,,,,,,,,,,,,,,,,,,,,,,,,,,,,,,,,,,,,,,,,,,,
,,,,,,,,,,00001598050,2020-10-23_17h18.15.704,swahili,2020.2.4,Win32,60,,,,,,,,,,,,,,,,,,,,,,,,,,,,,,,,,,,,,,,,,,,,,3,0,3,0,1,,,,,,,,,,,,,,,,,,,,,,,,,,,,,,,,,,,,,,,,,,,,,,,,,,,,,
,,,,,,,,,,00001598050,2020-10-23_17h18.15.704,swahili,2020.2.4,Win32,60,,,,,,,,,,-0.21099283,-0.08607514,1,0,0,1.456135001,unsorted_card,0,0,0,0,1,,,,,,,,,,,,,,,,,,,,,,,,,,,,,,,,,,,,,,,,,,,,,,,,,,,,,,,,,,,,,,,,,,,,,,,,,,,,,,,,,
,,,,,,,,,,00001598050,2020-10-23_17h18.15.704,swahili,2020.2.4,Win32,60,,,,,,,,,,0.55585111,0.085410408,1,0,0,2.730140001,test_pile,1,0,1,0,1,MERCHANT - TAJIRI,,,,,,,,,,,,,,,,,,,,,,,,,,,,,,,,,,,,,,,,,,,,,,,,,,,,,,,,,,,,,,,,,,,,,,,,,,,,,,,,
,,,,,,,,,,00001598050,2020-10-23_17h18.15.704,swahili,2020.2.4,Win32,60,,,,,,,,,,-0.438829771,-0.024925255,1,0,0,1.062969999,unsorted_card,2,0,2,0,1,,,,,,,,,,,,,,,,,,,,,,,,,,,,,,,,,,,,,,,,,,,,,,,,,,,,,,,,,,,,,,,,,,,,,,,,,,,,,,,,,
,,,,,,,,,,00001598050,2020-10-23_17h18.15.704,swahili,2020.2.4,Win32,60,,,,,,,,,,0.561170259,0.528082405,1,0,0,4.61651,study_pile,3,0,3,0,1,PARROT - KASUKU,,,,,,,,,,,,,,,,,,,,,,,,,,,,,,,,,,,,,,,,,,,,,,,,,,,,,,,,,,,,,,,,,,,,,,,,,,,,,,,,
,,,,,,,,,,00001598050,2020-10-23_17h18.15.704,swahili,2020.2.4,Win32,60,,,,,,,,,,-0.44237587,0.024260523,1,0,0,0.763075,unsorted_card,4,0,4,0,1,,,,,,,,,,,,,,,,,,,,,,,,,,,,,,,,,,,,,,,,,,,,,,,,,,,,,,,,,,,,,,,,,,,,,,,,,,,,,,,,,
,,,,,,,,,,00001598050,2020-10-23_17h18.15.704,swahili,2020.2.4,Win32,60,,,,,,,,,,0.444148979,-0.008973111,1,0,0,1.548385,test_pile,5,0,5,0,1,BULL - FAHILI,,,,,,,,,,,,,,,,,,,,,,,,,,,,,,,,,,,,,,,,,,,,,,,,,,,,,,,,,,,,,,,,,,,,,,,,,,,,,,,,
,,,,,,,,,,00001598050,2020-10-23_17h18.15.704,swahili,2020.2.4,Win32,60,,,,,,,,,,-0.421099274,-0.135260999,1,0,0,1.097150002,unsorted_card,6,0,6,0,1,,,,,,,,,,,,,,,,,,,,,,,,,,,,,,,,,,,,,,,,,,,,,,,,,,,,,,,,,,,,,,,,,,,,,,,,,,,,,,,,,
,,,,,,,,,,00001598050,2020-10-23_17h18.15.704,swahili,2020.2.4,Win32,60,,,,,,,,,,0.522163274,-0.040877399,1,0,0,1.915295001,test_pile,7,0,7,0,1,PLATE - SAHANI,,,,,,,,,,,,,,,,,,,,,,,,,,,,,,,,,,,,,,,,,,,,,,,,,,,,,,,,,,,,,,,,,,,,,,,,,,,,,,,,
,,,,,,,,,,00001598050,2020-10-23_17h18.15.704,swahili,2020.2.4,Win32,60,,,,,,,,,,-0.41312055,-0.020937219,1,0,0,0.96376,unsorted_card,8,0,8,0,1,,,,,,,,,,,,,,,,,,,,,,,,,,,,,,,,,,,,,,,,,,,,,,,,,,,,,,,,,,,,,,,,,,,,,,,,,,,,,,,,,
,,,,,,,,,,00001598050,2020-10-23_17h18.15.704,swahili,2020.2.4,Win32,60,,,,,,,,,,0.46808515,0.496178117,1,0,0,2.714430001,study_pile,9,0,9,0,1,YEAST - HAMIRA,,,,,,,,,,,,,,,,,,,,,,,,,,,,,,,,,,,,,,,,,,,,,,,,,,,,,,,,,,,,,,,,,,,,,,,,,,,,,,,,
,,,,,,,,,,00001598050,2020-10-23_17h18.15.704,swahili,2020.2.4,Win32,60,,,,,,,,,,-0.372340407,0.036224631,1,0,0,0.746580001,unsorted_card,10,0,10,0,1,,,,,,,,,,,,,,,,,,,,,,,,,,,,,,,,,,,,,,,,,,,,,,,,,,,,,,,,,,,,,,,,,,,,,,,,,,,,,,,,,
,,,,,,,,,,00001598050,2020-10-23_17h18.15.704,swahili,2020.2.4,Win32,60,,,,,,,,,,0.476063874,-0.575274224,1,0,0,2.315260001,done_pile,11,0,11,0,1,BLAME - LAWAMA,,,,,,,,,,,,,,,,,,,,,,,,,,,,,,,,,,,,,,,,,,,,,,,,,,,,,,,,,,,,,,,,,,,,,,,,,,,,,,,,
,,,,,,,,,,00001598050,2020-10-23_17h18.15.704,swahili,2020.2.4,Win32,60,,,,,,,,,,-0.339538987,-0.302758511,1,0,0,0.797605,unsorted_card,12,0,12,0,1,,,,,,,,,,,,,,,,,,,,,,,,,,,,,,,,,,,,,,,,,,,,,,,,,,,,,,,,,,,,,,,,,,,,,,,,,,,,,,,,,
,,,,,,,,,,00001598050,2020-10-23_17h18.15.704,swahili,2020.2.4,Win32,60,,,,,,,,,,0.500886678,-0.393153913,1,0,0,2.564999999,done_pile,13,0,13,0,1,OATH - YAMINI,,,,,,,,,,,,,,,,,,,,,,,,,,,,,,,,,,,,,,,,,,,,,,,,,,,,,,,,,,,,,,,,,,,,,,,,,,,,,,,,
,,,,,,,,,,00001598050,2020-10-23_17h18.15.704,swahili,2020.2.4,Win32,60,,,,,,,,,,-0.281028347,-0.002326384,1,0,0,0.83097,unsorted_card,14,0,14,0,1,,,,,,,,,,,,,,,,,,,,,,,,,,,,,,,,,,,,,,,,,,,,,,,,,,,,,,,,,,,,,,,,,,,,,,,,,,,,,,,,,
,,,,,,,,,,00001598050,2020-10-23_17h18.15.704,swahili,2020.2.4,Win32,60,,,,,,,,,,0.437943305,-0.448986417,1,0,0,1.331565,done_pile,15,0,15,0,1,CORN - NAFAKA,,,,,,,,,,,,,,,,,,,,,,,,,,,,,,,,,,,,,,,,,,,,,,,,,,,,,,,,,,,,,,,,,,,,,,,,,,,,,,,,
,,,,,,,,,,00001598050,2020-10-23_17h18.15.704,swahili,2020.2.4,Win32,60,,,,,,,,,,-0.267730475,-0.094051212,1,0,0,0.714545,unsorted_card,16,0,16,0,1,,,,,,,,,,,,,,,,,,,,,,,,,,,,,,,,,,,,,,,,,,,,,,,,,,,,,,,,,,,,,,,,,,,,,,,,,,,,,,,,,
,,,,,,,,,,00001598050,2020-10-23_17h18.15.704,swahili,2020.2.4,Win32,60,,,,,,,,,,0.506205827,-0.423728856,1,0,0,1.364654999,done_pile,17,0,17,0,1,POEM - UTENZI,,,,,,,,,,,,,,,,,,,,,,,,,,,,,,,,,,,,,,,,,,,,,,,,,,,,,,,,,,,,,,,,,,,,,,,,,,,,,,,,
,,,,,,,,,,00001598050,2020-10-23_17h18.15.704,swahili,2020.2.4,Win32,60,,,,,,,,,,-0.176418361,-0.036889363,1,0,0,0.697285,unsorted_card,18,0,18,0,1,,,,,,,,,,,,,,,,,,,,,,,,,,,,,,,,,,,,,,,,,,,,,,,,,,,,,,,,,,,,,,,,,,,,,,,,,,,,,,,,,
,,,,,,,,,,00001598050,2020-10-23_17h18.15.704,swahili,2020.2.4,Win32,60,,,,,,,,,,0.46808515,-0.472914633,1,0,0,2.315055,done_pile,19,0,19,0,1,TAILOR - MSHONI,,,,,,,,,,,,,,,,,,,,,,,,,,,,,,,,,,,,,,,,,,,,,,,,,,,,,,,,,,,,,,,,,,,,,,,,,,,,,,,,
,,,,,,,,,,00001598050,2020-10-23_17h18.15.704,swahili,2020.2.4,Win32,60,,,,,,,,,,-0.288120492,0.0734463,1,0,0,0.779519999,unsorted_card,20,0,20,0,1,,,,,,,,,,,,,,,,,,,,,,,,,,,,,,,,,,,,,,,,,,,,,,,,,,,,,,,,,,,,,,,,,,,,,,,,,,,,,,,,,
,,,,,,,,,,00001598050,2020-10-23_17h18.15.704,swahili,2020.2.4,Win32,60,,,,,,,,,,0.437943305,-0.494184159,1,0,0,1.348485,done_pile,21,0,21,0,1,CHEESE - JIBINI,,,,,,,,,,,,,,,,,,,,,,,,,,,,,,,,,,,,,,,,,,,,,,,,,,,,,,,,,,,,,,,,,,,,,,,,,,,,,,,,
,,,,,,,,,,00001598050,2020-10-23_17h18.15.704,swahili,2020.2.4,Win32,60,,,,,,,,,,-0.144503466,-0.027584027,1,0,0,0.797614999,unsorted_card,22,0,22,0,1,,,,,,,,,,,,,,,,,,,,,,,,,,,,,,,,,,,,,,,,,,,,,,,,,,,,,,,,,,,,,,,,,,,,,,,,,,,,,,,,,
,,,,,,,,,,00001598050,2020-10-23_17h18.15.704,swahili,2020.2.4,Win32,60,,,,,,,,,,0.593971787,-0.022266564,1,0,0,2.414190002,test_pile,23,0,23,0,1,GRAPES - ZABIBU,,,,,,,,,,,,,,,,,,,,,,,,,,,,,,,,,,,,,,,,,,,,,,,,,,,,,,,,,,,,,,,,,,,,,,,,,,,,,,,,
,,,,,,,,,,00001598050,2020-10-23_17h18.15.704,swahili,2020.2.4,Win32,60,,,,,,,,,,-0.4148936,0.106679933,1,0,0,0.713135,unsorted_card,24,0,24,0,1,,,,,,,,,,,,,,,,,,,,,,,,,,,,,,,,,,,,,,,,,,,,,,,,,,,,,,,,,,,,,,,,,,,,,,,,,,,,,,,,,
,,,,,,,,,,00001598050,2020-10-23_17h18.15.704,swahili,2020.2.4,Win32,60,,,,,,,,,,0.523936216,-0.507477612,1,0,0,2.698240001,done_pile,25,0,25,0,1,MANURE - SAMADI,,,,,,,,,,,,,,,,,,,,,,,,,,,,,,,,,,,,,,,,,,,,,,,,,,,,,,,,,,,,,,,,,,,,,,,,,,,,,,,,
,,,,,,,,,,00001598050,2020-10-23_17h18.15.704,swahili,2020.2.4,Win32,60,,,,,,,,,,-0.211879409,-0.141907645,1,0,0,0.747775001,unsorted_card,26,0,26,0,1,,,,,,,,,,,,,,,,,,,,,,,,,,,,,,,,,,,,,,,,,,,,,,,,,,,,,,,,,,,,,,,,,,,,,,,,,,,,,,,,,
,,,,,,,,,,00001598050,2020-10-23_17h18.15.704,swahili,2020.2.4,Win32,60,,,,,,,,,,0.524822849,-0.059488315,1,0,0,3.214805001,test_pile,27,0,27,0,1,AGENT - WAKILI,,,,,,,,,,,,,,,,,,,,,,,,,,,,,,,,,,,,,,,,,,,,,,,,,,,,,,,,,,,,,,,,,,,,,,,,,,,,,,,,
,,,,,,,,,,00001598050,2020-10-23_17h18.15.704,swahili,2020.2.4,Win32,60,,,,,,,,,,-0.472517715,0.0734463,1,0,0,0.764300002,unsorted_card,28,0,28,0,1,,,,,,,,,,,,,,,,,,,,,,,,,,,,,,,,,,,,,,,,,,,,,,,,,,,,,,,,,,,,,,,,,,,,,,,,,,,,,,,,,
,,,,,,,,,,00001598050,2020-10-23_17h18.15.704,swahili,2020.2.4,Win32,60,,,,,,,,,,0.465425576,-0.483549396,1,0,0,1.565245001,done_pile,29,0,29,0,1,BRIBE - RUSHWA,,,,,,,,,,,,,,,,,,,,,,,,,,,,,,,,,,,,,,,,,,,,,,,,,,,,,,,,,,,,,,,,,,,,,,,,,,,,,,,,
,,,,,,,,,,00001598050,2020-10-23_17h18.15.704,swahili,2020.2.4,Win32,60,,,,,,,,,,-0.406914876,0.01362576,1,0,0,0.781055,unsorted_card,30,0,30,0,1,,,,,,,,,,,,,,,,,,,,,,,,,,,,,,,,,,,,,,,,,,,,,,,,,,,,,,,,,,,,,,,,,,,,,,,,,,,,,,,,,
,,,,,,,,,,00001598050,2020-10-23_17h18.15.704,swahili,2020.2.4,Win32,60,,,,,,,,,,0.508865401,-0.592555714,1,0,0,1.648845,done_pile,31,0,31,0,1,ORPHAN - YATIMA,,,,,,,,,,,,,,,,,,,,,,,,,,,,,,,,,,,,,,,,,,,,,,,,,,,,,,,,,,,,,,,,,,,,,,,,,,,,,,,,
,,,,,,,,,,00001598050,2020-10-23_17h18.15.704,swahili,2020.2.4,Win32,60,,,,,,,,,,-0.309397088,0.057494156,1,0,0,0.828344999,unsorted_card,32,0,32,0,1,,,,,,,,,,,,,,,,,,,,,,,,,,,,,,,,,,,,,,,,,,,,,,,,,,,,,,,,,,,,,,,,,,,,,,,,,,,,,,,,,
,,,,,,,,,,00001598050,2020-10-23_17h18.15.704,swahili,2020.2.4,Win32,60,,,,,,,,,,0.493794371,-0.04619478,1,0,0,2.46181,test_pile,33,0,33,0,1,DIVORCE - TALAKA,,,,,,,,,,,,,,,,,,,,,,,,,,,,,,,,,,,,,,,,,,,,,,,,,,,,,,,,,,,,,,,,,,,,,,,,,,,,,,,,
,,,,,,,,,,00001598050,2020-10-23_17h18.15.704,swahili,2020.2.4,Win32,60,,,,,,,,,,-0.062943234,0.092057135,1,0,0,0.647940001,unsorted_card,34,0,34,0,1,,,,,,,,,,,,,,,,,,,,,,,,,,,,,,,,,,,,,,,,,,,,,,,,,,,,,,,,,,,,,,,,,,,,,,,,,,,,,,,,,
,,,,,,,,,,00001598050,2020-10-23_17h18.15.704,swahili,2020.2.4,Win32,60,,,,,,,,,,0.493794371,-0.023595991,1,0,0,2.531615,test_pile,35,0,35,0,1,BOAT - MASHUA,,,,,,,,,,,,,,,,,,,,,,,,,,,,,,,,,,,,,,,,,,,,,,,,,,,,,,,,,,,,,,,,,,,,,,,,,,,,,,,,
,,,,,,,,,,00001598050,2020-10-23_17h18.15.704,swahili,2020.2.4,Win32,60,,,,,,,,,,-0.304964518,-0.00631442,1,0,0,0.714265,unsorted_card,36,0,36,0,1,,,,,,,,,,,,,,,,,,,,,,,,,,,,,,,,,,,,,,,,,,,,,,,,,,,,,,,,,,,,,,,,,,,,,,,,,,,,,,,,,
,,,,,,,,,,00001598050,2020-10-23_17h18.15.704,swahili,2020.2.4,Win32,60,,,,,,,,,,0.604610085,-0.00631442,1,0,0,2.26344,test_pile,37,0,37,0,1,TREASURE - DAFINA,,,,,,,,,,,,,,,,,,,,,,,,,,,,,,,,,,,,,,,,,,,,,,,,,,,,,,,,,,,,,,,,,,,,,,,,,,,,,,,,
,,,,,,,,,,00001598050,2020-10-23_17h18.15.704,swahili,2020.2.4,Win32,60,,,,,,,,,,,,,,,,,,,,,,,0.510638343,-0.083416531,1,0,0,1.198135002,test_first,,,,,0,0,0,0,1,,,,,,,,,,,,,,,,,,,,,,,,,,,,,,,,,,,,,,,,,,,,,,,,,,,,,,,,,,,,,,,,
,,,,,,,,,,00001598050,2020-10-23_17h18.15.704,swahili,2020.2.4,Win32,60,,,,,,,,,,,,,,,,,,,,,,,,,,,,,,,,,,,,,,,return,,,,,,,,,,,0.885975,4.030745,0.491134796,-0.121967464,1,0,0,0.916314999,yes,DIVORCE,TALAKA,incorrect,0,0,0,0,1,,,,,,,,,,,,,,,,,,,,,,,,,,,,,,,,,,,,
,,,,,,,,,,00001598050,2020-10-23_17h18.15.704,swahili,2020.2.4,Win32,60,,,,,,,,,,,,,,,,,,,,,,,,,,,,,,,,,,,,,,,,,,,,,,,,,,,11.396545,0.491134796,-0.121967464,1,0,0,0.68375,yes,BULL,FAHILI,incorrect,1,0,1,0,1,,,,,,,,,,,,,,,,,,,,,,,,,,,,,,,,,,,,
,,,,,,,,,,00001598050,2020-10-23_17h18.15.704,swahili,2020.2.4,Win32,60,,,,,,,,,,,,,,,,,,,,,,,,,,,,,,,,,,,,,,,,,,,,,,,,,,,6.313035,0.476063874,-0.022266564,1,0,0,1.300490001,yes,GRAPES,ZIMBIBU,incorrect,2,0,2,0,1,,,,,,,,,,,,,,,,,,,,,,,,,,,,,,,,,,,,
,,,,,,,,,,00001598050,2020-10-23_17h18.15.704,swahili,2020.2.4,Win32,60,,,,,,,,,,,,,,,,,,,,,,,,,,,,,,,,,,,,,,,,,,,,,,,,,,,2.99612,0.400709262,-0.171153323,1,0,0,1.00021,yes,AGENT,WAKILI,incorrect,3,0,3,0,1,,,,,,,,,,,,,,,,,,,,,,,,,,,,,,,,,,,,
,,,,,,,,,,00001598050,2020-10-23_17h18.15.704,swahili,2020.2.4,Win32,60,,,,,,,,,,,,,,,,,,,,,,,,,,,,,,,,,,,,,,,,,,,,,,,,,,,2.413685,0.442376038,-0.007643765,1,0,0,0.950195,yes,MERCHANT,DAFINA,incorrect,4,0,4,0,1,,,,,,,,,,,,,,,,,,,,,,,,,,,,,,,,,,,,
,,,,,,,,,,00001598050,2020-10-23_17h18.15.704,swahili,2020.2.4,Win32,60,,,,,,,,,,,,,,,,,,,,,,,,,,,,,,,,,,,,,,,,,,,,,,,,,,,2.496605,0.415780292,-0.185776041,1,0,0,0.933755001,yes,TREASURE,DAFINA,incorrect,5,0,5,0,1,,,,,,,,,,,,,,,,,,,,,,,,,,,,,,,,,,,,
,,,,,,,,,,00001598050,2020-10-23_17h18.15.704,swahili,2020.2.4,Win32,60,,,,,,,,,,,,,,,,,,,,,,,,,,,,,,,,,,,,,,,,,,,,,,,,,,,3.230280001,0.449468128,-0.028913291,1,0,0,0.950545,yes,PLATE,SAHANI,incorrect,6,0,6,0,1,,,,,,,,,,,,,,,,,,,,,,,,,,,,,,,,,,,,
,,,,,,,,,,00001598050,2020-10-23_17h18.15.704,swahili,2020.2.4,Win32,60,,,,,,,,,,,,,,,,,,,,,,,,,,,,,,,,,,,,,,,,,,,,,,,,,,,5.113665,0.482269656,0.088069099,1,0,0,1.216864999,yes,BOAT,MASHUA,incorrect,7,0,7,0,1,,,,,,,,,,,,,,,,,,,,,,,,,,,,,,,,,,,,
,,,,,,,,,,00001598050,2020-10-23_17h18.15.704,swahili,2020.2.4,Win32,60,,,,,,,,,,,,,,,,,,,,,,,,,,,,,,,,,,,,,,,,0,0,0,0,1,,,,,,,,,,,,,,,,,,,,,,,,,,,,,,,,,,,,,,,,,,,,,,,,,,,,,,,,,,
,,,,,,,,,,00001598050,2020-10-23_17h18.15.704,swahili,2020.2.4,Win32,60,,,,,,,,,,,,,,,,,,,,,,PARROT - KASUKU,,,,,,,,return,1.201445,return,2.332674999,0,0,0,0,1,,,,,,,,,,,,,,,,,,,,,,,,,,,,,,,,,,,,,,,,,,,,,,,,,,,,,,,,,,,,,,,,
,,,,,,,,,,00001598050,2020-10-23_17h18.15.704,swahili,2020.2.4,Win32,60,,,,,,,,,,,,,,,,,,,,,,YEAST - HAMIRA,,,,,,,,,,return,3.99818,1,0,1,0,1,,,,,,,,,,,,,,,,,,,,,,,,,,,,,,,,,,,,,,,,,,,,,,,,,,,,,,,,,,,,,,,,
,,,,,,,,,,00001598050,2020-10-23_17h18.15.704,swahili,2020.2.4,Win32,60,,,,,,,,,,,,,,,,,,,,,,,,,,,,,,,,,,,,,,,,1,0,1,0,1,,,,,,,,,,,,,,,,,,,,,,,,,,,,,,,,,,,,,,,,,,,,,,,,,,,,,,,,,,
,,,,,,,,,,00001598050,2020-10-23_17h18.15.704,swahili,2020.2.4,Win32,60,,,,,,,,,,,,,,,,,,,,,,,,,,,,,,,,,,,,,,,,,,,,,4,0,4,0,1,,,,,,,,,,,,,,,,,,,,,,,,,,,,,,,,,,,,,,,,,,,,,,,,,,,,,
,,,,,,,,,,00001598050,2020-10-23_17h18.15.704,swahili,2020.2.4,Win32,60,,,,,,,,,,-0.236702105,-0.020937219,1,0,0,1.555430001,unsorted_card,0,0,0,0,1,,,,,,,,,,,,,,,,,,,,,,,,,,,,,,,,,,,,,,,,,,,,,,,,,,,,,,,,,,,,,,,,,,,,,,,,,,,,,,,,,
,,,,,,,,,,00001598050,2020-10-23_17h18.15.704,swahili,2020.2.4,Win32,60,,,,,,,,,,0.498227103,-0.028913291,1,0,0,6.23141,test_pile,1,0,1,0,1,MERCHANT - TAJIRI,,,,,,,,,,,,,,,,,,,,,,,,,,,,,,,,,,,,,,,,,,,,,,,,,,,,,,,,,,,,,,,,,,,,,,,,,,,,,,,,
,,,,,,,,,,00001598050,2020-10-23_17h18.15.704,swahili,2020.2.4,Win32,60,,,,,,,,,,-0.330673739,-0.083416531,1,0,0,0.846409999,unsorted_card,2,0,2,0,1,,,,,,,,,,,,,,,,,,,,,,,,,,,,,,,,,,,,,,,,,,,,,,,,,,,,,,,,,,,,,,,,,,,,,,,,,,,,,,,,,
,,,,,,,,,,00001598050,2020-10-23_17h18.15.704,swahili,2020.2.4,Win32,60,,,,,,,,,,0.468971783,-0.04619478,1,0,0,2.098414999,test_pile,3,0,3,0,1,PARROT - KASUKU,,,,,,,,,,,,,,,,,,,,,,,,,,,,,,,,,,,,,,,,,,,,,,,,,,,,,,,,,,,,,,,,,,,,,,,,,,,,,,,,
,,,,,,,,,,00001598050,2020-10-23_17h18.15.704,swahili,2020.2.4,Win32,60,,,,,,,,,,-0.494680836,-0.040877399,1,0,0,0.780855,unsorted_card,4,0,4,0,1,,,,,,,,,,,,,,,,,,,,,,,,,,,,,,,,,,,,,,,,,,,,,,,,,,,,,,,,,,,,,,,,,,,,,,,,,,,,,,,,,
,,,,,,,,,,00001598050,2020-10-23_17h18.15.704,swahili,2020.2.4,Win32,60,,,,,,,,,,0.524822849,-0.528747138,1,0,0,2.032570001,done_pile,5,0,5,0,1,BULL - FAHILI,,,,,,,,,,,,,,,,,,,,,,,,,,,,,,,,,,,,,,,,,,,,,,,,,,,,,,,,,,,,,,,,,,,,,,,,,,,,,,,,
,,,,,,,,,,00001598050,2020-10-23_17h18.15.704,swahili,2020.2.4,Win32,60,,,,,,,,,,-0.366134733,-0.233632473,1,0,0,1.046374999,unsorted_card,6,0,6,0,1,,,,,,,,,,,,,,,,,,,,,,,,,,,,,,,,,,,,,,,,,,,,,,,,,,,,,,,,,,,,,,,,,,,,,,,,,,,,,,,,,
,,,,,,,,,,00001598050,2020-10-23_17h18.15.704,swahili,2020.2.4,Win32,60,,,,,,,,,,0.48492923,-0.050182816,1,0,0,2.716525,test_pile,7,0,7,0,1,PLATE - SAHANI,,,,,,,,,,,,,,,,,,,,,,,,,,,,,,,,,,,,,,,,,,,,,,,,,,,,,,,,,,,,,,,,,,,,,,,,,,,,,,,,
,,,,,,,,,,00001598050,2020-10-23_17h18.15.704,swahili,2020.2.4,Win32,60,,,,,,,,,,-0.216311979,0.040212667,1,0,0,0.730529999,unsorted_card,8,0,8,0,1,,,,,,,,,,,,,,,,,,,,,,,,,,,,,,,,,,,,,,,,,,,,,,,,,,,,,,,,,,,,,,,,,,,,,,,,,,,,,,,,,
,,,,,,,,,,00001598050,2020-10-23_17h18.15.704,swahili,2020.2.4,Win32,60,,,,,,,,,,0.537234088,0.032236595,1,0,0,2.714785,test_pile,9,0,9,0,1,YEAST - HAMIRA,,,,,,,,,,,,,,,,,,,,,,,,,,,,,,,,,,,,,,,,,,,,,,,,,,,,,,,,,,,,,,,,,,,,,,,,,,,,,,,,
,,,,,,,,,,00001598050,2020-10-23_17h18.15.704,swahili,2020.2.4,Win32,60,,,,,,,,,,-0.233156006,-0.091392603,1,0,0,0.814575,unsorted_card,10,0,10,0,1,,,,,,,,,,,,,,,,,,,,,,,,,,,,,,,,,,,,,,,,,,,,,,,,,,,,,,,,,,,,,,,,,,,,,,,,,,,,,,,,,
,,,,,,,,,,00001598050,2020-10-23_17h18.15.704,swahili,2020.2.4,Win32,60,,,,,,,,,,0.510638343,-0.022266564,1,0,0,3.73164,test_pile,11,0,11,0,1,GRAPES - ZABIBU,,,,,,,,,,,,,,,,,,,,,,,,,,,,,,,,,,,,,,,,,,,,,,,,,,,,,,,,,,,,,,,,,,,,,,,,,,,,,,,,
,,,,,,,,,,00001598050,2020-10-23_17h18.15.704,swahili,2020.2.4,Win32,60,,,,,,,,,,-0.349290761,-0.072781687,1,0,0,0.864255,unsorted_card,12,0,12,0,1,,,,,,,,,,,,,,,,,,,,,,,,,,,,,,,,,,,,,,,,,,,,,,,,,,,,,,,,,,,,,,,,,,,,,,,,,,,,,,,,,
,,,,,,,,,,00001598050,2020-10-23_17h18.15.704,swahili,2020.2.4,Win32,60,,,,,,,,,,0.562943309,-0.508806958,1,0,0,2.41515,done_pile,13,0,13,0,1,AGENT - WAKILI,,,,,,,,,,,,,,,,,,,,,,,,,,,,,,,,,,,,,,,,,,,,,,,,,,,,,,,,,,,,,,,,,,,,,,,,,,,,,,,,
,,,,,,,,,,00001598050,2020-10-23_17h18.15.704,swahili,2020.2.4,Win32,60,,,,,,,,,,-0.359929059,-0.102027284,1,0,0,0.780809999,unsorted_card,14,0,14,0,1,,,,,,,,,,,,,,,,,,,,,,,,,,,,,,,,,,,,,,,,,,,,,,,,,,,,,,,,,,,,,,,,,,,,,,,,,,,,,,,,,
,,,,,,,,,,00001598050,2020-10-23_17h18.15.704,swahili,2020.2.4,Win32,60,,,,,,,,,,0.664893667,-0.004985075,1,0,0,4.230974998,test_pile,15,0,15,0,1,DIVORCE - TALAKA,,,,,,,,,,,,,,,,,,,,,,,,,,,,,,,,,,,,,,,,,,,,,,,,,,,,,,,,,,,,,,,,,,,,,,,,,,,,,,,,
,,,,,,,,,,00001598050,2020-10-23_17h18.15.704,swahili,2020.2.4,Win32,60,,,,,,,,,,-0.353723385,0.054835465,1,0,0,1.479865,unsorted_card,16,0,16,0,1,,,,,,,,,,,,,,,,,,,,,,,,,,,,,,,,,,,,,,,,,,,,,,,,,,,,,,,,,,,,,,,,,,,,,,,,,,,,,,,,,
,,,,,,,,,,00001598050,2020-10-23_17h18.15.704,swahili,2020.2.4,Win32,60,,,,,,,,,,0.516844125,-0.034230672,1,0,0,3.148455,test_pile,17,0,17,0,1,BOAT - MASHUA,,,,,,,,,,,,,,,,,,,,,,,,,,,,,,,,,,,,,,,,,,,,,,,,,,,,,,,,,,,,,,,,,,,,,,,,,,,,,,,,
,,,,,,,,,,00001598050,2020-10-23_17h18.15.704,swahili,2020.2.4,Win32,60,,,,,,,,,,-0.291666646,0.03356594,1,0,0,0.762879999,unsorted_card,18,0,18,0,1,,,,,,,,,,,,,,,,,,,,,,,,,,,,,,,,,,,,,,,,,,,,,,,,,,,,,,,,,,,,,,,,,,,,,,,,,,,,,,,,,
,,,,,,,,,,00001598050,2020-10-23_17h18.15.704,swahili,2020.2.4,Win32,60,,,,,,,,,,0.435283731,-0.030242636,1,0,0,2.098370001,test_pile,19,0,19,0,1,TREASURE - DAFINA,,,,,,,,,,,,,,,,,,,,,,,,,,,,,,,,,,,,,,,,,,,,,,,,,,,,,,,,,,,,,,,,,,,,,,,,,,,,,,,,
,,,,,,,,,,00001598050,2020-10-23_17h18.15.704,swahili,2020.2.4,Win32,60,,,,,,,,,,,,,,,,,,,,,,,,,,,,,,,,,,0,0,0,0,1,,,,,,,,,,,,,,,,,,,,,,,,,,,,,,,,,,,,,,,,,,,,,,,,,,,,,,,,,,,,,,,,
,,,,,,,,,,00001598050,2020-10-23_17h18.15.704,swahili,2020.2.4,Win32,60,,,,,,,,,,,,,,,,,,,,,,,,,,,,,,,,,,,,,,,return,,,,,,,,,,,1.000484999,5.581724999,0.401595786,-0.104685975,1,0,0,1.016670002,yes,MERCHANT,TAJIRA,incorrect,0,0,0,0,1,,,,,,,,,,,,,,,,,,,,,,,,,,,,,,,,,,,,
,,,,,,,,,,00001598050,2020-10-23_17h18.15.704,swahili,2020.2.4,Win32,60,,,,,,,,,,,,,,,,,,,,,,,,,,,,,,,,,,,,,,,,,,,,,,,,,,,2.961904999,0.500000045,-0.087404567,1,0,0,1.033694999,yes,BOAT,MASHUA,incorrect,1,0,1,0,1,,,,,,,,,,,,,,,,,,,,,,,,,,,,,,,,,,,,
,,,,,,,,,,00001598050,2020-10-23_17h18.15.704,swahili,2020.2.4,Win32,60,,,,,,,,,,,,,,,,,,,,,,,,,,,,,,,,,,,,,,,,,,,,,,,,,,,6.72933,0.423759016,-0.177799969,1,0,0,1.017185001,yes,GRAPES,ZIBIBU,incorrect,2,0,2,0,1,,,,,,,,,,,,,,,,,,,,,,,,,,,,,,,,,,,,
,,,,,,,,,,00001598050,2020-10-23_17h18.15.704,swahili,2020.2.4,Win32,60,,,,,,,,,,,,,,,,,,,,,,,,,,,,,,,,,,,,,,,,,,,,,,,,,,,4.245165,0.501773094,0.17048851,1,0,0,0.983685,yes,YEAST,HAMIRA,incorrect,3,0,3,0,1,,,,,,,,,,,,,,,,,,,,,,,,,,,,,,,,,,,,
,,,,,,,,,,00001598050,2020-10-23_17h18.15.704,swahili,2020.2.4,Win32,60,,,,,,,,,,,,,,,,,,,,,,,,,,,,,,,,,,,,,,,,,,,,,,,,,,,1.66303,0.453014336,-0.128614191,1,0,0,0.91708,yes,TREASURE,DAFINA,incorrect,4,0,4,0,1,,,,,,,,,,,,,,,,,,,,,,,,,,,,,,,,,,,,
,,,,,,,,,,00001598050,2020-10-23_17h18.15.704,swahili,2020.2.4,Win32,60,,,,,,,,,,,,,,,,,,,,,,,,,,,,,,,,,,,,,,,,,,,,,,,,,,,2.112584999,0.453014336,-0.128614191,1,0,0,1.283565,yes,PLATE,SAHANI,incorrect,5,0,5,0,1,,,,,,,,,,,,,,,,,,,,,,,,,,,,,,,,,,,,
,,,,,,,,,,00001598050,2020-10-23_17h18.15.704,swahili,2020.2.4,Win32,60,,,,,,,,,,,,,,,,,,,,,,,,,,,,,,,,,,,,,,,,,,,,,,,,,,,3.746095,0.453014336,-0.128614191,1,0,0,1.21703,yes,DIVORCE,TALAKA,incorrect,6,0,6,0,1,,,,,,,,,,,,,,,,,,,,,,,,,,,,,,,,,,,,
,,,,,,,,,,00001598050,2020-10-23_17h18.15.704,swahili,2020.2.4,Win32,60,,,,,,,,,,,,,,,,,,,,,,,,,,,,,,,,,,,,,,,,,,,,,,,,,,,3.62851,0.453014336,-0.128614191,1,0,0,1.300465001,yes,PARROT,KASUKU,incorrect,7,0,7,0,1,,,,,,,,,,,,,,,,,,,,,,,,,,,,,,,,,,,,
,,,,,,,,,,00001598050,2020-10-23_17h18.15.704,swahili,2020.2.4,Win32,60,,,,,,,,,,,,,,,,,,,,,,,,,,,,,,,,,,,,,,,,0,0,0,0,1,,,,,,,,,,,,,,,,,,,,,,,,,,,,,,,,,,,,,,,,,,,,,,,,,,,,,,,,,,
,,,,,,,,,,00001598050,2020-10-23_17h18.15.704,swahili,2020.2.4,Win32,60,,,,,,,,,,,,,,,,,,,,,,,,,,,,,,,,,,,,,,,,1,0,1,0,1,,,,,,,,,,,,,,,,,,,,,,,,,,,,,,,,,,,,,,,,,,,,,,,,,,,,,,,,,,
,,,,,,,,,,00001598050,2020-10-23_17h18.15.704,swahili,2020.2.4,Win32,60,,,,,,,,,,,,,,,,,,,,,,,,,,,,,,,,,,,,,,,,,,,,,5,0,5,0,1,,,,,,,,,,,,,,,,,,,,,,,,,,,,,,,,,,,,,,,,,,,,,,,,,,,,,
,,,,,,,,,,00001598050,2020-10-23_17h18.15.704,swahili,2020.2.4,Win32,60,,,,,,,,,,-0.187943238,-0.120638119,1,0,0,1.057215,unsorted_card,0,0,0,0,1,,,,,,,,,,,,,,,,,,,,,,,,,,,,,,,,,,,,,,,,,,,,,,,,,,,,,,,,,,,,,,,,,,,,,,,,,,,,,,,,,
,,,,,,,,,,00001598050,2020-10-23_17h18.15.704,swahili,2020.2.4,Win32,60,,,,,,,,,,0.488475222,-0.015619838,1,0,0,3.130960001,test_pile,1,0,1,0,1,MERCHANT - TAJIRI,,,,,,,,,,,,,,,,,,,,,,,,,,,,,,,,,,,,,,,,,,,,,,,,,,,,,,,,,,,,,,,,,,,,,,,,,,,,,,,,
,,,,,,,,,,00001598050,2020-10-23_17h18.15.704,swahili,2020.2.4,Win32,60,,,,,,,,,,-0.375886506,-0.000997039,1,0,0,1.030995,unsorted_card,2,0,2,0,1,,,,,,,,,,,,,,,,,,,,,,,,,,,,,,,,,,,,,,,,,,,,,,,,,,,,,,,,,,,,,,,,,,,,,,,,,,,,,,,,,
,,,,,,,,,,00001598050,2020-10-23_17h18.15.704,swahili,2020.2.4,Win32,60,,,,,,,,,,0.496453945,0.010967069,1,0,0,1.648265,test_pile,3,0,3,0,1,PARROT - KASUKU,,,,,,,,,,,,,,,,,,,,,,,,,,,,,,,,,,,,,,,,,,,,,,,,,,,,,,,,,,,,,,,,,,,,,,,,,,,,,,,,
,,,,,,,,,,00001598050,2020-10-23_17h18.15.704,swahili,2020.2.4,Win32,60,,,,,,,,,,-0.29787232,0.068128919,1,0,0,0.764425,unsorted_card,4,0,4,0,1,,,,,,,,,,,,,,,,,,,,,,,,,,,,,,,,,,,,,,,,,,,,,,,,,,,,,,,,,,,,,,,,,,,,,,,,,,,,,,,,,
,,,,,,,,,,00001598050,2020-10-23_17h18.15.704,swahili,2020.2.4,Win32,60,,,,,,,,,,0.522163274,-0.015619838,1,0,0,1.797325,test_pile,5,0,5,0,1,PLATE - SAHANI,,,,,,,,,,,,,,,,,,,,,,,,,,,,,,,,,,,,,,,,,,,,,,,,,,,,,,,,,,,,,,,,,,,,,,,,,,,,,,,,
,,,,,,,,,,00001598050,2020-10-23_17h18.15.704,swahili,2020.2.4,Win32,60,,,,,,,,,,-0.484042538,0.005649688,1,0,0,0.781059999,unsorted_card,6,0,6,0,1,,,,,,,,,,,,,,,,,,,,,,,,,,,,,,,,,,,,,,,,,,,,,,,,,,,,,,,,,,,,,,,,,,,,,,,,,,,,,,,,,
,,,,,,,,,,00001598050,2020-10-23_17h18.15.704,swahili,2020.2.4,Win32,60,,,,,,,,,,0.484042597,0.072116955,1,0,0,2.798009999,test_pile,7,0,7,0,1,YEAST - HAMIRA,,,,,,,,,,,,,,,,,,,,,,,,,,,,,,,,,,,,,,,,,,,,,,,,,,,,,,,,,,,,,,,,,,,,,,,,,,,,,,,,
,,,,,,,,,,00001598050,2020-10-23_17h18.15.704,swahili,2020.2.4,Win32,60,,,,,,,,,,-0.412234025,0.040212667,1,0,0,0.84709,unsorted_card,8,0,8,0,1,,,,,,,,,,,,,,,,,,,,,,,,,,,,,,,,,,,,,,,,,,,,,,,,,,,,,,,,,,,,,,,,,,,,,,,,,,,,,,,,,
,,,,,,,,,,00001598050,2020-10-23_17h18.15.704,swahili,2020.2.4,Win32,60,,,,,,,,,,0.429964582,-0.050182816,1,0,0,3.03097,test_pile,9,0,9,0,1,GRAPES - ZABIBU,,,,,,,,,,,,,,,,,,,,,,,,,,,,,,,,,,,,,,,,,,,,,,,,,,,,,,,,,,,,,,,,,,,,,,,,,,,,,,,,
,,,,,,,,,,00001598050,2020-10-23_17h18.15.704,swahili,2020.2.4,Win32,60,,,,,,,,,,-0.35638296,-0.022266564,1,0,0,0.847610001,unsorted_card,10,0,10,0,1,,,,,,,,,,,,,,,,,,,,,,,,,,,,,,,,,,,,,,,,,,,,,,,,,,,,,,,,,,,,,,,,,,,,,,,,,,,,,,,,,
,,,,,,,,,,00001598050,2020-10-23_17h18.15.704,swahili,2020.2.4,Win32,60,,,,,,,,,,0.492021321,-0.011631802,1,0,0,1.414035,test_pile,11,0,11,0,1,DIVORCE - TALAKA,,,,,,,,,,,,,,,,,,,,,,,,,,,,,,,,,,,,,,,,,,,,,,,,,,,,,,,,,,,,,,,,,,,,,,,,,,,,,,,,
,,,,,,,,,,00001598050,2020-10-23_17h18.15.704,swahili,2020.2.4,Win32,60,,,,,,,,,,-0.35283686,0.03356594,1,0,0,0.83134,unsorted_card,12,0,12,0,1,,,,,,,,,,,,,,,,,,,,,,,,,,,,,,,,,,,,,,,,,,,,,,,,,,,,,,,,,,,,,,,,,,,,,,,,,,,,,,,,,
,,,,,,,,,,00001598050,2020-10-23_17h18.15.704,swahili,2020.2.4,Win32,60,,,,,,,,,,0.556737743,-0.011631802,1,0,0,1.781505,test_pile,13,0,13,0,1,BOAT - MASHUA,,,,,,,,,,,,,,,,,,,,,,,,,,,,,,,,,,,,,,,,,,,,,,,,,,,,,,,,,,,,,,,,,,,,,,,,,,,,,,,,
,,,,,,,,,,00001598050,2020-10-23_17h18.15.704,swahili,2020.2.4,Win32,60,,,,,,,,,,-0.460106367,-0.008973111,1,0,0,0.980154999,unsorted_card,14,0,14,0,1,,,,,,,,,,,,,,,,,,,,,,,,,,,,,,,,,,,,,,,,,,,,,,,,,,,,,,,,,,,,,,,,,,,,,,,,,,,,,,,,,
,,,,,,,,,,00001598050,2020-10-23_17h18.15.704,swahili,2020.2.4,Win32,60,,,,,,,,,,0.584219905,-0.484878741,1,0,0,2.181709999,done_pile,15,0,15,0,1,TREASURE - DAFINA,,,,,,,,,,,,,,,,,,,,,,,,,,,,,,,,,,,,,,,,,,,,,,,,,,,,,,,,,,,,,,,,,,,,,,,,,,,,,,,,
,,,,,,,,,,00001598050,2020-10-23_17h18.15.704,swahili,2020.2.4,Win32,60,,,,,,,,,,,,,,,,,,,,,,,,,,,,,,,,,,0,0,0,0,1,,,,,,,,,,,,,,,,,,,,,,,,,,,,,,,,,,,,,,,,,,,,,,,,,,,,,,,,,,,,,,,,
,,,,,,,,,,00001598050,2020-10-23_17h18.15.704,swahili,2020.2.4,Win32,60,,,,,,,,,,,,,,,,,,,,,,,,,,,,,,,,,,,,,,,return,,,,,,,,,,,1.503180001,2.581,0.520390116,-0.102027284,1,0,0,1.583865,yes,GRAPES,ZABIBU,incorrect,0,0,0,0,1,,,,,,,,,,,,,,,,,,,,,,,,,,,,,,,,,,,,
,,,,,,,,,,00001598050,2020-10-23_17h18.15.704,swahili,2020.2.4,Win32,60,,,,,,,,,,,,,,,,,,,,,,,,,,,,,,,,,,,,,,,,,,,,,,,,,,,1.879729999,0.599290936,0.065470228,1,0,0,0.96731,yes,DIVORCE,TALAKA,incorrect,1,0,1,0,1,,,,,,,,,,,,,,,,,,,,,,,,,,,,,,,,,,,,
,,,,,,,,,,00001598050,2020-10-23_17h18.15.704,swahili,2020.2.4,Win32,60,,,,,,,,,,,,,,,,,,,,,,,,,,,,,,,,,,,,,,,,,,,,,,,,,,,4.46267,0.466312209,0.052176775,1,0,0,1.35007,yes,MERCHANT,TAJIRI,incorrect,2,0,2,0,1,,,,,,,,,,,,,,,,,,,,,,,,,,,,,,,,,,,,
,,,,,,,,,,00001598050,2020-10-23_17h18.15.704,swahili,2020.2.4,Win32,60,,,,,,,,,,,,,,,,,,,,,,,,,,,,,,,,,,,,,,,,,,,,,,,,,,,2.97955,0.525709265,0.046859393,1,0,0,1.083285,yes,YEAST,YAMIRA,incorrect,3,0,3,0,1,,,,,,,,,,,,,,,,,,,,,,,,,,,,,,,,,,,,
,,,,,,,,,,00001598050,2020-10-23_17h18.15.704,swahili,2020.2.4,Win32,60,,,,,,,,,,,,,,,,,,,,,,,,,,,,,,,,,,,,,,,,,,,,,,,,,,,6.8794,0.286347556,-0.175141359,1,0,0,0.916955,yes,PARROT,KASUKU,incorrect,4,0,4,0,1,,,,,,,,,,,,,,,,,,,,,,,,,,,,,,,,,,,,
,,,,,,,,,,00001598050,2020-10-23_17h18.15.704,swahili,2020.2.4,Win32,60,,,,,,,,,,,,,,,,,,,,,,,,,,,,,,,,,,,,,,,,,,,,,,,,,,,1.895415001,0.495567529,0.058823501,1,0,0,0.88329,yes,BOAT,MASHUA,incorrect,5,0,5,0,1,,,,,,,,,,,,,,,,,,,,,,,,,,,,,,,,,,,,
,,,,,,,,,,00001598050,2020-10-23_17h18.15.704,swahili,2020.2.4,Win32,60,,,,,,,,,,,,,,,,,,,,,,,,,,,,,,,,,,,,,,,,,,,,,,,,,,,3.16279,0.495567529,0.058823501,1,0,0,1.066925,yes,PLATE,SAHANI,incorrect,6,0,6,0,1,,,,,,,,,,,,,,,,,,,,,,,,,,,,,,,,,,,,
,,,,,,,,,,00001598050,2020-10-23_17h18.15.704,swahili,2020.2.4,Win32,60,,,,,,,,,,,,,,,,,,,,,,,,,,,,,,,,,,,,,,,,0,0,0,0,1,,,,,,,,,,,,,,,,,,,,,,,,,,,,,,,,,,,,,,,,,,,,,,,,,,,,,,,,,,
,,,,,,,,,,00001598050,2020-10-23_17h18.15.704,swahili,2020.2.4,Win32,60,,,,,,,,,,,,,,,,,,,,,,,,,,,,,,,,,,,,,,,,1,0,1,0,1,,,,,,,,,,,,,,,,,,,,,,,,,,,,,,,,,,,,,,,,,,,,,,,,,,,,,,,,,,
,,,,,,,,,,00001598050,2020-10-23_17h18.15.704,swahili,2020.2.4,Win32,60,,,,,,,,,,,,,,,,,,,,,,,,,,,,,,,,,,,,,,,,,,,,,6,0,6,0,1,,,,,,,,,,,,,,,,,,,,,,,,,,,,,,,,,,,,,,,,,,,,,,,,,,,,,
,,,,,,,,,,00001598050,2020-10-23_17h18.15.704,swahili,2020.2.4,Win32,60,,,,,,,,,,-0.182624089,0.05350612,1,0,0,1.287994999,unsorted_card,0,0,0,0,1,,,,,,,,,,,,,,,,,,,,,,,,,,,,,,,,,,,,,,,,,,,,,,,,,,,,,,,,,,,,,,,,,,,,,,,,,,,,,,,,,
,,,,,,,,,,00001598050,2020-10-23_17h18.15.704,swahili,2020.2.4,Win32,60,,,,,,,,,,0.453900753,0.030907249,1,0,0,8.43148,test_pile,1,0,1,0,1,MERCHANT - TAJIRI,,,,,,,,,,,,,,,,,,,,,,,,,,,,,,,,,,,,,,,,,,,,,,,,,,,,,,,,,,,,,,,,,,,,,,,,,,,,,,,,
,,,,,,,,,,00001598050,2020-10-23_17h18.15.704,swahili,2020.2.4,Win32,60,,,,,,,,,,-0.388297854,0.0734463,1,0,0,0.89642,unsorted_card,2,0,2,0,1,,,,,,,,,,,,,,,,,,,,,,,,,,,,,,,,,,,,,,,,,,,,,,,,,,,,,,,,,,,,,,,,,,,,,,,,,,,,,,,,,
,,,,,,,,,,00001598050,2020-10-23_17h18.15.704,swahili,2020.2.4,Win32,60,,,,,,,,,,0.538120721,-0.462279871,1,0,0,2.465165,done_pile,3,0,3,0,1,PARROT - KASUKU,,,,,,,,,,,,,,,,,,,,,,,,,,,,,,,,,,,,,,,,,,,,,,,,,,,,,,,,,,,,,,,,,,,,,,,,,,,,,,,,
,,,,,,,,,,00001598050,2020-10-23_17h18.15.704,swahili,2020.2.4,Win32,60,,,,,,,,,,-0.349290761,0.010967069,1,0,0,0.92891,unsorted_card,4,0,4,0,1,,,,,,,,,,,,,,,,,,,,,,,,,,,,,,,,,,,,,,,,,,,,,,,,,,,,,,,,,,,,,,,,,,,,,,,,,,,,,,,,,
,,,,,,,,,,00001598050,2020-10-23_17h18.15.704,swahili,2020.2.4,Win32,60,,,,,,,,,,0.55585111,-0.470255943,1,0,0,1.533465,done_pile,5,0,5,0,1,PLATE - SAHANI,,,,,,,,,,,,,,,,,,,,,,,,,,,,,,,,,,,,,,,,,,,,,,,,,,,,,,,,,,,,,,,,,,,,,,,,,,,,,,,,
,,,,,,,,,,00001598050,2020-10-23_17h18.15.704,swahili,2020.2.4,Win32,60,,,,,,,,,,-0.267730475,-0.163177251,1,0,0,1.131425001,unsorted_card,6,0,6,0,1,,,,,,,,,,,,,,,,,,,,,,,,,,,,,,,,,,,,,,,,,,,,,,,,,,,,,,,,,,,,,,,,,,,,,,,,,,,,,,,,,
,,,,,,,,,,00001598050,2020-10-23_17h18.15.704,swahili,2020.2.4,Win32,60,,,,,,,,,,0.496453945,-0.023595991,1,0,0,2.213975001,test_pile,7,0,7,0,1,YEAST - HAMIRA,,,,,,,,,,,,,,,,,,,,,,,,,,,,,,,,,,,,,,,,,,,,,,,,,,,,,,,,,,,,,,,,,,,,,,,,,,,,,,,,
,,,,,,,,,,00001598050,2020-10-23_17h18.15.704,swahili,2020.2.4,Win32,60,,,,,,,,,,-0.438829771,-0.032901327,1,0,0,0.914625,unsorted_card,8,0,8,0,1,,,,,,,,,,,,,,,,,,,,,,,,,,,,,,,,,,,,,,,,,,,,,,,,,,,,,,,,,,,,,,,,,,,,,,,,,,,,,,,,,
,,,,,,,,,,00001598050,2020-10-23_17h18.15.704,swahili,2020.2.4,Win32,60,,,,,,,,,,0.476950507,-0.527417792,1,0,0,3.064974999,done_pile,9,0,9,0,1,GRAPES - ZABIBU,,,,,,,,,,,,,,,,,,,,,,,,,,,,,,,,,,,,,,,,,,,,,,,,,,,,,,,,,,,,,,,,,,,,,,,,,,,,,,,,
,,,,,,,,,,00001598050,2020-10-23_17h18.15.704,swahili,2020.2.4,Win32,60,,,,,,,,,,-0.388297854,0.134596186,1,0,0,0.814309999,unsorted_card,10,0,10,0,1,,,,,,,,,,,,,,,,,,,,,,,,,,,,,,,,,,,,,,,,,,,,,,,,,,,,,,,,,,,,,,,,,,,,,,,,,,,,,,,,,
,,,,,,,,,,00001598050,2020-10-23_17h18.15.704,swahili,2020.2.4,Win32,60,,,,,,,,,,0.487588805,-0.575274224,1,0,0,2.864625001,done_pile,11,0,11,0,1,DIVORCE - TALAKA,,,,,,,,,,,,,,,,,,,,,,,,,,,,,,,,,,,,,,,,,,,,,,,,,,,,,,,,,,,,,,,,,,,,,,,,,,,,,,,,
,,,,,,,,,,00001598050,2020-10-23_17h18.15.704,swahili,2020.2.4,Win32,60,,,,,,,,,,-0.359042534,-0.116650083,1,0,0,0.94798,unsorted_card,12,0,12,0,1,,,,,,,,,,,,,,,,,,,,,,,,,,,,,,,,,,,,,,,,,,,,,,,,,,,,,,,,,,,,,,,,,,,,,,,,,,,,,,,,,
,,,,,,,,,,00001598050,2020-10-23_17h18.15.704,swahili,2020.2.4,Win32,60,,,,,,,,,,0.532801572,-0.49684285,1,0,0,1.914929999,done_pile,13,0,13,0,1,BOAT - MASHUA,,,,,,,,,,,,,,,,,,,,,,,,,,,,,,,,,,,,,,,,,,,,,,,,,,,,,,,,,,,,,,,,,,,,,,,,,,,,,,,,
,,,,,,,,,,00001598050,2020-10-23_17h18.15.704,swahili,2020.2.4,Win32,60,,,,,,,,,,,,,,,,,,,,,,,,,,,,,,,,,,0,0,0,0,1,,,,,,,,,,,,,,,,,,,,,,,,,,,,,,,,,,,,,,,,,,,,,,,,,,,,,,,,,,,,,,,,
,,,,,,,,,,00001598050,2020-10-23_17h18.15.704,swahili,2020.2.4,Win32,60,,,,,,,,,,,,,,,,,,,,,,,,,,,,,,,,,,,,,,,return,,,,,,,,,,,2.084175,2.482035,0.257092236,-0.06613496,1,0,0,0.900425,yes,MERCHANT,TAJIRI,incorrect,0,0,0,0,1,,,,,,,,,,,,,,,,,,,,,,,,,,,,,,,,,,,,
,,,,,,,,,,00001598050,2020-10-23_17h18.15.704,swahili,2020.2.4,Win32,60,,,,,,,,,,,,,,,,,,,,,,,,,,,,,,,,,,,,,,,,,,,,,,,,,,,2.04683,0.64361707,0.177135236,1,0,0,1.567089999,yes,YEAST,YAMIRA,incorrect,1,0,1,0,1,,,,,,,,,,,,,,,,,,,,,,,,,,,,,,,,,,,,
,,,,,,,,,,00001598050,2020-10-23_17h18.15.704,swahili,2020.2.4,Win32,60,,,,,,,,,,,,,,,,,,,,,,,,,,,,,,,,,,,,,,,,0,0,0,0,1,,,,,,,,,,,,,,,,,,,,,,,,,,,,,,,,,,,,,,,,,,,,,,,,,,,,,,,,,,
,,,,,,,,,,00001598050,2020-10-23_17h18.15.704,swahili,2020.2.4,Win32,60,,,,,,,,,,,,,,,,,,,,,,,,,,,,,,,,,,,,,,,,1,0,1,0,1,,,,,,,,,,,,,,,,,,,,,,,,,,,,,,,,,,,,,,,,,,,,,,,,,,,,,,,,,,
,,,,,,,,,,00001598050,2020-10-23_17h18.15.704,swahili,2020.2.4,Win32,60,,,,,,,,,,,,,,,,,,,,,,,,,,,,,,,,,,,,,,,,,,,,,7,0,7,0,1,,,,,,,,,,,,,,,,,,,,,,,,,,,,,,,,,,,,,,,,,,,,,,,,,,,,,
,,,,,,,,,,00001598050,2020-10-23_17h18.15.704,swahili,2020.2.4,Win32,60,,,,,,,,,,-0.305851043,-0.148554371,1,0,0,1.17657,unsorted_card,0,0,0,0,1,,,,,,,,,,,,,,,,,,,,,,,,,,,,,,,,,,,,,,,,,,,,,,,,,,,,,,,,,,,,,,,,,,,,,,,,,,,,,,,,,
,,,,,,,,,,00001598050,2020-10-23_17h18.15.704,swahili,2020.2.4,Win32,60,,,,,,,,,,0.599290936,-0.500830886,1,0,0,1.59798,done_pile,1,0,1,0,1,MERCHANT - TAJIRI,,,,,,,,,,,,,,,,,,,,,,,,,,,,,,,,,,,,,,,,,,,,,,,,,,,,,,,,,,,,,,,,,,,,,,,,,,,,,,,,
,,,,,,,,,,00001598050,2020-10-23_17h18.15.704,swahili,2020.2.4,Win32,60,,,,,,,,,,-0.392730478,0.096045171,1,0,0,0.731504999,unsorted_card,2,0,2,0,1,,,,,,,,,,,,,,,,,,,,,,,,,,,,,,,,,,,,,,,,,,,,,,,,,,,,,,,,,,,,,,,,,,,,,,,,,,,,,,,,,
,,,,,,,,,,00001598050,2020-10-23_17h18.15.704,swahili,2020.2.4,Win32,60,,,,,,,,,,0.450354761,-0.012961147,1,0,0,1.597564999,test_pile,3,0,3,0,1,YEAST - HAMIRA,,,,,,,,,,,,,,,,,,,,,,,,,,,,,,,,,,,,,,,,,,,,,,,,,,,,,,,,,,,,,,,,,,,,,,,,,,,,,,,,
,,,,,,,,,,00001598050,2020-10-23_17h18.15.704,swahili,2020.2.4,Win32,60,,,,,,,,,,,,,,,,,,,,,,,,,,,,,,,,,,0,0,0,0,1,,,,,,,,,,,,,,,,,,,,,,,,,,,,,,,,,,,,,,,,,,,,,,,,,,,,,,,,,,,,,,,,
,,,,,,,,,,00001598050,2020-10-23_17h18.15.704,swahili,2020.2.4,Win32,60,,,,,,,,,,,,,,,,,,,,,,,,,,,,,,,,,,,,,,,return,,,,,,,,,,,3.566924999,1.414700001,0.513297917,-0.047524207,1,0,0,0.933784999,yes,YEAST,HAMIRA,incorrect,0,0,0,0,1,,,,,,,,,,,,,,,,,,,,,,,,,,,,,,,,,,,,
,,,,,,,,,,00001598050,2020-10-23_17h18.15.704,swahili,2020.2.4,Win32,60,,,,,,,,,,,,,,,,,,,,,,,,,,,,,,,,,,,,,,,,0,0,0,0,1,,,,,,,,,,,,,,,,,,,,,,,,,,,,,,,,,,,,,,,,,,,,,,,,,,,,,,,,,,
,,,,,,,,,,00001598050,2020-10-23_17h18.15.704,swahili,2020.2.4,Win32,60,,,,,,,,,,,,,,,,,,,,,,,,,,,,,,,,,,,,,,,,1,0,1,0,1,,,,,,,,,,,,,,,,,,,,,,,,,,,,,,,,,,,,,,,,,,,,,,,,,,,,,,,,,,
,,,,,,,,,,00001598050,2020-10-23_17h18.15.704,swahili,2020.2.4,Win32,60,,,,,,,,,,,,,,,,,,,,,,,,,,,,,,,,,,,,,,,,,,,,,8,0,8,0,1,,,,,,,,,,,,,,,,,,,,,,,,,,,,,,,,,,,,,,,,,,,,,,,,,,,,,
,,,,,,,,,,00001598050,2020-10-23_17h18.15.704,swahili,2020.2.4,Win32,60,,,,,,,,,,-0.20478721,-0.039548135,1,0,0,1.678815,unsorted_card,0,0,0,0,1,,,,,,,,,,,,,,,,,,,,,,,,,,,,,,,,,,,,,,,,,,,,,,,,,,,,,,,,,,,,,,,,,,,,,,,,,,,,,,,,,
,,,,,,,,,,00001598050,2020-10-23_17h18.15.704,swahili,2020.2.4,Win32,60,,,,,,,,,,0.505319194,-0.430375583,1,0,0,0.94798,done_pile,1,0,1,0,1,YEAST - HAMIRA,,,,,,,,,,,,,,,,,,,,,,,,,,,,,,,,,,,,,,,,,,,,,,,,,,,,,,,,,,,,,,,,,,,,,,,,,,,,,,,,
,,,,,,,,,,00001598050,2020-10-23_17h18.15.704,swahili,2020.2.4,Win32,60,,,,,,,,,,,,,,,,,,,,,,,,,,,,,,,,,,,,,,,,0,0,0,0,1,,,,,,,,,,,,,,,,,,,,,,,,,,,,,,,,,,,,,,,,,,,,,,,,,,,,,,,,,,
,,,,,,,,,,00001598050,2020-10-23_17h18.15.704,swahili,2020.2.4,Win32,60,,,,,,,,,,,,,,,,,,,,,,,,,,,,,,,,,,,,,,,,1,0,1,0,1,,,,,,,,,,,,,,,,,,,,,,,,,,,,,,,,,,,,,,,,,,,,,,,,,,,,,,,,,,
,,,,,,,,,,00001598050,2020-10-23_17h18.15.704,swahili,2020.2.4,Win32,60,,,,,,,,SAMADI,MANURE,,,,,,,,,,,,,,,,,,,,,,,,,,,,,,,,,,,,,,,,,,2.352755001,,,,,,,,,SAMADI,correct,,,,,,return,6.452329999,return,1.084015001,return,3.383625001,0,0,0,13,1,,,,,,,,,,,,,,,,,,,,,,,,,
,,,,,,,,,,00001598050,2020-10-23_17h18.15.704,swahili,2020.2.4,Win32,60,,,,,,,,UTENZI,POEM,,,,,,,,,,,,,,,,,,,,,,,,,,,,,,,,,,,,,,,,,,1.965459999,,,,,,,,,UTENZI,correct,,,,,,,,,,,,0,1,1,8,1,,,,,,,,,,,,,,,,,,,,,,,,,
,,,,,,,,,,00001598050,2020-10-23_17h18.15.704,swahili,2020.2.4,Win32,60,,,,,,,,SAHANI,PLATE,,,,,,,,,,,,,,,,,,,,,,,,,,,,,,,,,,,,,,,,,,2.182305001,,,,,,,,,SAHANI,correct,,,,,,,,,,,,0,2,2,3,1,,,,,,,,,,,,,,,,,,,,,,,,,
,,,,,,,,,,00001598050,2020-10-23_17h18.15.704,swahili,2020.2.4,Win32,60,,,,,,,,MSHONI,TAILOR,,,,,,,,,,,,,,,,,,,,,,,,,,,,,,,,,,,,,,,,,,3.264304999,,,,,,,,,TAJIRI,incorrect,,,,,,,,,,,,0,3,3,9,1,,,,,,,,,,,,,,,,,,,,,,,,,
,,,,,,,,,,00001598050,2020-10-23_17h18.15.704,swahili,2020.2.4,Win32,60,,,,,,,,LAWAMA,BLAME,,,,,,,,,,,,,,,,,,,,,,,,,,,,,,,,,,,,,,,,,,7.48236,,,,,,,,,LAWAMA,correct,,,,,,,,,,,,0,4,4,5,1,,,,,,,,,,,,,,,,,,,,,,,,,
,,,,,,,,,,00001598050,2020-10-23_17h18.15.704,swahili,2020.2.4,Win32,60,,,,,,,,RUSHWA,BRIBE,,,,,,,,,,,,,,,,,,,,,,,,,,,,,,,,,,,,,,,,,,6.513444999,,,,,,,,,RUSHWA,correct,,,,,,,,,,,,0,5,5,15,1,,,,,,,,,,,,,,,,,,,,,,,,,
,,,,,,,,,,00001598050,2020-10-23_17h18.15.704,swahili,2020.2.4,Win32,60,,,,,,,,YAMINI,OATH,,,,,,,,,,,,,,,,,,,,,,,,,,,,,,,,,,,,,,,,,,4.481260002,,,,,,,,,YAMINI,correct,,,,,,,,,,,,0,6,6,6,1,,,,,,,,,,,,,,,,,,,,,,,,,
,,,,,,,,,,00001598050,2020-10-23_17h18.15.704,swahili,2020.2.4,Win32,60,,,,,,,,DAFINA,TREASURE,,,,,,,,,,,,,,,,,,,,,,,,,,,,,,,,,,,,,,,,,,2.581204999,,,,,,,,,DAFINA,correct,,,,,,,,,,,,0,7,7,19,1,,,,,,,,,,,,,,,,,,,,,,,,,
,,,,,,,,,,00001598050,2020-10-23_17h18.15.704,swahili,2020.2.4,Win32,60,,,,,,,,MASHUA,BOAT,,,,,,,,,,,,,,,,,,,,,,,,,,,,,,,,,,,,,,,,,,1.981655,,,,,,,,,MASHUA,correct,,,,,,,,,,,,0,8,8,18,1,,,,,,,,,,,,,,,,,,,,,,,,,
