condition,consent_key.keys,consent_key.rt,done_with_instructions.keys,done_with_instructions.rt,instr_loop.thisRepN,instr_loop.thisTrialN,instr_loop.thisN,instr_loop.thisIndex,instr_loop.ran,Student ID #,date,expName,psychopyVersion,OS,frameRate,instr_learning_key.keys,instr_learning_key.rt,card_gen_loop.thisRepN,card_gen_loop.thisTrialN,card_gen_loop.thisN,card_gen_loop.thisIndex,card_gen_loop.ran,swa,eng,choose_pile.x,choose_pile.y,choose_pile.leftButton,choose_pile.midButton,choose_pile.rightButton,choose_pile.time,choose_pile.clicked_name,choices.thisRepN,choices.thisTrialN,choices.thisN,choices.thisIndex,choices.ran,card_to_show,mouse_pick.x,mouse_pick.y,mouse_pick.leftButton,mouse_pick.midButton,mouse_pick.rightButton,mouse_pick.time,mouse_pick.clicked_name,key_instr_study.keys,key_instr_test.keys,learn_loop.thisRepN,learn_loop.thisTrialN,learn_loop.thisN,learn_loop.thisIndex,learn_loop.ran,instr_movie_key.keys,instr_movie_key.rt,return_to_exp.keys,return_to_exp.rt,instr_assess_key.keys,instr_assess_key.rt,test_response.resp,test_response.eval,duration,assess_loop.thisRepN,assess_loop.thisTrialN,assess_loop.thisN,assess_loop.thisIndex,assess_loop.ran,ans_gen_loop.thisRepN,ans_gen_loop.thisTrialN,ans_gen_loop.thisN,ans_gen_loop.thisIndex,ans_gen_loop.ran,sen,ans,instr_transfer_key.keys,instr_transfer_key.rt,transfer_response.resp,transfer_response.eval,select_word.x,select_word.y,select_word.leftButton,select_word.midButton,select_word.rightButton,select_word.time,select_word.clicked_name,transfers.thisRepN,transfers.thisTrialN,transfers.thisN,transfers.thisIndex,transfers.ran,end_experiment.keys,end_experiment.rt
1,return,1.672755,return,1.346785,0,0,0,0,1,1448234,2020-10-18_16h21.47.655,swahili,2020.2.4,MacIntel,60,,,,,,,,,,,,,,,,,,,,,,,,,,,,,,,,,,,,,,,,,,,,,,,,,,,,,,,,,,,,,,,,,,,,,,,,,,,
,,,,,,,,,,1448234,2020-10-18_16h21.47.655,swahili,2020.2.4,MacIntel,60,return,1.061375,0,0,0,0,1,TAJIRI,MERCHANT,,,,,,,,,,,,,,,,,,,,,,,,,,,,,,,,,,,,,,,,,,,,,,,,,,,,,,,,,,,,,,,,,,
,,,,,,,,,,1448234,2020-10-18_16h21.47.655,swahili,2020.2.4,MacIntel,60,,,0,1,1,1,1,KASUKU,PARROT,,,,,,,,,,,,,,,,,,,,,,,,,,,,,,,,,,,,,,,,,,,,,,,,,,,,,,,,,,,,,,,,,,
,,,,,,,,,,1448234,2020-10-18_16h21.47.655,swahili,2020.2.4,MacIntel,60,,,0,2,2,2,1,FAHILI,BULL,,,,,,,,,,,,,,,,,,,,,,,,,,,,,,,,,,,,,,,,,,,,,,,,,,,,,,,,,,,,,,,,,,
,,,,,,,,,,1448234,2020-10-18_16h21.47.655,swahili,2020.2.4,MacIntel,60,,,0,3,3,3,1,SAHANI,PLATE,,,,,,,,,,,,,,,,,,,,,,,,,,,,,,,,,,,,,,,,,,,,,,,,,,,,,,,,,,,,,,,,,,
,,,,,,,,,,1448234,2020-10-18_16h21.47.655,swahili,2020.2.4,MacIntel,60,,,0,4,4,4,1,HAMIRA,YEAST,,,,,,,,,,,,,,,,,,,,,,,,,,,,,,,,,,,,,,,,,,,,,,,,,,,,,,,,,,,,,,,,,,
,,,,,,,,,,1448234,2020-10-18_16h21.47.655,swahili,2020.2.4,MacIntel,60,,,0,5,5,5,1,LAWAMA,BLAME,,,,,,,,,,,,,,,,,,,,,,,,,,,,,,,,,,,,,,,,,,,,,,,,,,,,,,,,,,,,,,,,,,
,,,,,,,,,,1448234,2020-10-18_16h21.47.655,swahili,2020.2.4,MacIntel,60,,,0,6,6,6,1,YAMINI,OATH,,,,,,,,,,,,,,,,,,,,,,,,,,,,,,,,,,,,,,,,,,,,,,,,,,,,,,,,,,,,,,,,,,
,,,,,,,,,,1448234,2020-10-18_16h21.47.655,swahili,2020.2.4,MacIntel,60,,,0,7,7,7,1,NAFAKA,CORN,,,,,,,,,,,,,,,,,,,,,,,,,,,,,,,,,,,,,,,,,,,,,,,,,,,,,,,,,,,,,,,,,,
,,,,,,,,,,1448234,2020-10-18_16h21.47.655,swahili,2020.2.4,MacIntel,60,,,0,8,8,8,1,UTENZI,POEM,,,,,,,,,,,,,,,,,,,,,,,,,,,,,,,,,,,,,,,,,,,,,,,,,,,,,,,,,,,,,,,,,,
,,,,,,,,,,1448234,2020-10-18_16h21.47.655,swahili,2020.2.4,MacIntel,60,,,0,9,9,9,1,MSHONI,TAILOR,,,,,,,,,,,,,,,,,,,,,,,,,,,,,,,,,,,,,,,,,,,,,,,,,,,,,,,,,,,,,,,,,,
,,,,,,,,,,1448234,2020-10-18_16h21.47.655,swahili,2020.2.4,MacIntel,60,,,0,10,10,10,1,JIBINI,CHEESE,,,,,,,,,,,,,,,,,,,,,,,,,,,,,,,,,,,,,,,,,,,,,,,,,,,,,,,,,,,,,,,,,,
,,,,,,,,,,1448234,2020-10-18_16h21.47.655,swahili,2020.2.4,MacIntel,60,,,0,11,11,11,1,ZABIBU,GRAPES,,,,,,,,,,,,,,,,,,,,,,,,,,,,,,,,,,,,,,,,,,,,,,,,,,,,,,,,,,,,,,,,,,
,,,,,,,,,,1448234,2020-10-18_16h21.47.655,swahili,2020.2.4,MacIntel,60,,,0,12,12,12,1,KABURI,GRAVE,,,,,,,,,,,,,,,,,,,,,,,,,,,,,,,,,,,,,,,,,,,,,,,,,,,,,,,,,,,,,,,,,,
,,,,,,,,,,1448234,2020-10-18_16h21.47.655,swahili,2020.2.4,MacIntel,60,,,0,13,13,13,1,SAMADI,MANURE,,,,,,,,,,,,,,,,,,,,,,,,,,,,,,,,,,,,,,,,,,,,,,,,,,,,,,,,,,,,,,,,,,
,,,,,,,,,,1448234,2020-10-18_16h21.47.655,swahili,2020.2.4,MacIntel,60,,,0,14,14,14,1,WAKILI,AGENT,,,,,,,,,,,,,,,,,,,,,,,,,,,,,,,,,,,,,,,,,,,,,,,,,,,,,,,,,,,,,,,,,,
,,,,,,,,,,1448234,2020-10-18_16h21.47.655,swahili,2020.2.4,MacIntel,60,,,0,15,15,15,1,RUSHWA,BRIBE,,,,,,,,,,,,,,,,,,,,,,,,,,,,,,,,,,,,,,,,,,,,,,,,,,,,,,,,,,,,,,,,,,
,,,,,,,,,,1448234,2020-10-18_16h21.47.655,swahili,2020.2.4,MacIntel,60,,,0,16,16,16,1,YATIMA,ORPHAN,,,,,,,,,,,,,,,,,,,,,,,,,,,,,,,,,,,,,,,,,,,,,,,,,,,,,,,,,,,,,,,,,,
,,,,,,,,,,1448234,2020-10-18_16h21.47.655,swahili,2020.2.4,MacIntel,60,,,0,17,17,17,1,TALAKA,DIVORCE,,,,,,,,,,,,,,,,,,,,,,,,,,,,,,,,,,,,,,,,,,,,,,,,,,,,,,,,,,,,,,,,,,
,,,,,,,,,,1448234,2020-10-18_16h21.47.655,swahili,2020.2.4,MacIntel,60,,,0,18,18,18,1,MASHUA,BOAT,,,,,,,,,,,,,,,,,,,,,,,,,,,,,,,,,,,,,,,,,,,,,,,,,,,,,,,,,,,,,,,,,,
,,,,,,,,,,1448234,2020-10-18_16h21.47.655,swahili,2020.2.4,MacIntel,60,,,0,19,19,19,1,DAFINA,TREASURE,,,,,,,,,,,,,,,,,,,,,,,,,,,,,,,,,,,,,,,,,,,,,,,,,,,,,,,,,,,,,,,,,,
,,,,,,,,,,1448234,2020-10-18_16h21.47.655,swahili,2020.2.4,MacIntel,60,,,,,,,,,,0.497927517,-0.443324653,1,0,0,1.635095,done_pile,0,0,0,0,1,,,,,,,,,,,,,,,,,,,,,,,,,,,,,,,,,,,,,,,,,,,,,,,,,,,,,,
,,,,,,,,,,1448234,2020-10-18_16h21.47.655,swahili,2020.2.4,MacIntel,60,,,,,,,,,,0.497927517,-0.443324653,1,0,0,0.24551,done_pile,1,0,1,0,1,,,,,,,,,,,,,,,,,,,,,,,,,,,,,,,,,,,,,,,,,,,,,,,,,,,,,,
,,,,,,,,,,1448234,2020-10-18_16h21.47.655,swahili,2020.2.4,MacIntel,60,,,,,,,,,,0.497927517,-0.443324653,1,0,0,0.21541,done_pile,2,0,2,0,1,,,,,,,,,,,,,,,,,,,,,,,,,,,,,,,,,,,,,,,,,,,,,,,,,,,,,,
,,,,,,,,,,1448234,2020-10-18_16h21.47.655,swahili,2020.2.4,MacIntel,60,,,,,,,,,,-0.314735243,-0.222699653,1,0,0,0.7681,unsorted_card,3,0,3,0,1,,,,,,,,,,,,,,,,,,,,,,,,,,,,,,,,,,,,,,,,,,,,,,,,,,,,,,
,,,,,,,,,,1448234,2020-10-18_16h21.47.655,swahili,2020.2.4,MacIntel,60,,,,,,,,,,-0.242822266,-0.277074653,1,0,0,0.84958,unsorted_card,4,0,4,0,1,MERCHANT - TAJIRI,,,,,,,,,,,,,,,,,,,,,,,,,,,,,,,,,,,,,,,,,,,,,,,,,,,,,
,,,,,,,,,,1448234,2020-10-18_16h21.47.655,swahili,2020.2.4,MacIntel,60,,,,,,,,,,0.366606988,-0.423732639,1,0,0,1.216015,done_pile,5,0,5,0,1,MERCHANT - TAJIRI,,,,,,,,,,,,,,,,,,,,,,,,,,,,,,,,,,,,,,,,,,,,,,,,,,,,,
,,,,,,,,,,1448234,2020-10-18_16h21.47.655,swahili,2020.2.4,MacIntel,60,,,,,,,,,,-0.393272569,-0.077638889,1,0,0,0.61489,unsorted_card,6,0,6,0,1,,,,,,,,,,,,,,,,,,,,,,,,,,,,,,,,,,,,,,,,,,,,,,,,,,,,,,
,,,,,,,,,,1448234,2020-10-18_16h21.47.655,swahili,2020.2.4,MacIntel,60,,,,,,,,,,0.472753906,-0.479383681,1,0,0,1.4858,done_pile,7,0,7,0,1,PARROT - KASUKU,,,,,,,,,,,,,,,,,,,,,,,,,,,,,,,,,,,,,,,,,,,,,,,,,,,,,
,,,,,,,,,,1448234,2020-10-18_16h21.47.655,swahili,2020.2.4,MacIntel,60,,,,,,,,,,-0.18851454,-0.022751736,1,0,0,0.92024,unsorted_card,8,0,8,0,1,,,,,,,,,,,,,,,,,,,,,,,,,,,,,,,,,,,,,,,,,,,,,,,,,,,,,,
,,,,,,,,,,1448234,2020-10-18_16h21.47.655,swahili,2020.2.4,MacIntel,60,,,,,,,,,,0.514236111,-0.570243056,1,0,0,0.630685,done_pile,9,0,9,0,1,BULL - FAHILI,,,,,,,,,,,,,,,,,,,,,,,,,,,,,,,,,,,,,,,,,,,,,,,,,,,,,
,,,,,,,,,,1448234,2020-10-18_16h21.47.655,swahili,2020.2.4,MacIntel,60,,,,,,,,,,-0.39772678,0.076041667,1,0,0,0.63244,unsorted_card,10,0,10,0,1,,,,,,,,,,,,,,,,,,,,,,,,,,,,,,,,,,,,,,,,,,,,,,,,,,,,,,
,,,,,,,,,,1448234,2020-10-18_16h21.47.655,swahili,2020.2.4,MacIntel,60,,,,,,,,,,0.52741428,-0.446432292,1,0,0,0.848375,done_pile,11,0,11,0,1,PLATE - SAHANI,,,,,,,,,,,,,,,,,,,,,,,,,,,,,,,,,,,,,,,,,,,,,,,,,,,,,
,,,,,,,,,,1448234,2020-10-18_16h21.47.655,swahili,2020.2.4,MacIntel,60,,,,,,,,,,-0.219417318,0.006180556,1,0,0,0.582435,unsorted_card,12,0,12,0,1,,,,,,,,,,,,,,,,,,,,,,,,,,,,,,,,,,,,,,,,,,,,,,,,,,,,,,
,,,,,,,,,,1448234,2020-10-18_16h21.47.655,swahili,2020.2.4,MacIntel,60,,,,,,,,,,0.582633464,-0.502335069,1,0,0,1.13215,done_pile,13,0,13,0,1,YEAST - HAMIRA,,,,,,,,,,,,,,,,,,,,,,,,,,,,,,,,,,,,,,,,,,,,,,,,,,,,,
,,,,,,,,,,1448234,2020-10-18_16h21.47.655,swahili,2020.2.4,MacIntel,60,,,,,,,,,,-0.353179253,0.186006944,1,0,0,1.252425,unsorted_card,14,0,14,0,1,,,,,,,,,,,,,,,,,,,,,,,,,,,,,,,,,,,,,,,,,,,,,,,,,,,,,,
,,,,,,,,,,1448234,2020-10-18_16h21.47.655,swahili,2020.2.4,MacIntel,60,,,,,,,,,,0.487830946,-0.434461806,1,0,0,1.401155,done_pile,15,0,15,0,1,BLAME - LAWAMA,,,,,,,,,,,,,,,,,,,,,,,,,,,,,,,,,,,,,,,,,,,,,,,,,,,,,
,,,,,,,,,,1448234,2020-10-18_16h21.47.655,swahili,2020.2.4,MacIntel,60,,,,,,,,,,-0.389860026,-0.055772569,1,0,0,0.766975,unsorted_card,16,0,16,0,1,,,,,,,,,,,,,,,,,,,,,,,,,,,,,,,,,,,,,,,,,,,,,,,,,,,,,,
,,,,,,,,,,1448234,2020-10-18_16h21.47.655,swahili,2020.2.4,MacIntel,60,,,,,,,,,,0.501453993,-0.545060764,1,0,0,0.882265,done_pile,17,0,17,0,1,OATH - YAMINI,,,,,,,,,,,,,,,,,,,,,,,,,,,,,,,,,,,,,,,,,,,,,,,,,,,,,
,,,,,,,,,,1448234,2020-10-18_16h21.47.655,swahili,2020.2.4,MacIntel,60,,,,,,,,,,-0.330881076,0.039548611,1,0,0,0.649475,unsorted_card,18,0,18,0,1,,,,,,,,,,,,,,,,,,,,,,,,,,,,,,,,,,,,,,,,,,,,,,,,,,,,,,
,,,,,,,,,,1448234,2020-10-18_16h21.47.655,swahili,2020.2.4,MacIntel,60,,,,,,,,,,0.587299262,-0.429626736,1,0,0,1.04888,done_pile,19,0,19,0,1,CORN - NAFAKA,,,,,,,,,,,,,,,,,,,,,,,,,,,,,,,,,,,,,,,,,,,,,,,,,,,,,
,,,,,,,,,,1448234,2020-10-18_16h21.47.655,swahili,2020.2.4,MacIntel,60,,,,,,,,,,-0.202370877,0.089565972,1,0,0,0.815335,unsorted_card,20,0,20,0,1,,,,,,,,,,,,,,,,,,,,,,,,,,,,,,,,,,,,,,,,,,,,,,,,,,,,,,
,,,,,,,,,,1448234,2020-10-18_16h21.47.655,swahili,2020.2.4,MacIntel,60,,,,,,,,,,0.52867296,-0.527309028,1,0,0,2.0851,done_pile,21,0,21,0,1,POEM - UTENZI,,,,,,,,,,,,,,,,,,,,,,,,,,,,,,,,,,,,,,,,,,,,,,,,,,,,,
,,,,,,,,,,1448234,2020-10-18_16h21.47.655,swahili,2020.2.4,MacIntel,60,,,,,,,,,,-0.204877387,0.002248264,1,0,0,0.799335,unsorted_card,22,0,22,0,1,,,,,,,,,,,,,,,,,,,,,,,,,,,,,,,,,,,,,,,,,,,,,,,,,,,,,,
,,,,,,,,,,1448234,2020-10-18_16h21.47.655,swahili,2020.2.4,MacIntel,60,,,,,,,,,,0.338812934,-0.544105903,1,0,0,1.065355,done_pile,23,0,23,0,1,TAILOR - MSHONI,,,,,,,,,,,,,,,,,,,,,,,,,,,,,,,,,,,,,,,,,,,,,,,,,,,,,
,,,,,,,,,,1448234,2020-10-18_16h21.47.655,swahili,2020.2.4,MacIntel,60,,,,,,,,,,-0.247856988,-0.085052083,1,0,0,1.116285,unsorted_card,24,0,24,0,1,,,,,,,,,,,,,,,,,,,,,,,,,,,,,,,,,,,,,,,,,,,,,,,,,,,,,,
,,,,,,,,,,1448234,2020-10-18_16h21.47.655,swahili,2020.2.4,MacIntel,60,,,,,,,,,,0.443337674,-0.453854167,1,0,0,1.10367,done_pile,25,0,25,0,1,CHEESE - JIBINI,,,,,,,,,,,,,,,,,,,,,,,,,,,,,,,,,,,,,,,,,,,,,,,,,,,,,
,,,,,,,,,,1448234,2020-10-18_16h21.47.655,swahili,2020.2.4,MacIntel,60,,,,,,,,,,-0.276893446,-0.069088542,1,0,0,0.748165,unsorted_card,26,0,26,0,1,,,,,,,,,,,,,,,,,,,,,,,,,,,,,,,,,,,,,,,,,,,,,,,,,,,,,,
,,,,,,,,,,1448234,2020-10-18_16h21.47.655,swahili,2020.2.4,MacIntel,60,,,,,,,,,,0.475179036,-0.618949653,1,0,0,0.982715,done_pile,27,0,27,0,1,GRAPES - ZABIBU,,,,,,,,,,,,,,,,,,,,,,,,,,,,,,,,,,,,,,,,,,,,,,,,,,,,,
,,,,,,,,,,1448234,2020-10-18_16h21.47.655,swahili,2020.2.4,MacIntel,60,,,,,,,,,,-0.227365451,-0.039192708,1,0,0,0.94942,unsorted_card,28,0,28,0,1,,,,,,,,,,,,,,,,,,,,,,,,,,,,,,,,,,,,,,,,,,,,,,,,,,,,,,
,,,,,,,,,,1448234,2020-10-18_16h21.47.655,swahili,2020.2.4,MacIntel,60,,,,,,,,,,0.401231554,-0.592317708,1,0,0,1.116715,done_pile,29,0,29,0,1,GRAVE - KABURI,,,,,,,,,,,,,,,,,,,,,,,,,,,,,,,,,,,,,,,,,,,,,,,,,,,,,
,,,,,,,,,,1448234,2020-10-18_16h21.47.655,swahili,2020.2.4,MacIntel,60,,,,,,,,,,-0.202918837,-0.091006944,1,0,0,2.75515,unsorted_card,30,0,30,0,1,,,,,,,,,,,,,,,,,,,,,,,,,,,,,,,,,,,,,,,,,,,,,,,,,,,,,,
,,,,,,,,,,1448234,2020-10-18_16h21.47.655,swahili,2020.2.4,MacIntel,60,,,,,,,,,,0.498014323,-0.504105903,1,0,0,1.249565,done_pile,31,0,31,0,1,MANURE - SAMADI,,,,,,,,,,,,,,,,,,,,,,,,,,,,,,,,,,,,,,,,,,,,,,,,,,,,,
,,,,,,,,,,1448234,2020-10-18_16h21.47.655,swahili,2020.2.4,MacIntel,60,,,,,,,,,,-0.274907769,-0.205121528,1,0,0,1.734755,unsorted_card,32,0,32,0,1,,,,,,,,,,,,,,,,,,,,,,,,,,,,,,,,,,,,,,,,,,,,,,,,,,,,,,
,,,,,,,,,,1448234,2020-10-18_16h21.47.655,swahili,2020.2.4,MacIntel,60,,,,,,,,,,0.498573134,-0.556015625,1,0,0,0.934425,done_pile,33,0,33,0,1,AGENT - WAKILI,,,,,,,,,,,,,,,,,,,,,,,,,,,,,,,,,,,,,,,,,,,,,,,,,,,,,
,,,,,,,,,,1448234,2020-10-18_16h21.47.655,swahili,2020.2.4,MacIntel,60,,,,,,,,,,-0.31203342,-0.071875,1,0,0,4.02363,unsorted_card,34,0,34,0,1,,,,,,,,,,,,,,,,,,,,,,,,,,,,,,,,,,,,,,,,,,,,,,,,,,,,,,
,,,,,,,,,,1448234,2020-10-18_16h21.47.655,swahili,2020.2.4,MacIntel,60,,,,,,,,,,0.38891059,-0.398246528,1,0,0,1.032095,done_pile,35,0,35,0,1,BRIBE - RUSHWA,,,,,,,,,,,,,,,,,,,,,,,,,,,,,,,,,,,,,,,,,,,,,,,,,,,,,
,,,,,,,,,,1448234,2020-10-18_16h21.47.655,swahili,2020.2.4,MacIntel,60,,,,,,,,,,-0.247070313,-0.070069444,1,0,0,0.631935,unsorted_card,36,0,36,0,1,,,,,,,,,,,,,,,,,,,,,,,,,,,,,,,,,,,,,,,,,,,,,,,,,,,,,,
,,,,,,,,,,1448234,2020-10-18_16h21.47.655,swahili,2020.2.4,MacIntel,60,,,,,,,,,,0.41030816,-0.496527778,1,0,0,0.917795,done_pile,37,0,37,0,1,ORPHAN - YATIMA,,,,,,,,,,,,,,,,,,,,,,,,,,,,,,,,,,,,,,,,,,,,,,,,,,,,,
,,,,,,,,,,1448234,2020-10-18_16h21.47.655,swahili,2020.2.4,MacIntel,60,,,,,,,,,,-0.348703342,0.029878472,1,0,0,0.647955,unsorted_card,38,0,38,0,1,,,,,,,,,,,,,,,,,,,,,,,,,,,,,,,,,,,,,,,,,,,,,,,,,,,,,,
,,,,,,,,,,1448234,2020-10-18_16h21.47.655,swahili,2020.2.4,MacIntel,60,,,,,,,,,,0.452935113,-0.496692708,1,0,0,1.18457,done_pile,39,0,39,0,1,DIVORCE - TALAKA,,,,,,,,,,,,,,,,,,,,,,,,,,,,,,,,,,,,,,,,,,,,,,,,,,,,,
,,,,,,,,,,1448234,2020-10-18_16h21.47.655,swahili,2020.2.4,MacIntel,60,,,,,,,,,,-0.240435113,-0.022907986,1,0,0,0.81806,unsorted_card,40,0,40,0,1,,,,,,,,,,,,,,,,,,,,,,,,,,,,,,,,,,,,,,,,,,,,,,,,,,,,,,
,,,,,,,,,,1448234,2020-10-18_16h21.47.655,swahili,2020.2.4,MacIntel,60,,,,,,,,,,0.385031467,-0.449809028,1,0,0,0.799225,done_pile,41,0,41,0,1,BOAT - MASHUA,,,,,,,,,,,,,,,,,,,,,,,,,,,,,,,,,,,,,,,,,,,,,,,,,,,,,
,,,,,,,,,,1448234,2020-10-18_16h21.47.655,swahili,2020.2.4,MacIntel,60,,,,,,,,,,-0.602153863,0.121336806,1,0,0,0.66411,unsorted_card,42,0,42,0,1,,,,,,,,,,,,,,,,,,,,,,,,,,,,,,,,,,,,,,,,,,,,,,,,,,,,,,
,,,,,,,,,,1448234,2020-10-18_16h21.47.655,swahili,2020.2.4,MacIntel,60,,,,,,,,,,0.384266493,-0.542881944,1,0,0,1.516725,done_pile,43,0,43,0,1,TREASURE - DAFINA,,,,,,,,,,,,,,,,,,,,,,,,,,,,,,,,,,,,,,,,,,,,,,,,,,,,,
,,,,,,,,,,1448234,2020-10-18_16h21.47.655,swahili,2020.2.4,MacIntel,60,,,,,,,,,,,,,,,,,,,,,,,,,,,,,,,,0,0,0,0,1,,,,,,,,,,,,,,,,,,,,,,,,,,,,,,,,,,,,,,,
,,,,,,,,,,1448234,2020-10-18_16h21.47.655,swahili,2020.2.4,MacIntel,60,,,,,,,,,,,,,,,,,,,,,,,,,,,,,,,,1,0,1,0,1,,,,,,,,,,,,,,,,,,,,,,,,,,,,,,,,,,,,,,,
,,,,,,,,,,1448234,2020-10-18_16h21.47.655,swahili,2020.2.4,MacIntel,60,,,,,,,,KABURI,GRAVE,,,,,,,,,,,,,,,,,,,,,,,,,,,,return,5.04108,return,3.3472,return,2.505365,AKANI,incorrect,7.15817,0,0,0,12,1,,,,,,,,,,,,,,,,,,,,,,,,,
,,,,,,,,,,1448234,2020-10-18_16h21.47.655,swahili,2020.2.4,MacIntel,60,,,,,,,,MSHONI,TAILOR,,,,,,,,,,,,,,,,,,,,,,,,,,,,,,,,,,SANLI,incorrect,5.56153,0,1,1,9,1,,,,,,,,,,,,,,,,,,,,,,,,,
,,,,,,,,,,1448234,2020-10-18_16h21.47.655,swahili,2020.2.4,MacIntel,60,,,,,,,,MASHUA,BOAT,,,,,,,,,,,,,,,,,,,,,,,,,,,,,,,,,,OKLANI,incorrect,4.609395,0,2,2,18,1,,,,,,,,,,,,,,,,,,,,,,,,,
,,,,,,,,,,1448234,2020-10-18_16h21.47.655,swahili,2020.2.4,MacIntel,60,,,,,,,,NAFAKA,CORN,,,,,,,,,,,,,,,,,,,,,,,,,,,,,,,,,,SANKI,incorrect,5.12673,0,3,3,7,1,,,,,,,,,,,,,,,,,,,,,,,,,
,,,,,,,,,,1448234,2020-10-18_16h21.47.655,swahili,2020.2.4,MacIntel,60,,,,,,,,SAMADI,MANURE,,,,,,,,,,,,,,,,,,,,,,,,,,,,,,,,,,XANIM,incorrect,5.54789,0,4,4,13,1,,,,,,,,,,,,,,,,,,,,,,,,,
,,,,,,,,,,1448234,2020-10-18_16h21.47.655,swahili,2020.2.4,MacIntel,60,,,,,,,,LAWAMA,BLAME,,,,,,,,,,,,,,,,,,,,,,,,,,,,,,,,,,SNAMA,incorrect,6.162155,0,5,5,5,1,,,,,,,,,,,,,,,,,,,,,,,,,
,,,,,,,,,,1448234,2020-10-18_16h21.47.655,swahili,2020.2.4,MacIntel,60,,,,,,,,RUSHWA,BRIBE,,,,,,,,,,,,,,,,,,,,,,,,,,,,,,,,,,AANKI,incorrect,9.240635,0,6,6,15,1,,,,,,,,,,,,,,,,,,,,,,,,,
,,,,,,,,,,1448234,2020-10-18_16h21.47.655,swahili,2020.2.4,MacIntel,60,,,,,,,,TALAKA,DIVORCE,,,,,,,,,,,,,,,,,,,,,,,,,,,,,,,,,,NANI,incorrect,8.23564,0,7,7,17,1,,,,,,,,,,,,,,,,,,,,,,,,,
,,,,,,,,,,1448234,2020-10-18_16h21.47.655,swahili,2020.2.4,MacIntel,60,,,,,,,,YAMINI,OATH,,,,,,,,,,,,,,,,,,,,,,,,,,,,,,,,,,JANIKI,incorrect,4.64332,0,8,8,6,1,,,,,,,,,,,,,,,,,,,,,,,,,
,,,,,,,,,,1448234,2020-10-18_16h21.47.655,swahili,2020.2.4,MacIntel,60,,,,,,,,KASUKU,PARROT,,,,,,,,,,,,,,,,,,,,,,,,,,,,,,,,,,OKANKI,incorrect,4.52487,0,9,9,1,1,,,,,,,,,,,,,,,,,,,,,,,,,
,,,,,,,,,,1448234,2020-10-18_16h21.47.655,swahili,2020.2.4,MacIntel,60,,,,,,,,WAKILI,AGENT,,,,,,,,,,,,,,,,,,,,,,,,,,,,,,,,,,AKINKI,incorrect,3.12483,0,10,10,14,1,,,,,,,,,,,,,,,,,,,,,,,,,
,,,,,,,,,,1448234,2020-10-18_16h21.47.655,swahili,2020.2.4,MacIntel,60,,,,,,,,UTENZI,POEM,,,,,,,,,,,,,,,,,,,,,,,,,,,,,,,,,,INKSIK,incorrect,5.0946,0,11,11,8,1,,,,,,,,,,,,,,,,,,,,,,,,,
,,,,,,,,,,1448234,2020-10-18_16h21.47.655,swahili,2020.2.4,MacIntel,60,,,,,,,,SAHANI,PLATE,,,,,,,,,,,,,,,,,,,,,,,,,,,,,,,,,,AKISNKA,incorrect,5.345255,0,12,12,3,1,,,,,,,,,,,,,,,,,,,,,,,,,
,,,,,,,,,,1448234,2020-10-18_16h21.47.655,swahili,2020.2.4,MacIntel,60,,,,,,,,HAMIRA,YEAST,,,,,,,,,,,,,,,,,,,,,,,,,,,,,,,,,,KANKSI,incorrect,7.86756,0,13,13,4,1,,,,,,,,,,,,,,,,,,,,,,,,,
,,,,,,,,,,1448234,2020-10-18_16h21.47.655,swahili,2020.2.4,MacIntel,60,,,,,,,,DAFINA,TREASURE,,,,,,,,,,,,,,,,,,,,,,,,,,,,,,,,,,JAKLNM,incorrect,4.62701,0,14,14,19,1,,,,,,,,,,,,,,,,,,,,,,,,,
,,,,,,,,,,1448234,2020-10-18_16h21.47.655,swahili,2020.2.4,MacIntel,60,,,,,,,,TAJIRI,MERCHANT,,,,,,,,,,,,,,,,,,,,,,,,,,,,,,,,,,JANKI,incorrect,9.455485,0,15,15,0,1,,,,,,,,,,,,,,,,,,,,,,,,,
,,,,,,,,,,1448234,2020-10-18_16h21.47.655,swahili,2020.2.4,MacIntel,60,,,,,,,,JIBINI,CHEESE,,,,,,,,,,,,,,,,,,,,,,,,,,,,,,,,,,SNAJI,incorrect,3.222605,0,16,16,10,1,,,,,,,,,,,,,,,,,,,,,,,,,
,,,,,,,,,,1448234,2020-10-18_16h21.47.655,swahili,2020.2.4,MacIntel,60,,,,,,,,ZABIBU,GRAPES,,,,,,,,,,,,,,,,,,,,,,,,,,,,,,,,,,SANKI,incorrect,3.725285,0,17,17,11,1,,,,,,,,,,,,,,,,,,,,,,,,,
,,,,,,,,,,1448234,2020-10-18_16h21.47.655,swahili,2020.2.4,MacIntel,60,,,,,,,,YATIMA,ORPHAN,,,,,,,,,,,,,,,,,,,,,,,,,,,,,,,,,,AKKISKI,incorrect,5.495415,0,18,18,16,1,,,,,,,,,,,,,,,,,,,,,,,,,
,,,,,,,,,,1448234,2020-10-18_16h21.47.655,swahili,2020.2.4,MacIntel,60,,,,,,,,FAHILI,BULL,,,,,,,,,,,,,,,,,,,,,,,,,,,,,,,,,,AKKSI,incorrect,2.58807,0,19,19,2,1,,,,,,,,,,,,,,,,,,,,,,,,,
,,,,,,,,,,1448234,2020-10-18_16h21.47.655,swahili,2020.2.4,MacIntel,60,,,,,,,,,,,,,,,,,,,,,,,,,,,,,,,,,,,,,,,,,,,,,,,,,,,0,0,0,0,1,I bought all my goods from the ____ at the market. ,TAJIRI,,,,,,,,,,,,,,,,,,
,,,,,,,,,,1448234,2020-10-18_16h21.47.655,swahili,2020.2.4,MacIntel,60,,,,,,,,,,,,,,,,,,,,,,,,,,,,,,,,,,,,,,,,,,,,,,,,,,,0,1,1,1,1,The ____ is a bird that can learn to repeat words.,KASUKU,,,,,,,,,,,,,,,,,,
,,,,,,,,,,1448234,2020-10-18_16h21.47.655,swahili,2020.2.4,MacIntel,60,,,,,,,,,,,,,,,,,,,,,,,,,,,,,,,,,,,,,,,,,,,,,,,,,,,0,2,2,2,1,The ____ charged the matador's red cape. ,FAHILI,,,,,,,,,,,,,,,,,,
,,,,,,,,,,1448234,2020-10-18_16h21.47.655,swahili,2020.2.4,MacIntel,60,,,,,,,,,,,,,,,,,,,,,,,,,,,,,,,,,,,,,,,,,,,,,,,,,,,0,3,3,3,1,I filled my ____ with food at the buffet. ,SAHANI,,,,,,,,,,,,,,,,,,
,,,,,,,,,,1448234,2020-10-18_16h21.47.655,swahili,2020.2.4,MacIntel,60,,,,,,,,,,,,,,,,,,,,,,,,,,,,,,,,,,,,,,,,,,,,,,,,,,,0,4,4,4,1,_____ makes bread rise. ,HAMIRA,,,,,,,,,,,,,,,,,,
,,,,,,,,,,1448234,2020-10-18_16h21.47.655,swahili,2020.2.4,MacIntel,60,,,,,,,,,,,,,,,,,,,,,,,,,,,,,,,,,,,,,,,,,,,,,,,,,,,0,5,5,5,1,Shannon had no one else to  ____ for what happened.,LAWAMA,,,,,,,,,,,,,,,,,,
,,,,,,,,,,1448234,2020-10-18_16h21.47.655,swahili,2020.2.4,MacIntel,60,,,,,,,,,,,,,,,,,,,,,,,,,,,,,,,,,,,,,,,,,,,,,,,,,,,0,6,6,6,1,The president takes the  ____ of office to uphold the Constitution.,YAMINI,,,,,,,,,,,,,,,,,,
,,,,,,,,,,1448234,2020-10-18_16h21.47.655,swahili,2020.2.4,MacIntel,60,,,,,,,,,,,,,,,,,,,,,,,,,,,,,,,,,,,,,,,,,,,,,,,,,,,0,7,7,7,1,Kate doesn't like ____ on the cob because it gets stuck between her teeth. ,NAFAKA,,,,,,,,,,,,,,,,,,
,,,,,,,,,,1448234,2020-10-18_16h21.47.655,swahili,2020.2.4,MacIntel,60,,,,,,,,,,,,,,,,,,,,,,,,,,,,,,,,,,,,,,,,,,,,,,,,,,,0,8,8,8,1,David wrote Cynthia a romantic ____  but she thought it rhymed too much.,UTENZI,,,,,,,,,,,,,,,,,,
,,,,,,,,,,1448234,2020-10-18_16h21.47.655,swahili,2020.2.4,MacIntel,60,,,,,,,,,,,,,,,,,,,,,,,,,,,,,,,,,,,,,,,,,,,,,,,,,,,0,9,9,9,1,Charles went to the ____ to get his suit adjusted. ,MSHONI,,,,,,,,,,,,,,,,,,
,,,,,,,,,,1448234,2020-10-18_16h21.47.655,swahili,2020.2.4,MacIntel,60,,,,,,,,,,,,,,,,,,,,,,,,,,,,,,,,,,,,,,,,,,,,,,,,,,,0,10,10,10,1,Amy cooked a grilled ____ sandwich to go with her tomato soup.,JIBINI,,,,,,,,,,,,,,,,,,
,,,,,,,,,,1448234,2020-10-18_16h21.47.655,swahili,2020.2.4,MacIntel,60,,,,,,,,,,,,,,,,,,,,,,,,,,,,,,,,,,,,,,,,,,,,,,,,,,,0,11,11,11,1,Fermented _______ are used to make wine.,ZABIBU,,,,,,,,,,,,,,,,,,
,,,,,,,,,,1448234,2020-10-18_16h21.47.655,swahili,2020.2.4,MacIntel,60,,,,,,,,,,,,,,,,,,,,,,,,,,,,,,,,,,,,,,,,,,,,,,,,,,,0,12,12,12,1,She visited her father's ___ on the anniversary of his death. ,KABURI,,,,,,,,,,,,,,,,,,
,,,,,,,,,,1448234,2020-10-18_16h21.47.655,swahili,2020.2.4,MacIntel,60,,,,,,,,,,,,,,,,,,,,,,,,,,,,,,,,,,,,,,,,,,,,,,,,,,,0,13,13,13,1,"On a farm, there is a good chance you will step into a pile of ______.",SAMADI,,,,,,,,,,,,,,,,,,
,,,,,,,,,,1448234,2020-10-18_16h21.47.655,swahili,2020.2.4,MacIntel,60,,,,,,,,,,,,,,,,,,,,,,,,,,,,,,,,,,,,,,,,,,,,,,,,,,,0,14,14,14,1,"To buy a house, you may need to speak with a real estate ______.",WAKILI,,,,,,,,,,,,,,,,,,
,,,,,,,,,,1448234,2020-10-18_16h21.47.655,swahili,2020.2.4,MacIntel,60,,,,,,,,,,,,,,,,,,,,,,,,,,,,,,,,,,,,,,,,,,,,,,,,,,,0,15,15,15,1,The politician was arrested for taking a _____.,RUSHWA,,,,,,,,,,,,,,,,,,
,,,,,,,,,,1448234,2020-10-18_16h21.47.655,swahili,2020.2.4,MacIntel,60,,,,,,,,,,,,,,,,,,,,,,,,,,,,,,,,,,,,,,,,,,,,,,,,,,,0,16,16,16,1,The _____ is living with foster parents.,YATIMA,,,,,,,,,,,,,,,,,,
,,,,,,,,,,1448234,2020-10-18_16h21.47.655,swahili,2020.2.4,MacIntel,60,,,,,,,,,,,,,,,,,,,,,,,,,,,,,,,,,,,,,,,,,,,,,,,,,,,0,17,17,17,1,My aunt and uncle got a _________ after two years of marriage.,TALAKA,,,,,,,,,,,,,,,,,,
,,,,,,,,,,1448234,2020-10-18_16h21.47.655,swahili,2020.2.4,MacIntel,60,,,,,,,,,,,,,,,,,,,,,,,,,,,,,,,,,,,,,,,,,,,,,,,,,,,0,18,18,18,1,You need a ______ to go fishing in the middle of a lake.,MASHUA,,,,,,,,,,,,,,,,,,
,,,,,,,,,,1448234,2020-10-18_16h21.47.655,swahili,2020.2.4,MacIntel,60,,,,,,,,,,,,,,,,,,,,,,,,,,,,,,,,,,,,,,,,,,,,,,,,,,,0,19,19,19,1,Pirates looked for buried _________ at the bottom of the sea.,DAFINA,,,,,,,,,,,,,,,,,,
,,,,,,,,,,1448234,2020-10-18_16h21.47.655,swahili,2020.2.4,MacIntel,60,,,,,,,,,,,,,,,,,,,,,,,,,,,,,,,,,,,,,,,,,,,,,,,,,,,,,,,,I filled my ____ with food at the buffet. ,SAHANI,return,0.947625,RUSHWA,incorrect,0.077392578,-0.458741319,1,0,0,4.258675,b,0,0,0,3,1,,
,,,,,,,,,,1448234,2020-10-18_16h21.47.655,swahili,2020.2.4,MacIntel,60,,,,,,,,,,,,,,,,,,,,,,,,,,,,,,,,,,,,,,,,,,,,,,,,,,,,,,,,The ____ charged the matador's red cape. ,FAHILI,,,HAMIRA,incorrect,0.079541016,-0.497222222,1,0,0,0.92896,b,0,1,1,2,1,,
,,,,,,,,,,1448234,2020-10-18_16h21.47.655,swahili,2020.2.4,MacIntel,60,,,,,,,,,,,,,,,,,,,,,,,,,,,,,,,,,,,,,,,,,,,,,,,,,,,,,,,,Kate doesn't like ____ on the cob because it gets stuck between her teeth. ,NAFAKA,,,NAFAKA,correct,-0.4011773,-0.483038194,1,0,0,1.212485,a,0,2,2,7,1,,
,,,,,,,,,,1448234,2020-10-18_16h21.47.655,swahili,2020.2.4,MacIntel,60,,,,,,,,,,,,,,,,,,,,,,,,,,,,,,,,,,,,,,,,,,,,,,,,,,,,,,,,David wrote Cynthia a romantic ____  but she thought it rhymed too much.,UTENZI,,,SAMADI,incorrect,0.378190104,-0.484444444,1,0,0,1.29683,c,0,3,3,8,1,,
,,,,,,,,,,1448234,2020-10-18_16h21.47.655,swahili,2020.2.4,MacIntel,60,,,,,,,,,,,,,,,,,,,,,,,,,,,,,,,,,,,,,,,,,,,,,,,,,,,,,,,,Pirates looked for buried _________ at the bottom of the sea.,DAFINA,,,DAFINA,correct,-0.045052083,-0.507881944,1,0,0,0.645385,b,0,4,4,19,1,,
,,,,,,,,,,1448234,2020-10-18_16h21.47.655,swahili,2020.2.4,MacIntel,60,,,,,,,,,,,,,,,,,,,,,,,,,,,,,,,,,,,,,,,,,,,,,,,,,,,,,,,,Fermented _______ are used to make wine.,ZABIBU,,,ZABIBU,correct,0.504828559,-0.576753472,1,0,0,0.83013,c,0,5,5,11,1,,
,,,,,,,,,,1448234,2020-10-18_16h21.47.655,swahili,2020.2.4,MacIntel,60,,,,,,,,,,,,,,,,,,,,,,,,,,,,,,,,,,,,,,,,,,,,,,,,,,,,,,,,Charles went to the ____ to get his suit adjusted. ,MSHONI,,,RUSHWA,incorrect,-0.577853733,-0.369401042,1,0,0,0.86193,a,0,6,6,9,1,,
,,,,,,,,,,1448234,2020-10-18_16h21.47.655,swahili,2020.2.4,MacIntel,60,,,,,,,,,,,,,,,,,,,,,,,,,,,,,,,,,,,,,,,,,,,,,,,,,,,,,,,,"To buy a house, you may need to speak with a real estate ______.",WAKILI,,,KABURI,incorrect,-0.079877387,-0.571614583,1,0,0,1.112885,b,0,7,7,14,1,,
,,,,,,,,,,1448234,2020-10-18_16h21.47.655,swahili,2020.2.4,MacIntel,60,,,,,,,,,,,,,,,,,,,,,,,,,,,,,,,,,,,,,,,,,,,,,,,,,,,,,,,,"On a farm, there is a good chance you will step into a pile of ______.",SAMADI,,,WAKILI,incorrect,0.500406901,-0.528090278,1,0,0,0.99884,c,0,8,8,13,1,,
,,,,,,,,,,1448234,2020-10-18_16h21.47.655,swahili,2020.2.4,MacIntel,60,,,,,,,,,,,,,,,,,,,,,,,,,,,,,,,,,,,,,,,,,,,,,,,,,,,,,,,,She visited her father's ___ on the anniversary of his death. ,KABURI,,,KABURI,correct,-0.394797092,-0.497048611,1,0,0,0.94519,a,0,9,9,12,1,,
,,,,,,,,,,1448234,2020-10-18_16h21.47.655,swahili,2020.2.4,MacIntel,60,,,,,,,,,,,,,,,,,,,,,,,,,,,,,,,,,,,,,,,,,,,,,,,,,,,,,,,,The _____ is living with foster parents.,YATIMA,,,YATIMA,correct,0.064187283,-0.508333333,1,0,0,0.696655,b,0,10,10,16,1,,
,,,,,,,,,,1448234,2020-10-18_16h21.47.655,swahili,2020.2.4,MacIntel,60,,,,,,,,,,,,,,,,,,,,,,,,,,,,,,,,,,,,,,,,,,,,,,,,,,,,,,,,You need a ______ to go fishing in the middle of a lake.,MASHUA,,,RUSHWA,incorrect,0.556787109,-0.395885417,1,0,0,0.778465,c,0,11,11,18,1,,
,,,,,,,,,,1448234,2020-10-18_16h21.47.655,swahili,2020.2.4,MacIntel,60,,,,,,,,,,,,,,,,,,,,,,,,,,,,,,,,,,,,,,,,,,,,,,,,,,,,,,,,Shannon had no one else to  ____ for what happened.,LAWAMA,,,LAWAMA,correct,0.070665148,-0.5046875,1,0,0,1.31695,b,0,12,12,5,1,,
,,,,,,,,,,1448234,2020-10-18_16h21.47.655,swahili,2020.2.4,MacIntel,60,,,,,,,,,,,,,,,,,,,,,,,,,,,,,,,,,,,,,,,,,,,,,,,,,,,,,,,,Amy cooked a grilled ____ sandwich to go with her tomato soup.,JIBINI,,,JIBINI,correct,0.172759332,-0.528289931,1,0,0,1.06178,b,0,13,13,10,1,,
,,,,,,,,,,1448234,2020-10-18_16h21.47.655,swahili,2020.2.4,MacIntel,60,,,,,,,,,,,,,,,,,,,,,,,,,,,,,,,,,,,,,,,,,,,,,,,,,,,,,,,,The president takes the  ____ of office to uphold the Constitution.,YAMINI,,,FAHILI,incorrect,-0.390576172,-0.522239583,1,0,0,1.028895,a,0,14,14,6,1,,
,,,,,,,,,,1448234,2020-10-18_16h21.47.655,swahili,2020.2.4,MacIntel,60,,,,,,,,,,,,,,,,,,,,,,,,,,,,,,,,,,,,,,,,,,,,,,,,,,,,,,,,The ____ is a bird that can learn to repeat words.,KASUKU,,,KASUKU,correct,0.016286892,-0.599340278,1,0,0,0.86112,b,0,15,15,1,1,,
,,,,,,,,,,1448234,2020-10-18_16h21.47.655,swahili,2020.2.4,MacIntel,60,,,,,,,,,,,,,,,,,,,,,,,,,,,,,,,,,,,,,,,,,,,,,,,,,,,,,,,,_____ makes bread rise. ,HAMIRA,,,NAFAKA,incorrect,0.463720703,-0.495737847,1,0,0,0.81221,c,0,16,16,4,1,,
,,,,,,,,,,1448234,2020-10-18_16h21.47.655,swahili,2020.2.4,MacIntel,60,,,,,,,,,,,,,,,,,,,,,,,,,,,,,,,,,,,,,,,,,,,,,,,,,,,,,,,,I bought all my goods from the ____ at the market. ,TAJIRI,,,DAFINA,incorrect,-0.38866645,-0.469930556,1,0,0,0.980815,a,0,17,17,0,1,,
,,,,,,,,,,1448234,2020-10-18_16h21.47.655,swahili,2020.2.4,MacIntel,60,,,,,,,,,,,,,,,,,,,,,,,,,,,,,,,,,,,,,,,,,,,,,,,,,,,,,,,,The politician was arrested for taking a _____.,RUSHWA,,,RUSHWA,correct,0.058398437,-0.538862847,1,0,0,1.296425,b,0,18,18,15,1,,
,,,,,,,,,,1448234,2020-10-18_16h21.47.655,swahili,2020.2.4,MacIntel,60,,,,,,,,,,,,,,,,,,,,,,,,,,,,,,,,,,,,,,,,,,,,,,,,,,,,,,,,My aunt and uncle got a _________ after two years of marriage.,TALAKA,,,TAJIRI,incorrect,0.493777127,-0.60046875,1,0,0,4.50643,c,0,19,19,17,1,,
,,,,,,,,,,1448234,2020-10-18_16h21.47.655,swahili,2020.2.4,MacIntel,60,,,,,,,,,,,,,,,,,,,,,,,,,,,,,,,,,,,,,,,,,,,,,,,,,,,,,,,,,,,,,,,,,,,,,,,,,,return,1.538975
