condition,consent_key.keys,consent_key.rt,done_with_instructions.keys,done_with_instructions.rt,instr_loop.thisRepN,instr_loop.thisTrialN,instr_loop.thisN,instr_loop.thisIndex,instr_loop.ran,Student ID #,date,expName,psychopyVersion,OS,frameRate,instr_learning_key.keys,instr_learning_key.rt,card_gen_loop.thisRepN,card_gen_loop.thisTrialN,card_gen_loop.thisN,card_gen_loop.thisIndex,card_gen_loop.ran,swa,eng,choose_pile.x,choose_pile.y,choose_pile.leftButton,choose_pile.midButton,choose_pile.rightButton,choose_pile.time,choose_pile.clicked_name,choices.thisRepN,choices.thisTrialN,choices.thisN,choices.thisIndex,choices.ran,card_to_show,mouse_pick.x,mouse_pick.y,mouse_pick.leftButton,mouse_pick.midButton,mouse_pick.rightButton,mouse_pick.time,mouse_pick.clicked_name,key_instr_study.keys,key_instr_study.rt,next_study.keys,next_study.rt,study_loop.thisRepN,study_loop.thisTrialN,study_loop.thisN,study_loop.thisIndex,study_loop.ran,key_instr_test.keys,learn_loop.thisRepN,learn_loop.thisTrialN,learn_loop.thisN,learn_loop.thisIndex,learn_loop.ran,trials.thisRepN,trials.thisTrialN,trials.thisN,trials.thisIndex,trials.ran,key_instr_test.rt,duration,yes_or_no.x,yes_or_no.y,yes_or_no.leftButton,yes_or_no.midButton,yes_or_no.rightButton,yes_or_no.time,yes_or_no.clicked_name,test_response.stim,test_response.resp,test_response.eval,test_loop.thisRepN,test_loop.thisTrialN,test_loop.thisN,test_loop.thisIndex,test_loop.ran,instr_movie_key.keys,instr_movie_key.rt,return_to_exp.keys,return_to_exp.rt,instr_assess_key.keys,instr_assess_key.rt,assess_loop.thisRepN,assess_loop.thisTrialN,assess_loop.thisN,assess_loop.thisIndex,assess_loop.ran,ans_gen_loop.thisRepN,ans_gen_loop.thisTrialN,ans_gen_loop.thisN,ans_gen_loop.thisIndex,ans_gen_loop.ran,sen,ans,instr_transfer_key.keys,instr_transfer_key.rt,transfer_response.resp,transfer_response.eval,select_word.x,select_word.y,select_word.leftButton,select_word.midButton,select_word.rightButton,select_word.time,select_word.clicked_name,transfers.thisRepN,transfers.thisTrialN,transfers.thisN,transfers.thisIndex,transfers.ran,end_experiment.keys,end_experiment.rt
2,return,25.120005,return,13.505285,0,0,0,0,1,1492579,2020-10-12_18h42.53.041,swahili,2020.2.4,Win32,60,,,,,,,,,,,,,,,,,,,,,,,,,,,,,,,,,,,,,,,,,,,,,,,,,,,,,,,,,,,,,,,,,,,,,,,,,,,,,,,,,,,,,,,,,,,,,,,,,,,,,,
,,,return,16.99256,1,0,1,0,1,1492579,2020-10-12_18h42.53.041,swahili,2020.2.4,Win32,60,,,,,,,,,,,,,,,,,,,,,,,,,,,,,,,,,,,,,,,,,,,,,,,,,,,,,,,,,,,,,,,,,,,,,,,,,,,,,,,,,,,,,,,,,,,,,,,,,,,,,,
,,,,,,,,,,1492579,2020-10-12_18h42.53.041,swahili,2020.2.4,Win32,60,return,8.81123,0,0,0,0,1,TAJIRI,MERCHANT,,,,,,,,,,,,,,,,,,,,,,,,,,,,,,,,,,,,,,,,,,,,,,,,,,,,,,,,,,,,,,,,,,,,,,,,,,,,,,,,,,,,,,,,,,,,,
,,,,,,,,,,1492579,2020-10-12_18h42.53.041,swahili,2020.2.4,Win32,60,,,0,1,1,1,1,KASUKU,PARROT,,,,,,,,,,,,,,,,,,,,,,,,,,,,,,,,,,,,,,,,,,,,,,,,,,,,,,,,,,,,,,,,,,,,,,,,,,,,,,,,,,,,,,,,,,,,,
,,,,,,,,,,1492579,2020-10-12_18h42.53.041,swahili,2020.2.4,Win32,60,,,0,2,2,2,1,FAHILI,BULL,,,,,,,,,,,,,,,,,,,,,,,,,,,,,,,,,,,,,,,,,,,,,,,,,,,,,,,,,,,,,,,,,,,,,,,,,,,,,,,,,,,,,,,,,,,,,
,,,,,,,,,,1492579,2020-10-12_18h42.53.041,swahili,2020.2.4,Win32,60,,,0,3,3,3,1,SAHANI,PLATE,,,,,,,,,,,,,,,,,,,,,,,,,,,,,,,,,,,,,,,,,,,,,,,,,,,,,,,,,,,,,,,,,,,,,,,,,,,,,,,,,,,,,,,,,,,,,
,,,,,,,,,,1492579,2020-10-12_18h42.53.041,swahili,2020.2.4,Win32,60,,,0,4,4,4,1,HAMIRA,YEAST,,,,,,,,,,,,,,,,,,,,,,,,,,,,,,,,,,,,,,,,,,,,,,,,,,,,,,,,,,,,,,,,,,,,,,,,,,,,,,,,,,,,,,,,,,,,,
,,,,,,,,,,1492579,2020-10-12_18h42.53.041,swahili,2020.2.4,Win32,60,,,0,5,5,5,1,LAWAMA,BLAME,,,,,,,,,,,,,,,,,,,,,,,,,,,,,,,,,,,,,,,,,,,,,,,,,,,,,,,,,,,,,,,,,,,,,,,,,,,,,,,,,,,,,,,,,,,,,
,,,,,,,,,,1492579,2020-10-12_18h42.53.041,swahili,2020.2.4,Win32,60,,,0,6,6,6,1,YAMINI,OATH,,,,,,,,,,,,,,,,,,,,,,,,,,,,,,,,,,,,,,,,,,,,,,,,,,,,,,,,,,,,,,,,,,,,,,,,,,,,,,,,,,,,,,,,,,,,,
,,,,,,,,,,1492579,2020-10-12_18h42.53.041,swahili,2020.2.4,Win32,60,,,0,7,7,7,1,NAFAKA,CORN,,,,,,,,,,,,,,,,,,,,,,,,,,,,,,,,,,,,,,,,,,,,,,,,,,,,,,,,,,,,,,,,,,,,,,,,,,,,,,,,,,,,,,,,,,,,,
,,,,,,,,,,1492579,2020-10-12_18h42.53.041,swahili,2020.2.4,Win32,60,,,0,8,8,8,1,UTENZI,POEM,,,,,,,,,,,,,,,,,,,,,,,,,,,,,,,,,,,,,,,,,,,,,,,,,,,,,,,,,,,,,,,,,,,,,,,,,,,,,,,,,,,,,,,,,,,,,
,,,,,,,,,,1492579,2020-10-12_18h42.53.041,swahili,2020.2.4,Win32,60,,,0,9,9,9,1,MSHONI,TAILOR,,,,,,,,,,,,,,,,,,,,,,,,,,,,,,,,,,,,,,,,,,,,,,,,,,,,,,,,,,,,,,,,,,,,,,,,,,,,,,,,,,,,,,,,,,,,,
,,,,,,,,,,1492579,2020-10-12_18h42.53.041,swahili,2020.2.4,Win32,60,,,0,10,10,10,1,JIBINI,CHEESE,,,,,,,,,,,,,,,,,,,,,,,,,,,,,,,,,,,,,,,,,,,,,,,,,,,,,,,,,,,,,,,,,,,,,,,,,,,,,,,,,,,,,,,,,,,,,
,,,,,,,,,,1492579,2020-10-12_18h42.53.041,swahili,2020.2.4,Win32,60,,,0,11,11,11,1,ZABIBU,GRAPES,,,,,,,,,,,,,,,,,,,,,,,,,,,,,,,,,,,,,,,,,,,,,,,,,,,,,,,,,,,,,,,,,,,,,,,,,,,,,,,,,,,,,,,,,,,,,
,,,,,,,,,,1492579,2020-10-12_18h42.53.041,swahili,2020.2.4,Win32,60,,,0,12,12,12,1,KABURI,GRAVE,,,,,,,,,,,,,,,,,,,,,,,,,,,,,,,,,,,,,,,,,,,,,,,,,,,,,,,,,,,,,,,,,,,,,,,,,,,,,,,,,,,,,,,,,,,,,
,,,,,,,,,,1492579,2020-10-12_18h42.53.041,swahili,2020.2.4,Win32,60,,,0,13,13,13,1,SAMADI,MANURE,,,,,,,,,,,,,,,,,,,,,,,,,,,,,,,,,,,,,,,,,,,,,,,,,,,,,,,,,,,,,,,,,,,,,,,,,,,,,,,,,,,,,,,,,,,,,
,,,,,,,,,,1492579,2020-10-12_18h42.53.041,swahili,2020.2.4,Win32,60,,,0,14,14,14,1,WAKILI,AGENT,,,,,,,,,,,,,,,,,,,,,,,,,,,,,,,,,,,,,,,,,,,,,,,,,,,,,,,,,,,,,,,,,,,,,,,,,,,,,,,,,,,,,,,,,,,,,
,,,,,,,,,,1492579,2020-10-12_18h42.53.041,swahili,2020.2.4,Win32,60,,,0,15,15,15,1,RUSHWA,BRIBE,,,,,,,,,,,,,,,,,,,,,,,,,,,,,,,,,,,,,,,,,,,,,,,,,,,,,,,,,,,,,,,,,,,,,,,,,,,,,,,,,,,,,,,,,,,,,
,,,,,,,,,,1492579,2020-10-12_18h42.53.041,swahili,2020.2.4,Win32,60,,,0,16,16,16,1,YATIMA,ORPHAN,,,,,,,,,,,,,,,,,,,,,,,,,,,,,,,,,,,,,,,,,,,,,,,,,,,,,,,,,,,,,,,,,,,,,,,,,,,,,,,,,,,,,,,,,,,,,
,,,,,,,,,,1492579,2020-10-12_18h42.53.041,swahili,2020.2.4,Win32,60,,,0,17,17,17,1,TALAKA,DIVORCE,,,,,,,,,,,,,,,,,,,,,,,,,,,,,,,,,,,,,,,,,,,,,,,,,,,,,,,,,,,,,,,,,,,,,,,,,,,,,,,,,,,,,,,,,,,,,
,,,,,,,,,,1492579,2020-10-12_18h42.53.041,swahili,2020.2.4,Win32,60,,,0,18,18,18,1,MASHUA,BOAT,,,,,,,,,,,,,,,,,,,,,,,,,,,,,,,,,,,,,,,,,,,,,,,,,,,,,,,,,,,,,,,,,,,,,,,,,,,,,,,,,,,,,,,,,,,,,
,,,,,,,,,,1492579,2020-10-12_18h42.53.041,swahili,2020.2.4,Win32,60,,,0,19,19,19,1,DAFINA,TREASURE,,,,,,,,,,,,,,,,,,,,,,,,,,,,,,,,,,,,,,,,,,,,,,,,,,,,,,,,,,,,,,,,,,,,,,,,,,,,,,,,,,,,,,,,,,,,,
,,,,,,,,,,1492579,2020-10-12_18h42.53.041,swahili,2020.2.4,Win32,60,,,,,,,,,,-0.2359375,0.079798706,1,0,0,5.10881,unsorted_card,0,0,0,0,1,,,,,,,,,,,,,,,,,,,,,,,,,,,,,,,,,,,,,,,,,,,,,,,,,,,,,,,,,,,,,,,,,,,,,,,,,,,,,,,,,
,,,,,,,,,,1492579,2020-10-12_18h42.53.041,swahili,2020.2.4,Win32,60,,,,,,,,,,0.41171875,0.396117901,1,0,0,5.792475,study_pile,1,0,1,0,1,MERCHANT - TAJIRI,,,,,,,,,,,,,,,,,,,,,,,,,,,,,,,,,,,,,,,,,,,,,,,,,,,,,,,,,,,,,,,,,,,,,,,,,,,,,,,,
,,,,,,,,,,1492579,2020-10-12_18h42.53.041,swahili,2020.2.4,Win32,60,,,,,,,,,,-0.26796875,-0.082674335,1,0,0,0.53327,unsorted_card,2,0,2,0,1,,,,,,,,,,,,,,,,,,,,,,,,,,,,,,,,,,,,,,,,,,,,,,,,,,,,,,,,,,,,,,,,,,,,,,,,,,,,,,,,,
,,,,,,,,,,1492579,2020-10-12_18h42.53.041,swahili,2020.2.4,Win32,60,,,,,,,,,,0.49296875,0.47232207,1,0,0,3.0222,study_pile,3,0,3,0,1,PARROT - KASUKU,,,,,,,,,,,,,,,,,,,,,,,,,,,,,,,,,,,,,,,,,,,,,,,,,,,,,,,,,,,,,,,,,,,,,,,,,,,,,,,,
,,,,,,,,,,1492579,2020-10-12_18h42.53.041,swahili,2020.2.4,Win32,60,,,,,,,,,,-0.4125,-0.002156722,1,0,0,0.43315,unsorted_card,4,0,4,0,1,,,,,,,,,,,,,,,,,,,,,,,,,,,,,,,,,,,,,,,,,,,,,,,,,,,,,,,,,,,,,,,,,,,,,,,,,,,,,,,,,
,,,,,,,,,,1492579,2020-10-12_18h42.53.041,swahili,2020.2.4,Win32,60,,,,,,,,,,0.415625,0.475197699,1,0,0,2.58829,study_pile,5,0,5,0,1,BULL - FAHILI,,,,,,,,,,,,,,,,,,,,,,,,,,,,,,,,,,,,,,,,,,,,,,,,,,,,,,,,,,,,,,,,,,,,,,,,,,,,,,,,
,,,,,,,,,,1492579,2020-10-12_18h42.53.041,swahili,2020.2.4,Win32,60,,,,,,,,,,-0.3328125,0.107117182,1,0,0,0.46658,unsorted_card,6,0,6,0,1,,,,,,,,,,,,,,,,,,,,,,,,,,,,,,,,,,,,,,,,,,,,,,,,,,,,,,,,,,,,,,,,,,,,,,,,,,,,,,,,,
,,,,,,,,,,1492579,2020-10-12_18h42.53.041,swahili,2020.2.4,Win32,60,,,,,,,,,,0.3796875,0.508267434,1,0,0,1.736565,study_pile,7,0,7,0,1,PLATE - SAHANI,,,,,,,,,,,,,,,,,,,,,,,,,,,,,,,,,,,,,,,,,,,,,,,,,,,,,,,,,,,,,,,,,,,,,,,,,,,,,,,,
,,,,,,,,,,1492579,2020-10-12_18h42.53.041,swahili,2020.2.4,Win32,60,,,,,,,,,,-0.38984375,0.051042416,1,0,0,0.383105,unsorted_card,8,0,8,0,1,,,,,,,,,,,,,,,,,,,,,,,,,,,,,,,,,,,,,,,,,,,,,,,,,,,,,,,,,,,,,,,,,,,,,,,,,,,,,,,,,
,,,,,,,,,,1492579,2020-10-12_18h42.53.041,swahili,2020.2.4,Win32,60,,,,,,,,,,0.44921875,0.483824587,1,0,0,1.352375,study_pile,9,0,9,0,1,YEAST - HAMIRA,,,,,,,,,,,,,,,,,,,,,,,,,,,,,,,,,,,,,,,,,,,,,,,,,,,,,,,,,,,,,,,,,,,,,,,,,,,,,,,,
,,,,,,,,,,1492579,2020-10-12_18h42.53.041,swahili,2020.2.4,Win32,60,,,,,,,,,,-0.3953125,-0.005032351,1,0,0,0.366675,unsorted_card,10,0,10,0,1,,,,,,,,,,,,,,,,,,,,,,,,,,,,,,,,,,,,,,,,,,,,,,,,,,,,,,,,,,,,,,,,,,,,,,,,,,,,,,,,,
,,,,,,,,,,1492579,2020-10-12_18h42.53.041,swahili,2020.2.4,Win32,60,,,,,,,,,,0.425,0.38317757,1,0,0,2.0203,study_pile,11,0,11,0,1,BLAME - LAWAMA,,,,,,,,,,,,,,,,,,,,,,,,,,,,,,,,,,,,,,,,,,,,,,,,,,,,,,,,,,,,,,,,,,,,,,,,,,,,,,,,
,,,,,,,,,,1492579,2020-10-12_18h42.53.041,swahili,2020.2.4,Win32,60,,,,,,,,,,-0.32421875,0.186196981,1,0,0,0.50055,unsorted_card,12,0,12,0,1,,,,,,,,,,,,,,,,,,,,,,,,,,,,,,,,,,,,,,,,,,,,,,,,,,,,,,,,,,,,,,,,,,,,,,,,,,,,,,,,,
,,,,,,,,,,1492579,2020-10-12_18h42.53.041,swahili,2020.2.4,Win32,60,,,,,,,,,,0.46875,0.539899353,1,0,0,1.41912,study_pile,13,0,13,0,1,OATH - YAMINI,,,,,,,,,,,,,,,,,,,,,,,,,,,,,,,,,,,,,,,,,,,,,,,,,,,,,,,,,,,,,,,,,,,,,,,,,,,,,,,,
,,,,,,,,,,1492579,2020-10-12_18h42.53.041,swahili,2020.2.4,Win32,60,,,,,,,,,,-0.30078125,0.005032351,1,0,0,0.383695,unsorted_card,14,0,14,0,1,,,,,,,,,,,,,,,,,,,,,,,,,,,,,,,,,,,,,,,,,,,,,,,,,,,,,,,,,,,,,,,,,,,,,,,,,,,,,,,,,
,,,,,,,,,,1492579,2020-10-12_18h42.53.041,swahili,2020.2.4,Win32,60,,,,,,,,,,0.45546875,0.522645579,1,0,0,1.903685,study_pile,15,0,15,0,1,CORN - NAFAKA,,,,,,,,,,,,,,,,,,,,,,,,,,,,,,,,,,,,,,,,,,,,,,,,,,,,,,,,,,,,,,,,,,,,,,,,,,,,,,,,
,,,,,,,,,,1492579,2020-10-12_18h42.53.041,swahili,2020.2.4,Win32,60,,,,,,,,,,-0.34140625,-0.028037383,1,0,0,0.4002,unsorted_card,16,0,16,0,1,,,,,,,,,,,,,,,,,,,,,,,,,,,,,,,,,,,,,,,,,,,,,,,,,,,,,,,,,,,,,,,,,,,,,,,,,,,,,,,,,
,,,,,,,,,,1492579,2020-10-12_18h42.53.041,swahili,2020.2.4,Win32,60,,,,,,,,,,0.43203125,0.462257369,1,0,0,1.55278,study_pile,17,0,17,0,1,POEM - UTENZI,,,,,,,,,,,,,,,,,,,,,,,,,,,,,,,,,,,,,,,,,,,,,,,,,,,,,,,,,,,,,,,,,,,,,,,,,,,,,,,,
,,,,,,,,,,1492579,2020-10-12_18h42.53.041,swahili,2020.2.4,Win32,60,,,,,,,,,,-0.4703125,-0.069734004,1,0,0,0.316695,unsorted_card,18,0,18,0,1,,,,,,,,,,,,,,,,,,,,,,,,,,,,,,,,,,,,,,,,,,,,,,,,,,,,,,,,,,,,,,,,,,,,,,,,,,,,,,,,,
,,,,,,,,,,1492579,2020-10-12_18h42.53.041,swahili,2020.2.4,Win32,60,,,,,,,,,,0.44296875,0.492451474,1,0,0,2.020375,study_pile,19,0,19,0,1,TAILOR - MSHONI,,,,,,,,,,,,,,,,,,,,,,,,,,,,,,,,,,,,,,,,,,,,,,,,,,,,,,,,,,,,,,,,,,,,,,,,,,,,,,,,
,,,,,,,,,,1492579,2020-10-12_18h42.53.041,swahili,2020.2.4,Win32,60,,,,,,,,,,-0.26015625,-0.025161754,1,0,0,0.36704,unsorted_card,20,0,20,0,1,,,,,,,,,,,,,,,,,,,,,,,,,,,,,,,,,,,,,,,,,,,,,,,,,,,,,,,,,,,,,,,,,,,,,,,,,,,,,,,,,
,,,,,,,,,,1492579,2020-10-12_18h42.53.041,swahili,2020.2.4,Win32,60,,,,,,,,,,0.43515625,0.47232207,1,0,0,1.937045,study_pile,21,0,21,0,1,CHEESE - JIBINI,,,,,,,,,,,,,,,,,,,,,,,,,,,,,,,,,,,,,,,,,,,,,,,,,,,,,,,,,,,,,,,,,,,,,,,,,,,,,,,,
,,,,,,,,,,1492579,2020-10-12_18h42.53.041,swahili,2020.2.4,Win32,60,,,,,,,,,,-0.36796875,-0.062544932,1,0,0,0.35017,unsorted_card,22,0,22,0,1,,,,,,,,,,,,,,,,,,,,,,,,,,,,,,,,,,,,,,,,,,,,,,,,,,,,,,,,,,,,,,,,,,,,,,,,,,,,,,,,,
,,,,,,,,,,1492579,2020-10-12_18h42.53.041,swahili,2020.2.4,Win32,60,,,,,,,,,,0.39609375,0.498202732,1,0,0,1.66948,study_pile,23,0,23,0,1,GRAPES - ZABIBU,,,,,,,,,,,,,,,,,,,,,,,,,,,,,,,,,,,,,,,,,,,,,,,,,,,,,,,,,,,,,,,,,,,,,,,,,,,,,,,,
,,,,,,,,,,1492579,2020-10-12_18h42.53.041,swahili,2020.2.4,Win32,60,,,,,,,,,,-0.4640625,-0.003594536,1,0,0,0.300065,unsorted_card,24,0,24,0,1,,,,,,,,,,,,,,,,,,,,,,,,,,,,,,,,,,,,,,,,,,,,,,,,,,,,,,,,,,,,,,,,,,,,,,,,,,,,,,,,,
,,,,,,,,,,1492579,2020-10-12_18h42.53.041,swahili,2020.2.4,Win32,60,,,,,,,,,,0.46953125,0.499640546,1,0,0,1.235335,study_pile,25,0,25,0,1,GRAVE - KABURI,,,,,,,,,,,,,,,,,,,,,,,,,,,,,,,,,,,,,,,,,,,,,,,,,,,,,,,,,,,,,,,,,,,,,,,,,,,,,,,,
,,,,,,,,,,1492579,2020-10-12_18h42.53.041,swahili,2020.2.4,Win32,60,,,,,,,,,,-0.50703125,-0.180445723,1,0,0,0.283365,unsorted_card,26,0,26,0,1,,,,,,,,,,,,,,,,,,,,,,,,,,,,,,,,,,,,,,,,,,,,,,,,,,,,,,,,,,,,,,,,,,,,,,,,,,,,,,,,,
,,,,,,,,,,1492579,2020-10-12_18h42.53.041,swahili,2020.2.4,Win32,60,,,,,,,,,,0.4921875,0.53271028,1,0,0,2.58851,study_pile,27,0,27,0,1,MANURE - SAMADI,,,,,,,,,,,,,,,,,,,,,,,,,,,,,,,,,,,,,,,,,,,,,,,,,,,,,,,,,,,,,,,,,,,,,,,,,,,,,,,,
,,,,,,,,,,1492579,2020-10-12_18h42.53.041,swahili,2020.2.4,Win32,60,,,,,,,,,,-0.35390625,-0.032350827,1,0,0,0.416995,unsorted_card,28,0,28,0,1,,,,,,,,,,,,,,,,,,,,,,,,,,,,,,,,,,,,,,,,,,,,,,,,,,,,,,,,,,,,,,,,,,,,,,,,,,,,,,,,,
,,,,,,,,,,1492579,2020-10-12_18h42.53.041,swahili,2020.2.4,Win32,60,,,,,,,,,,0.4171875,0.514018692,1,0,0,1.502805,study_pile,29,0,29,0,1,AGENT - WAKILI,,,,,,,,,,,,,,,,,,,,,,,,,,,,,,,,,,,,,,,,,,,,,,,,,,,,,,,,,,,,,,,,,,,,,,,,,,,,,,,,
,,,,,,,,,,1492579,2020-10-12_18h42.53.041,swahili,2020.2.4,Win32,60,,,,,,,,,,-0.47265625,-0.078360891,1,0,0,0.299975,unsorted_card,30,0,30,0,1,,,,,,,,,,,,,,,,,,,,,,,,,,,,,,,,,,,,,,,,,,,,,,,,,,,,,,,,,,,,,,,,,,,,,,,,,,,,,,,,,
,,,,,,,,,,1492579,2020-10-12_18h42.53.041,swahili,2020.2.4,Win32,60,,,,,,,,,,0.46796875,0.509705248,1,0,0,1.419165,study_pile,31,0,31,0,1,BRIBE - RUSHWA,,,,,,,,,,,,,,,,,,,,,,,,,,,,,,,,,,,,,,,,,,,,,,,,,,,,,,,,,,,,,,,,,,,,,,,,,,,,,,,,
,,,,,,,,,,1492579,2020-10-12_18h42.53.041,swahili,2020.2.4,Win32,60,,,,,,,,,,-0.50703125,0.002156722,1,0,0,0.35028,unsorted_card,32,0,32,0,1,,,,,,,,,,,,,,,,,,,,,,,,,,,,,,,,,,,,,,,,,,,,,,,,,,,,,,,,,,,,,,,,,,,,,,,,,,,,,,,,,
,,,,,,,,,,1492579,2020-10-12_18h42.53.041,swahili,2020.2.4,Win32,60,,,,,,,,,,0.49765625,0.495327103,1,0,0,1.452815,study_pile,33,0,33,0,1,ORPHAN - YATIMA,,,,,,,,,,,,,,,,,,,,,,,,,,,,,,,,,,,,,,,,,,,,,,,,,,,,,,,,,,,,,,,,,,,,,,,,,,,,,,,,
,,,,,,,,,,1492579,2020-10-12_18h42.53.041,swahili,2020.2.4,Win32,60,,,,,,,,,,-0.4453125,-0.051042416,1,0,0,0.24971,unsorted_card,34,0,34,0,1,,,,,,,,,,,,,,,,,,,,,,,,,,,,,,,,,,,,,,,,,,,,,,,,,,,,,,,,,,,,,,,,,,,,,,,,,,,,,,,,,
,,,,,,,,,,1492579,2020-10-12_18h42.53.041,swahili,2020.2.4,Win32,60,,,,,,,,,,0.48671875,0.555715313,1,0,0,1.18552,study_pile,35,0,35,0,1,DIVORCE - TALAKA,,,,,,,,,,,,,,,,,,,,,,,,,,,,,,,,,,,,,,,,,,,,,,,,,,,,,,,,,,,,,,,,,,,,,,,,,,,,,,,,
,,,,,,,,,,1492579,2020-10-12_18h42.53.041,swahili,2020.2.4,Win32,60,,,,,,,,,,-0.41796875,0.003594536,1,0,0,0.35011,unsorted_card,36,0,36,0,1,,,,,,,,,,,,,,,,,,,,,,,,,,,,,,,,,,,,,,,,,,,,,,,,,,,,,,,,,,,,,,,,,,,,,,,,,,,,,,,,,
,,,,,,,,,,1492579,2020-10-12_18h42.53.041,swahili,2020.2.4,Win32,60,,,,,,,,,,0.48671875,0.45938174,1,0,0,1.369065,study_pile,37,0,37,0,1,BOAT - MASHUA,,,,,,,,,,,,,,,,,,,,,,,,,,,,,,,,,,,,,,,,,,,,,,,,,,,,,,,,,,,,,,,,,,,,,,,,,,,,,,,,
,,,,,,,,,,1492579,2020-10-12_18h42.53.041,swahili,2020.2.4,Win32,60,,,,,,,,,,-0.30625,-0.120057513,1,0,0,0.400405,unsorted_card,38,0,38,0,1,,,,,,,,,,,,,,,,,,,,,,,,,,,,,,,,,,,,,,,,,,,,,,,,,,,,,,,,,,,,,,,,,,,,,,,,,,,,,,,,,
,,,,,,,,,,1492579,2020-10-12_18h42.53.041,swahili,2020.2.4,Win32,60,,,,,,,,,,0.4828125,0.516894321,1,0,0,1.285665,study_pile,39,0,39,0,1,TREASURE - DAFINA,,,,,,,,,,,,,,,,,,,,,,,,,,,,,,,,,,,,,,,,,,,,,,,,,,,,,,,,,,,,,,,,,,,,,,,,,,,,,,,,
,,,,,,,,,,1492579,2020-10-12_18h42.53.041,swahili,2020.2.4,Win32,60,,,,,,,,,,,,,,,,,,,,,,BRIBE - RUSHWA,,,,,,,,return,3.77665,return,9.12082,0,0,0,0,1,,,,,,,,,,,,,,,,,,,,,,,,,,,,,,,,,,,,,,,,,,,,,,,,,,,,,,,,,,,,,,,,
,,,,,,,,,,1492579,2020-10-12_18h42.53.041,swahili,2020.2.4,Win32,60,,,,,,,,,,,,,,,,,,,,,,PARROT - KASUKU,,,,,,,,,,return,4.216085,1,0,1,0,1,,,,,,,,,,,,,,,,,,,,,,,,,,,,,,,,,,,,,,,,,,,,,,,,,,,,,,,,,,,,,,,,
,,,,,,,,,,1492579,2020-10-12_18h42.53.041,swahili,2020.2.4,Win32,60,,,,,,,,,,,,,,,,,,,,,,OATH - YAMINI,,,,,,,,,,return,4.26573,2,0,2,0,1,,,,,,,,,,,,,,,,,,,,,,,,,,,,,,,,,,,,,,,,,,,,,,,,,,,,,,,,,,,,,,,,
,,,,,,,,,,1492579,2020-10-12_18h42.53.041,swahili,2020.2.4,Win32,60,,,,,,,,,,,,,,,,,,,,,,GRAVE - KABURI,,,,,,,,,,return,3.677035,3,0,3,0,1,,,,,,,,,,,,,,,,,,,,,,,,,,,,,,,,,,,,,,,,,,,,,,,,,,,,,,,,,,,,,,,,
,,,,,,,,,,1492579,2020-10-12_18h42.53.041,swahili,2020.2.4,Win32,60,,,,,,,,,,,,,,,,,,,,,,BOAT - MASHUA,,,,,,,,,,return,3.034985,4,0,4,0,1,,,,,,,,,,,,,,,,,,,,,,,,,,,,,,,,,,,,,,,,,,,,,,,,,,,,,,,,,,,,,,,,
,,,,,,,,,,1492579,2020-10-12_18h42.53.041,swahili,2020.2.4,Win32,60,,,,,,,,,,,,,,,,,,,,,,DIVORCE - TALAKA,,,,,,,,,,return,2.358745,5,0,5,0,1,,,,,,,,,,,,,,,,,,,,,,,,,,,,,,,,,,,,,,,,,,,,,,,,,,,,,,,,,,,,,,,,
,,,,,,,,,,1492579,2020-10-12_18h42.53.041,swahili,2020.2.4,Win32,60,,,,,,,,,,,,,,,,,,,,,,GRAPES - ZABIBU,,,,,,,,,,return,2.18159,6,0,6,0,1,,,,,,,,,,,,,,,,,,,,,,,,,,,,,,,,,,,,,,,,,,,,,,,,,,,,,,,,,,,,,,,,
,,,,,,,,,,1492579,2020-10-12_18h42.53.041,swahili,2020.2.4,Win32,60,,,,,,,,,,,,,,,,,,,,,,TREASURE - DAFINA,,,,,,,,,,return,3.03102,7,0,7,0,1,,,,,,,,,,,,,,,,,,,,,,,,,,,,,,,,,,,,,,,,,,,,,,,,,,,,,,,,,,,,,,,,
,,,,,,,,,,1492579,2020-10-12_18h42.53.041,swahili,2020.2.4,Win32,60,,,,,,,,,,,,,,,,,,,,,,ORPHAN - YATIMA,,,,,,,,,,return,2.24679,8,0,8,0,1,,,,,,,,,,,,,,,,,,,,,,,,,,,,,,,,,,,,,,,,,,,,,,,,,,,,,,,,,,,,,,,,
,,,,,,,,,,1492579,2020-10-12_18h42.53.041,swahili,2020.2.4,Win32,60,,,,,,,,,,,,,,,,,,,,,,AGENT - WAKILI,,,,,,,,,,return,1.640445,9,0,9,0,1,,,,,,,,,,,,,,,,,,,,,,,,,,,,,,,,,,,,,,,,,,,,,,,,,,,,,,,,,,,,,,,,
,,,,,,,,,,1492579,2020-10-12_18h42.53.041,swahili,2020.2.4,Win32,60,,,,,,,,,,,,,,,,,,,,,,BULL - FAHILI,,,,,,,,,,return,1.84717,10,0,10,0,1,,,,,,,,,,,,,,,,,,,,,,,,,,,,,,,,,,,,,,,,,,,,,,,,,,,,,,,,,,,,,,,,
,,,,,,,,,,1492579,2020-10-12_18h42.53.041,swahili,2020.2.4,Win32,60,,,,,,,,,,,,,,,,,,,,,,PLATE - SAHANI,,,,,,,,,,return,1.52592,11,0,11,0,1,,,,,,,,,,,,,,,,,,,,,,,,,,,,,,,,,,,,,,,,,,,,,,,,,,,,,,,,,,,,,,,,
,,,,,,,,,,1492579,2020-10-12_18h42.53.041,swahili,2020.2.4,Win32,60,,,,,,,,,,,,,,,,,,,,,,CORN - NAFAKA,,,,,,,,,,return,1.47459,12,0,12,0,1,,,,,,,,,,,,,,,,,,,,,,,,,,,,,,,,,,,,,,,,,,,,,,,,,,,,,,,,,,,,,,,,
,,,,,,,,,,1492579,2020-10-12_18h42.53.041,swahili,2020.2.4,Win32,60,,,,,,,,,,,,,,,,,,,,,,TAILOR - MSHONI,,,,,,,,,,return,1.73414,13,0,13,0,1,,,,,,,,,,,,,,,,,,,,,,,,,,,,,,,,,,,,,,,,,,,,,,,,,,,,,,,,,,,,,,,,
,,,,,,,,,,1492579,2020-10-12_18h42.53.041,swahili,2020.2.4,Win32,60,,,,,,,,,,,,,,,,,,,,,,MERCHANT - TAJIRI,,,,,,,,,,return,1.752735,14,0,14,0,1,,,,,,,,,,,,,,,,,,,,,,,,,,,,,,,,,,,,,,,,,,,,,,,,,,,,,,,,,,,,,,,,
,,,,,,,,,,1492579,2020-10-12_18h42.53.041,swahili,2020.2.4,Win32,60,,,,,,,,,,,,,,,,,,,,,,BLAME - LAWAMA,,,,,,,,,,return,1.06097,15,0,15,0,1,,,,,,,,,,,,,,,,,,,,,,,,,,,,,,,,,,,,,,,,,,,,,,,,,,,,,,,,,,,,,,,,
,,,,,,,,,,1492579,2020-10-12_18h42.53.041,swahili,2020.2.4,Win32,60,,,,,,,,,,,,,,,,,,,,,,CHEESE - JIBINI,,,,,,,,,,return,1.517975,16,0,16,0,1,,,,,,,,,,,,,,,,,,,,,,,,,,,,,,,,,,,,,,,,,,,,,,,,,,,,,,,,,,,,,,,,
,,,,,,,,,,1492579,2020-10-12_18h42.53.041,swahili,2020.2.4,Win32,60,,,,,,,,,,,,,,,,,,,,,,MANURE - SAMADI,,,,,,,,,,return,1.199665,17,0,17,0,1,,,,,,,,,,,,,,,,,,,,,,,,,,,,,,,,,,,,,,,,,,,,,,,,,,,,,,,,,,,,,,,,
,,,,,,,,,,1492579,2020-10-12_18h42.53.041,swahili,2020.2.4,Win32,60,,,,,,,,,,,,,,,,,,,,,,YEAST - HAMIRA,,,,,,,,,,return,1.81912,18,0,18,0,1,,,,,,,,,,,,,,,,,,,,,,,,,,,,,,,,,,,,,,,,,,,,,,,,,,,,,,,,,,,,,,,,
,,,,,,,,,,1492579,2020-10-12_18h42.53.041,swahili,2020.2.4,Win32,60,,,,,,,,,,,,,,,,,,,,,,POEM - UTENZI,,,,,,,,,,return,1.050625,19,0,19,0,1,,,,,,,,,,,,,,,,,,,,,,,,,,,,,,,,,,,,,,,,,,,,,,,,,,,,,,,,,,,,,,,,
,,,,,,,,,,1492579,2020-10-12_18h42.53.041,swahili,2020.2.4,Win32,60,,,,,,,,,,,,,,,,,,,,,,,,,,,,,,,,,,,,,,,,0,0,0,0,1,,,,,,,,,,,,,,,,,,,,,,,,,,,,,,,,,,,,,,,,,,,,,,,,,,,,,,,,,,
,,,,,,,,,,1492579,2020-10-12_18h42.53.041,swahili,2020.2.4,Win32,60,,,,,,,,,,,,,,,,,,,,,,,,,,,,,,,,,,,,,,,,1,0,1,0,1,,,,,,,,,,,,,,,,,,,,,,,,,,,,,,,,,,,,,,,,,,,,,,,,,,,,,,,,,,
,,,,,,,,,,1492579,2020-10-12_18h42.53.041,swahili,2020.2.4,Win32,60,,,,,,,,,,,,,,,,,,,,,,,,,,,,,,,,,,,,,,,,,,,,,0,0,0,0,1,,,,,,,,,,,,,,,,,,,,,,,,,,,,,,,,,,,,,,,,,,,,,,,,,,,,,
,,,,,,,,,,1492579,2020-10-12_18h42.53.041,swahili,2020.2.4,Win32,60,,,,,,,,,,-0.28515625,-0.109992811,1,0,1,1.629945,unsorted_card,0,0,0,0,1,,,,,,,,,,,,,,,,,,,,,,,,,,,,,,,,,,,,,,,,,,,,,,,,,,,,,,,,,,,,,,,,,,,,,,,,,,,,,,,,,
,,,,,,,,,,1492579,2020-10-12_18h42.53.041,swahili,2020.2.4,Win32,60,,,,,,,,,,-0.28359375,-0.09705248,0,0,1,0.06634,unsorted_card,1,0,1,0,1,MERCHANT - TAJIRI,,,,,,,,,,,,,,,,,,,,,,,,,,,,,,,,,,,,,,,,,,,,,,,,,,,,,,,,,,,,,,,,,,,,,,,,,,,,,,,,
,,,,,,,,,,1492579,2020-10-12_18h42.53.041,swahili,2020.2.4,Win32,60,,,,,,,,,,0.4734375,0.012221423,1,0,1,20.27745,test_pile,2,0,2,0,1,MERCHANT - TAJIRI,,,,,,,,,,,,,,,,,,,,,,,,,,,,,,,,,,,,,,,,,,,,,,,,,,,,,,,,,,,,,,,,,,,,,,,,,,,,,,,,
,,,,,,,,,,1492579,2020-10-12_18h42.53.041,swahili,2020.2.4,Win32,60,,,,,,,,,,0.4734375,0.012221423,0,0,1,0.0489,test_pile,3,0,3,0,1,,,,,,,,,,,,,,,,,,,,,,,,,,,,,,,,,,,,,,,,,,,,,,,,,,,,,,,,,,,,,,,,,,,,,,,,,,,,,,,,,
,,,,,,,,,,1492579,2020-10-12_18h42.53.041,swahili,2020.2.4,Win32,60,,,,,,,,,,-0.37890625,-0.160316319,1,0,1,0.401235,unsorted_card,4,0,4,0,1,,,,,,,,,,,,,,,,,,,,,,,,,,,,,,,,,,,,,,,,,,,,,,,,,,,,,,,,,,,,,,,,,,,,,,,,,,,,,,,,,
,,,,,,,,,,1492579,2020-10-12_18h42.53.041,swahili,2020.2.4,Win32,60,,,,,,,,,,-0.37890625,-0.158878505,0,0,1,0.06575,unsorted_card,5,0,5,0,1,PARROT - KASUKU,,,,,,,,,,,,,,,,,,,,,,,,,,,,,,,,,,,,,,,,,,,,,,,,,,,,,,,,,,,,,,,,,,,,,,,,,,,,,,,,
,,,,,,,,,,1492579,2020-10-12_18h42.53.041,swahili,2020.2.4,Win32,60,,,,,,,,,,0.48125,0.030913012,1,0,1,1.61973,test_pile,6,0,6,0,1,PARROT - KASUKU,,,,,,,,,,,,,,,,,,,,,,,,,,,,,,,,,,,,,,,,,,,,,,,,,,,,,,,,,,,,,,,,,,,,,,,,,,,,,,,,
,,,,,,,,,,1492579,2020-10-12_18h42.53.041,swahili,2020.2.4,Win32,60,,,,,,,,,,0.48125,0.030913012,0,0,1,0.066125,test_pile,7,0,7,0,1,,,,,,,,,,,,,,,,,,,,,,,,,,,,,,,,,,,,,,,,,,,,,,,,,,,,,,,,,,,,,,,,,,,,,,,,,,,,,,,,,
,,,,,,,,,,1492579,2020-10-12_18h42.53.041,swahili,2020.2.4,Win32,60,,,,,,,,,,-0.253125,0.114306254,1,0,1,0.2178,unsorted_card,8,0,8,0,1,,,,,,,,,,,,,,,,,,,,,,,,,,,,,,,,,,,,,,,,,,,,,,,,,,,,,,,,,,,,,,,,,,,,,,,,,,,,,,,,,
,,,,,,,,,,1492579,2020-10-12_18h42.53.041,swahili,2020.2.4,Win32,60,,,,,,,,,,-0.253125,0.115744069,0,0,1,0.082105,unsorted_card,9,0,9,0,1,BULL - FAHILI,,,,,,,,,,,,,,,,,,,,,,,,,,,,,,,,,,,,,,,,,,,,,,,,,,,,,,,,,,,,,,,,,,,,,,,,,,,,,,,,
,,,,,,,,,,1492579,2020-10-12_18h42.53.041,swahili,2020.2.4,Win32,60,,,,,,,,,,0.48984375,-0.006470165,1,0,1,1.704055,test_pile,10,0,10,0,1,BULL - FAHILI,,,,,,,,,,,,,,,,,,,,,,,,,,,,,,,,,,,,,,,,,,,,,,,,,,,,,,,,,,,,,,,,,,,,,,,,,,,,,,,,
,,,,,,,,,,1492579,2020-10-12_18h42.53.041,swahili,2020.2.4,Win32,60,,,,,,,,,,0.48984375,-0.006470165,0,0,1,0.065495,test_pile,11,0,11,0,1,,,,,,,,,,,,,,,,,,,,,,,,,,,,,,,,,,,,,,,,,,,,,,,,,,,,,,,,,,,,,,,,,,,,,,,,,,,,,,,,,
,,,,,,,,,,1492579,2020-10-12_18h42.53.041,swahili,2020.2.4,Win32,60,,,,,,,,,,-0.28203125,-0.088425593,1,0,1,0.26765,unsorted_card,12,0,12,0,1,,,,,,,,,,,,,,,,,,,,,,,,,,,,,,,,,,,,,,,,,,,,,,,,,,,,,,,,,,,,,,,,,,,,,,,,,,,,,,,,,
,,,,,,,,,,1492579,2020-10-12_18h42.53.041,swahili,2020.2.4,Win32,60,,,,,,,,,,-0.28203125,-0.086987779,0,0,1,0.082245,unsorted_card,13,0,13,0,1,PLATE - SAHANI,,,,,,,,,,,,,,,,,,,,,,,,,,,,,,,,,,,,,,,,,,,,,,,,,,,,,,,,,,,,,,,,,,,,,,,,,,,,,,,,
,,,,,,,,,,1492579,2020-10-12_18h42.53.041,swahili,2020.2.4,Win32,60,,,,,,,,,,0.3484375,-0.056793674,1,0,1,4.126175,test_pile,14,0,14,0,1,PLATE - SAHANI,,,,,,,,,,,,,,,,,,,,,,,,,,,,,,,,,,,,,,,,,,,,,,,,,,,,,,,,,,,,,,,,,,,,,,,,,,,,,,,,
,,,,,,,,,,1492579,2020-10-12_18h42.53.041,swahili,2020.2.4,Win32,60,,,,,,,,,,0.36015625,-0.056793674,0,0,1,0.081805,test_pile,15,0,15,0,1,,,,,,,,,,,,,,,,,,,,,,,,,,,,,,,,,,,,,,,,,,,,,,,,,,,,,,,,,,,,,,,,,,,,,,,,,,,,,,,,,
,,,,,,,,,,1492579,2020-10-12_18h42.53.041,swahili,2020.2.4,Win32,60,,,,,,,,,,-0.31875,-0.013659238,1,0,1,0.400665,unsorted_card,16,0,16,0,1,,,,,,,,,,,,,,,,,,,,,,,,,,,,,,,,,,,,,,,,,,,,,,,,,,,,,,,,,,,,,,,,,,,,,,,,,,,,,,,,,
,,,,,,,,,,1492579,2020-10-12_18h42.53.041,swahili,2020.2.4,Win32,60,,,,,,,,,,-0.31875,-0.013659238,0,0,1,0.06631,unsorted_card,17,0,17,0,1,YEAST - HAMIRA,,,,,,,,,,,,,,,,,,,,,,,,,,,,,,,,,,,,,,,,,,,,,,,,,,,,,,,,,,,,,,,,,,,,,,,,,,,,,,,,
,,,,,,,,,,1492579,2020-10-12_18h42.53.041,swahili,2020.2.4,Win32,60,,,,,,,,,,0.55546875,0.526959022,1,0,1,1.40267,study_pile,18,0,18,0,1,YEAST - HAMIRA,,,,,,,,,,,,,,,,,,,,,,,,,,,,,,,,,,,,,,,,,,,,,,,,,,,,,,,,,,,,,,,,,,,,,,,,,,,,,,,,
,,,,,,,,,,1492579,2020-10-12_18h42.53.041,swahili,2020.2.4,Win32,60,,,,,,,,,,0.55546875,0.516894321,0,0,1,0.049525,study_pile,19,0,19,0,1,,,,,,,,,,,,,,,,,,,,,,,,,,,,,,,,,,,,,,,,,,,,,,,,,,,,,,,,,,,,,,,,,,,,,,,,,,,,,,,,,
,,,,,,,,,,1492579,2020-10-12_18h42.53.041,swahili,2020.2.4,Win32,60,,,,,,,,,,-0.31640625,0.000718907,1,0,1,0.21745,unsorted_card,20,0,20,0,1,,,,,,,,,,,,,,,,,,,,,,,,,,,,,,,,,,,,,,,,,,,,,,,,,,,,,,,,,,,,,,,,,,,,,,,,,,,,,,,,,
,,,,,,,,,,1492579,2020-10-12_18h42.53.041,swahili,2020.2.4,Win32,60,,,,,,,,,,-0.31640625,0.003594536,0,0,1,0.082555,unsorted_card,21,0,21,0,1,BLAME - LAWAMA,,,,,,,,,,,,,,,,,,,,,,,,,,,,,,,,,,,,,,,,,,,,,,,,,,,,,,,,,,,,,,,,,,,,,,,,,,,,,,,,
,,,,,,,,,,1492579,2020-10-12_18h42.53.041,swahili,2020.2.4,Win32,60,,,,,,,,,,0.44296875,0.386053199,1,0,1,2.388025,study_pile,22,0,22,0,1,BLAME - LAWAMA,,,,,,,,,,,,,,,,,,,,,,,,,,,,,,,,,,,,,,,,,,,,,,,,,,,,,,,,,,,,,,,,,,,,,,,,,,,,,,,,
,,,,,,,,,,1492579,2020-10-12_18h42.53.041,swahili,2020.2.4,Win32,60,,,,,,,,,,0.44375,0.386053199,0,0,1,0.083835,study_pile,23,0,23,0,1,,,,,,,,,,,,,,,,,,,,,,,,,,,,,,,,,,,,,,,,,,,,,,,,,,,,,,,,,,,,,,,,,,,,,,,,,,,,,,,,,
,,,,,,,,,,1492579,2020-10-12_18h42.53.041,swahili,2020.2.4,Win32,60,,,,,,,,,,-0.4125,-0.066858375,1,0,1,0.249405,unsorted_card,24,0,24,0,1,,,,,,,,,,,,,,,,,,,,,,,,,,,,,,,,,,,,,,,,,,,,,,,,,,,,,,,,,,,,,,,,,,,,,,,,,,,,,,,,,
,,,,,,,,,,1492579,2020-10-12_18h42.53.041,swahili,2020.2.4,Win32,60,,,,,,,,,,-0.4140625,-0.058231488,0,0,1,0.066555,unsorted_card,25,0,25,0,1,OATH - YAMINI,,,,,,,,,,,,,,,,,,,,,,,,,,,,,,,,,,,,,,,,,,,,,,,,,,,,,,,,,,,,,,,,,,,,,,,,,,,,,,,,
,,,,,,,,,,1492579,2020-10-12_18h42.53.041,swahili,2020.2.4,Win32,60,,,,,,,,,,0.440625,0.45938174,1,0,1,1.67052,study_pile,26,0,26,0,1,OATH - YAMINI,,,,,,,,,,,,,,,,,,,,,,,,,,,,,,,,,,,,,,,,,,,,,,,,,,,,,,,,,,,,,,,,,,,,,,,,,,,,,,,,
,,,,,,,,,,1492579,2020-10-12_18h42.53.041,swahili,2020.2.4,Win32,60,,,,,,,,,,0.440625,0.45938174,0,0,1,0.06545,study_pile,27,0,27,0,1,,,,,,,,,,,,,,,,,,,,,,,,,,,,,,,,,,,,,,,,,,,,,,,,,,,,,,,,,,,,,,,,,,,,,,,,,,,,,,,,,
,,,,,,,,,,1492579,2020-10-12_18h42.53.041,swahili,2020.2.4,Win32,60,,,,,,,,,,-0.4265625,-0.079798706,1,0,1,0.284205,unsorted_card,28,0,28,0,1,,,,,,,,,,,,,,,,,,,,,,,,,,,,,,,,,,,,,,,,,,,,,,,,,,,,,,,,,,,,,,,,,,,,,,,,,,,,,,,,,
,,,,,,,,,,1492579,2020-10-12_18h42.53.041,swahili,2020.2.4,Win32,60,,,,,,,,,,-0.4265625,-0.079798706,0,0,1,0.06574,unsorted_card,29,0,29,0,1,CORN - NAFAKA,,,,,,,,,,,,,,,,,,,,,,,,,,,,,,,,,,,,,,,,,,,,,,,,,,,,,,,,,,,,,,,,,,,,,,,,,,,,,,,,
,,,,,,,,,,1492579,2020-10-12_18h42.53.041,swahili,2020.2.4,Win32,60,,,,,,,,,,0.5640625,0.60891445,1,0,1,8.15152,study_pile,30,0,30,0,1,CORN - NAFAKA,,,,,,,,,,,,,,,,,,,,,,,,,,,,,,,,,,,,,,,,,,,,,,,,,,,,,,,,,,,,,,,,,,,,,,,,,,,,,,,,
,,,,,,,,,,1492579,2020-10-12_18h42.53.041,swahili,2020.2.4,Win32,60,,,,,,,,,,0.5640625,0.60891445,0,0,1,0.081855,study_pile,31,0,31,0,1,,,,,,,,,,,,,,,,,,,,,,,,,,,,,,,,,,,,,,,,,,,,,,,,,,,,,,,,,,,,,,,,,,,,,,,,,,,,,,,,,
,,,,,,,,,,1492579,2020-10-12_18h42.53.041,swahili,2020.2.4,Win32,60,,,,,,,,,,-0.48671875,0.043853343,1,0,1,0.400645,unsorted_card,32,0,32,0,1,,,,,,,,,,,,,,,,,,,,,,,,,,,,,,,,,,,,,,,,,,,,,,,,,,,,,,,,,,,,,,,,,,,,,,,,,,,,,,,,,
,,,,,,,,,,1492579,2020-10-12_18h42.53.041,swahili,2020.2.4,Win32,60,,,,,,,,,,-0.4859375,0.043853343,0,0,1,0.08314,unsorted_card,33,0,33,0,1,POEM - UTENZI,,,,,,,,,,,,,,,,,,,,,,,,,,,,,,,,,,,,,,,,,,,,,,,,,,,,,,,,,,,,,,,,,,,,,,,,,,,,,,,,
,,,,,,,,,,1492579,2020-10-12_18h42.53.041,swahili,2020.2.4,Win32,60,,,,,,,,,,0.4046875,0.387491014,1,0,1,2.822455,study_pile,34,0,34,0,1,POEM - UTENZI,,,,,,,,,,,,,,,,,,,,,,,,,,,,,,,,,,,,,,,,,,,,,,,,,,,,,,,,,,,,,,,,,,,,,,,,,,,,,,,,
,,,,,,,,,,1492579,2020-10-12_18h42.53.041,swahili,2020.2.4,Win32,60,,,,,,,,,,0.4046875,0.387491014,0,0,1,0.06622,study_pile,35,0,35,0,1,,,,,,,,,,,,,,,,,,,,,,,,,,,,,,,,,,,,,,,,,,,,,,,,,,,,,,,,,,,,,,,,,,,,,,,,,,,,,,,,,
,,,,,,,,,,1492579,2020-10-12_18h42.53.041,swahili,2020.2.4,Win32,60,,,,,,,,,,-0.42265625,-0.078360891,1,0,1,0.166755,unsorted_card,36,0,36,0,1,,,,,,,,,,,,,,,,,,,,,,,,,,,,,,,,,,,,,,,,,,,,,,,,,,,,,,,,,,,,,,,,,,,,,,,,,,,,,,,,,
,,,,,,,,,,1492579,2020-10-12_18h42.53.041,swahili,2020.2.4,Win32,60,,,,,,,,,,-0.4203125,-0.06829619,0,0,1,0.065945,unsorted_card,37,0,37,0,1,TAILOR - MSHONI,,,,,,,,,,,,,,,,,,,,,,,,,,,,,,,,,,,,,,,,,,,,,,,,,,,,,,,,,,,,,,,,,,,,,,,,,,,,,,,,
,,,,,,,,,,1492579,2020-10-12_18h42.53.041,swahili,2020.2.4,Win32,60,,,,,,,,,,0.46953125,0.446441409,1,0,1,2.940255,study_pile,38,0,38,0,1,TAILOR - MSHONI,,,,,,,,,,,,,,,,,,,,,,,,,,,,,,,,,,,,,,,,,,,,,,,,,,,,,,,,,,,,,,,,,,,,,,,,,,,,,,,,
,,,,,,,,,,1492579,2020-10-12_18h42.53.041,swahili,2020.2.4,Win32,60,,,,,,,,,,0.46953125,0.446441409,0,0,1,0.06517,study_pile,39,0,39,0,1,,,,,,,,,,,,,,,,,,,,,,,,,,,,,,,,,,,,,,,,,,,,,,,,,,,,,,,,,,,,,,,,,,,,,,,,,,,,,,,,,
,,,,,,,,,,1492579,2020-10-12_18h42.53.041,swahili,2020.2.4,Win32,60,,,,,,,,,,-0.334375,-0.03666427,1,0,1,0.15015,unsorted_card,40,0,40,0,1,,,,,,,,,,,,,,,,,,,,,,,,,,,,,,,,,,,,,,,,,,,,,,,,,,,,,,,,,,,,,,,,,,,,,,,,,,,,,,,,,
,,,,,,,,,,1492579,2020-10-12_18h42.53.041,swahili,2020.2.4,Win32,60,,,,,,,,,,-0.34375,-0.042415528,0,0,1,0.06637,unsorted_card,41,0,41,0,1,CHEESE - JIBINI,,,,,,,,,,,,,,,,,,,,,,,,,,,,,,,,,,,,,,,,,,,,,,,,,,,,,,,,,,,,,,,,,,,,,,,,,,,,,,,,
,,,,,,,,,,1492579,2020-10-12_18h42.53.041,swahili,2020.2.4,Win32,60,,,,,,,,,,0.546875,0.124370956,1,0,1,1.08638,test_pile,42,0,42,0,1,CHEESE - JIBINI,,,,,,,,,,,,,,,,,,,,,,,,,,,,,,,,,,,,,,,,,,,,,,,,,,,,,,,,,,,,,,,,,,,,,,,,,,,,,,,,
,,,,,,,,,,1492579,2020-10-12_18h42.53.041,swahili,2020.2.4,Win32,60,,,,,,,,,,0.54453125,0.122933142,0,0,1,0.065105,test_pile,43,0,43,0,1,,,,,,,,,,,,,,,,,,,,,,,,,,,,,,,,,,,,,,,,,,,,,,,,,,,,,,,,,,,,,,,,,,,,,,,,,,,,,,,,,
,,,,,,,,,,1492579,2020-10-12_18h42.53.041,swahili,2020.2.4,Win32,60,,,,,,,,,,-0.26796875,0.197699497,1,0,1,0.21663,unsorted_card,44,0,44,0,1,,,,,,,,,,,,,,,,,,,,,,,,,,,,,,,,,,,,,,,,,,,,,,,,,,,,,,,,,,,,,,,,,,,,,,,,,,,,,,,,,
,,,,,,,,,,1492579,2020-10-12_18h42.53.041,swahili,2020.2.4,Win32,60,,,,,,,,,,-0.25859375,0.197699497,0,0,1,0.066165,unsorted_card,45,0,45,0,1,GRAPES - ZABIBU,,,,,,,,,,,,,,,,,,,,,,,,,,,,,,,,,,,,,,,,,,,,,,,,,,,,,,,,,,,,,,,,,,,,,,,,,,,,,,,,
,,,,,,,,,,1492579,2020-10-12_18h42.53.041,swahili,2020.2.4,Win32,60,,,,,,,,,,0.4125,-0.009345794,1,0,1,1.637305,test_pile,46,0,46,0,1,GRAPES - ZABIBU,,,,,,,,,,,,,,,,,,,,,,,,,,,,,,,,,,,,,,,,,,,,,,,,,,,,,,,,,,,,,,,,,,,,,,,,,,,,,,,,
,,,,,,,,,,1492579,2020-10-12_18h42.53.041,swahili,2020.2.4,Win32,60,,,,,,,,,,0.4140625,-0.010783609,0,0,1,0.048875,test_pile,47,0,47,0,1,,,,,,,,,,,,,,,,,,,,,,,,,,,,,,,,,,,,,,,,,,,,,,,,,,,,,,,,,,,,,,,,,,,,,,,,,,,,,,,,,
,,,,,,,,,,1492579,2020-10-12_18h42.53.041,swahili,2020.2.4,Win32,60,,,,,,,,,,-0.3296875,-0.075485262,1,0,1,0.3002,unsorted_card,48,0,48,0,1,,,,,,,,,,,,,,,,,,,,,,,,,,,,,,,,,,,,,,,,,,,,,,,,,,,,,,,,,,,,,,,,,,,,,,,,,,,,,,,,,
,,,,,,,,,,1492579,2020-10-12_18h42.53.041,swahili,2020.2.4,Win32,60,,,,,,,,,,-0.3296875,-0.075485262,0,0,1,0.06649,unsorted_card,49,0,49,0,1,GRAVE - KABURI,,,,,,,,,,,,,,,,,,,,,,,,,,,,,,,,,,,,,,,,,,,,,,,,,,,,,,,,,,,,,,,,,,,,,,,,,,,,,,,,
,,,,,,,,,,1492579,2020-10-12_18h42.53.041,swahili,2020.2.4,Win32,60,,,,,,,,,,0.340625,-0.038102085,1,0,1,2.338105,test_pile,50,0,50,0,1,GRAVE - KABURI,,,,,,,,,,,,,,,,,,,,,,,,,,,,,,,,,,,,,,,,,,,,,,,,,,,,,,,,,,,,,,,,,,,,,,,,,,,,,,,,
,,,,,,,,,,1492579,2020-10-12_18h42.53.041,swahili,2020.2.4,Win32,60,,,,,,,,,,0.340625,-0.038102085,0,0,1,0.0493,test_pile,51,0,51,0,1,,,,,,,,,,,,,,,,,,,,,,,,,,,,,,,,,,,,,,,,,,,,,,,,,,,,,,,,,,,,,,,,,,,,,,,,,,,,,,,,,
,,,,,,,,,,1492579,2020-10-12_18h42.53.041,swahili,2020.2.4,Win32,60,,,,,,,,,,-0.29296875,0.020848311,1,0,1,0.284395,unsorted_card,52,0,52,0,1,,,,,,,,,,,,,,,,,,,,,,,,,,,,,,,,,,,,,,,,,,,,,,,,,,,,,,,,,,,,,,,,,,,,,,,,,,,,,,,,,
,,,,,,,,,,1492579,2020-10-12_18h42.53.041,swahili,2020.2.4,Win32,60,,,,,,,,,,-0.29296875,0.020848311,0,0,1,0.06563,unsorted_card,53,0,53,0,1,MANURE - SAMADI,,,,,,,,,,,,,,,,,,,,,,,,,,,,,,,,,,,,,,,,,,,,,,,,,,,,,,,,,,,,,,,,,,,,,,,,,,,,,,,,
,,,,,,,,,,1492579,2020-10-12_18h42.53.041,swahili,2020.2.4,Win32,60,,,,,,,,,,0.3828125,0.005032351,1,0,1,2.07176,test_pile,54,0,54,0,1,MANURE - SAMADI,,,,,,,,,,,,,,,,,,,,,,,,,,,,,,,,,,,,,,,,,,,,,,,,,,,,,,,,,,,,,,,,,,,,,,,,,,,,,,,,
,,,,,,,,,,1492579,2020-10-12_18h42.53.041,swahili,2020.2.4,Win32,60,,,,,,,,,,0.3828125,0.005032351,0,0,1,0.08215,test_pile,55,0,55,0,1,,,,,,,,,,,,,,,,,,,,,,,,,,,,,,,,,,,,,,,,,,,,,,,,,,,,,,,,,,,,,,,,,,,,,,,,,,,,,,,,,
,,,,,,,,,,1492579,2020-10-12_18h42.53.041,swahili,2020.2.4,Win32,60,,,,,,,,,,-0.37578125,0.003594536,1,0,1,0.184075,unsorted_card,56,0,56,0,1,,,,,,,,,,,,,,,,,,,,,,,,,,,,,,,,,,,,,,,,,,,,,,,,,,,,,,,,,,,,,,,,,,,,,,,,,,,,,,,,,
,,,,,,,,,,1492579,2020-10-12_18h42.53.041,swahili,2020.2.4,Win32,60,,,,,,,,,,-0.38359375,0.005032351,0,0,1,0.08223,unsorted_card,57,0,57,0,1,AGENT - WAKILI,,,,,,,,,,,,,,,,,,,,,,,,,,,,,,,,,,,,,,,,,,,,,,,,,,,,,,,,,,,,,,,,,,,,,,,,,,,,,,,,
,,,,,,,,,,1492579,2020-10-12_18h42.53.041,swahili,2020.2.4,Win32,60,,,,,,,,,,0.50859375,0.009345794,1,0,1,1.48542,test_pile,58,0,58,0,1,AGENT - WAKILI,,,,,,,,,,,,,,,,,,,,,,,,,,,,,,,,,,,,,,,,,,,,,,,,,,,,,,,,,,,,,,,,,,,,,,,,,,,,,,,,
,,,,,,,,,,1492579,2020-10-12_18h42.53.041,swahili,2020.2.4,Win32,60,,,,,,,,,,0.50859375,0.009345794,0,0,1,0.066275,test_pile,59,0,59,0,1,,,,,,,,,,,,,,,,,,,,,,,,,,,,,,,,,,,,,,,,,,,,,,,,,,,,,,,,,,,,,,,,,,,,,,,,,,,,,,,,,
,,,,,,,,,,1492579,2020-10-12_18h42.53.041,swahili,2020.2.4,Win32,60,,,,,,,,,,-0.38203125,0.019410496,1,0,1,0.20075,unsorted_card,60,0,60,0,1,,,,,,,,,,,,,,,,,,,,,,,,,,,,,,,,,,,,,,,,,,,,,,,,,,,,,,,,,,,,,,,,,,,,,,,,,,,,,,,,,
,,,,,,,,,,1492579,2020-10-12_18h42.53.041,swahili,2020.2.4,Win32,60,,,,,,,,,,-0.3828125,0.029475198,0,0,1,0.065745,unsorted_card,61,0,61,0,1,BRIBE - RUSHWA,,,,,,,,,,,,,,,,,,,,,,,,,,,,,,,,,,,,,,,,,,,,,,,,,,,,,,,,,,,,,,,,,,,,,,,,,,,,,,,,
,,,,,,,,,,1492579,2020-10-12_18h42.53.041,swahili,2020.2.4,Win32,60,,,,,,,,,,0.41015625,0.45938174,1,0,1,1.853635,study_pile,62,0,62,0,1,BRIBE - RUSHWA,,,,,,,,,,,,,,,,,,,,,,,,,,,,,,,,,,,,,,,,,,,,,,,,,,,,,,,,,,,,,,,,,,,,,,,,,,,,,,,,
,,,,,,,,,,1492579,2020-10-12_18h42.53.041,swahili,2020.2.4,Win32,60,,,,,,,,,,0.41328125,0.460819554,0,0,1,0.0659,study_pile,63,0,63,0,1,,,,,,,,,,,,,,,,,,,,,,,,,,,,,,,,,,,,,,,,,,,,,,,,,,,,,,,,,,,,,,,,,,,,,,,,,,,,,,,,,
,,,,,,,,,,1492579,2020-10-12_18h42.53.041,swahili,2020.2.4,Win32,60,,,,,,,,,,-0.22890625,0.154565061,1,0,1,0.13322,unsorted_card,64,0,64,0,1,,,,,,,,,,,,,,,,,,,,,,,,,,,,,,,,,,,,,,,,,,,,,,,,,,,,,,,,,,,,,,,,,,,,,,,,,,,,,,,,,
,,,,,,,,,,1492579,2020-10-12_18h42.53.041,swahili,2020.2.4,Win32,60,,,,,,,,,,-0.22734375,0.153127247,0,0,1,0.06639,unsorted_card,65,0,65,0,1,ORPHAN - YATIMA,,,,,,,,,,,,,,,,,,,,,,,,,,,,,,,,,,,,,,,,,,,,,,,,,,,,,,,,,,,,,,,,,,,,,,,,,,,,,,,,
,,,,,,,,,,1492579,2020-10-12_18h42.53.041,swahili,2020.2.4,Win32,60,,,,,,,,,,0.46796875,0.489575845,1,0,1,2.37239,study_pile,66,0,66,0,1,ORPHAN - YATIMA,,,,,,,,,,,,,,,,,,,,,,,,,,,,,,,,,,,,,,,,,,,,,,,,,,,,,,,,,,,,,,,,,,,,,,,,,,,,,,,,
,,,,,,,,,,1492579,2020-10-12_18h42.53.041,swahili,2020.2.4,Win32,60,,,,,,,,,,0.47421875,0.491013659,0,0,1,0.065085,study_pile,67,0,67,0,1,,,,,,,,,,,,,,,,,,,,,,,,,,,,,,,,,,,,,,,,,,,,,,,,,,,,,,,,,,,,,,,,,,,,,,,,,,,,,,,,,
,,,,,,,,,,1492579,2020-10-12_18h42.53.041,swahili,2020.2.4,Win32,60,,,,,,,,,,-0.27109375,-0.028037383,1,0,1,0.16672,unsorted_card,68,0,68,0,1,,,,,,,,,,,,,,,,,,,,,,,,,,,,,,,,,,,,,,,,,,,,,,,,,,,,,,,,,,,,,,,,,,,,,,,,,,,,,,,,,
,,,,,,,,,,1492579,2020-10-12_18h42.53.041,swahili,2020.2.4,Win32,60,,,,,,,,,,-0.26953125,-0.026599569,0,0,1,0.10033,unsorted_card,69,0,69,0,1,DIVORCE - TALAKA,,,,,,,,,,,,,,,,,,,,,,,,,,,,,,,,,,,,,,,,,,,,,,,,,,,,,,,,,,,,,,,,,,,,,,,,,,,,,,,,
,,,,,,,,,,1492579,2020-10-12_18h42.53.041,swahili,2020.2.4,Win32,60,,,,,,,,,,0.46171875,0.480948958,1,0,1,1.987245,study_pile,70,0,70,0,1,DIVORCE - TALAKA,,,,,,,,,,,,,,,,,,,,,,,,,,,,,,,,,,,,,,,,,,,,,,,,,,,,,,,,,,,,,,,,,,,,,,,,,,,,,,,,
,,,,,,,,,,1492579,2020-10-12_18h42.53.041,swahili,2020.2.4,Win32,60,,,,,,,,,,0.4625,0.480948958,0,0,1,0.065665,study_pile,71,0,71,0,1,,,,,,,,,,,,,,,,,,,,,,,,,,,,,,,,,,,,,,,,,,,,,,,,,,,,,,,,,,,,,,,,,,,,,,,,,,,,,,,,,
,,,,,,,,,,1492579,2020-10-12_18h42.53.041,swahili,2020.2.4,Win32,60,,,,,,,,,,-0.1828125,-0.035226456,1,0,1,0.184405,unsorted_card,72,0,72,0,1,,,,,,,,,,,,,,,,,,,,,,,,,,,,,,,,,,,,,,,,,,,,,,,,,,,,,,,,,,,,,,,,,,,,,,,,,,,,,,,,,
,,,,,,,,,,1492579,2020-10-12_18h42.53.041,swahili,2020.2.4,Win32,60,,,,,,,,,,-0.18359375,-0.035226456,0,0,1,0.06546,unsorted_card,73,0,73,0,1,BOAT - MASHUA,,,,,,,,,,,,,,,,,,,,,,,,,,,,,,,,,,,,,,,,,,,,,,,,,,,,,,,,,,,,,,,,,,,,,,,,,,,,,,,,
,,,,,,,,,,1492579,2020-10-12_18h42.53.041,swahili,2020.2.4,Win32,60,,,,,,,,,,0.409375,0.010783609,1,0,1,1.6042,test_pile,74,0,74,0,1,BOAT - MASHUA,,,,,,,,,,,,,,,,,,,,,,,,,,,,,,,,,,,,,,,,,,,,,,,,,,,,,,,,,,,,,,,,,,,,,,,,,,,,,,,,
,,,,,,,,,,1492579,2020-10-12_18h42.53.041,swahili,2020.2.4,Win32,60,,,,,,,,,,0.409375,0.010783609,0,0,1,0.06533,test_pile,75,0,75,0,1,,,,,,,,,,,,,,,,,,,,,,,,,,,,,,,,,,,,,,,,,,,,,,,,,,,,,,,,,,,,,,,,,,,,,,,,,,,,,,,,,
,,,,,,,,,,1492579,2020-10-12_18h42.53.041,swahili,2020.2.4,Win32,60,,,,,,,,,,-0.3984375,0.059669303,1,0,1,0.15091,unsorted_card,76,0,76,0,1,,,,,,,,,,,,,,,,,,,,,,,,,,,,,,,,,,,,,,,,,,,,,,,,,,,,,,,,,,,,,,,,,,,,,,,,,,,,,,,,,
,,,,,,,,,,1492579,2020-10-12_18h42.53.041,swahili,2020.2.4,Win32,60,,,,,,,,,,-0.38046875,0.072609633,0,0,1,0.06524,unsorted_card,77,0,77,0,1,TREASURE - DAFINA,,,,,,,,,,,,,,,,,,,,,,,,,,,,,,,,,,,,,,,,,,,,,,,,,,,,,,,,,,,,,,,,,,,,,,,,,,,,,,,,
,,,,,,,,,,1492579,2020-10-12_18h42.53.041,swahili,2020.2.4,Win32,60,,,,,,,,,,0.428125,0.02372394,1,0,1,2.489025,test_pile,78,0,78,0,1,TREASURE - DAFINA,,,,,,,,,,,,,,,,,,,,,,,,,,,,,,,,,,,,,,,,,,,,,,,,,,,,,,,,,,,,,,,,,,,,,,,,,,,,,,,,
,,,,,,,,,,1492579,2020-10-12_18h42.53.041,swahili,2020.2.4,Win32,60,,,,,,,,,,,,,,,,,,,,,,,0.43203125,0.022286125,0,0,1,0.08234,test_first,,,,,0,0,0,0,1,,,,,,,,,,,,,,,,,,,,,,,,,,,,,,,,,,,,,,,,,,,,,,,,,,,,,,,,,,,,,,,,
,,,,,,,,,,1492579,2020-10-12_18h42.53.041,swahili,2020.2.4,Win32,60,,,,,,,,,,,,,,,,,,,,,,,,,,,,,,,,,,,,,,,return,,,,,,,,,,,3.281055,5.69452,0.50703125,-0.09705248,1,0,1,1.75305,yes,GRAPES,TAJIRI,incorrect,0,0,0,0,1,,,,,,,,,,,,,,,,,,,,,,,,,,,,,,,,,,,,
,,,,,,,,,,1492579,2020-10-12_18h42.53.041,swahili,2020.2.4,Win32,60,,,,,,,,,,,,,,,,,,,,,,,,,,,,,,,,,,,,,,,,,,,,,,,,,,,4.242015,0.6984375,-0.384615385,1,0,1,1.1366,yes,GRAVE,RAMADI,incorrect,1,0,1,0,1,,,,,,,,,,,,,,,,,,,,,,,,,,,,,,,,,,,,
,,,,,,,,,,1492579,2020-10-12_18h42.53.041,swahili,2020.2.4,Win32,60,,,,,,,,,,,,,,,,,,,,,,,,,,,,,,,,,,,,,,,,,,,,,,,,,,,3.97464,0.4609375,-0.170381021,1,0,0,1.035585,yes,BULL,TIJURI,incorrect,2,0,2,0,1,,,,,,,,,,,,,,,,,,,,,,,,,,,,,,,,,,,,
,,,,,,,,,,1492579,2020-10-12_18h42.53.041,swahili,2020.2.4,Win32,60,,,,,,,,,,,,,,,,,,,,,,,,,,,,,,,,,,,,,,,,,,,,,,,,,,,12.3426,0.38125,-0.104241553,1,0,0,0.684535,yes,AGENT,KIJURI,incorrect,3,0,3,0,1,,,,,,,,,,,,,,,,,,,,,,,,,,,,,,,,,,,,
,,,,,,,,,,1492579,2020-10-12_18h42.53.041,swahili,2020.2.4,Win32,60,,,,,,,,,,,,,,,,,,,,,,,,,,,,,,,,,,,,,,,,,,,,,,,,,,,10.938805,0.53359375,-0.020848311,1,0,0,1.119055,yes,MERCHANT,J,incorrect,4,0,4,0,1,,,,,,,,,,,,,,,,,,,,,,,,,,,,,,,,,,,,
,,,,,,,,,,1492579,2020-10-12_18h42.53.041,swahili,2020.2.4,Win32,60,,,,,,,,,,,,,,,,,,,,,,,,,,,,,,,,,,,,,,,,,,,,,,,,,,,7.282235,0.4875,0.00790798,1,0,0,0.500105,yes,MANURE,D,incorrect,5,0,5,0,1,,,,,,,,,,,,,,,,,,,,,,,,,,,,,,,,,,,,
,,,,,,,,,,1492579,2020-10-12_18h42.53.041,swahili,2020.2.4,Win32,60,,,,,,,,,,,,,,,,,,,,,,,,,,,,,,,,,,,,,,,,,,,,,,,,,,,3.757575,0.65078125,0.501078361,1,0,0,0.768325,yes,CHEESE,BILIKI,incorrect,6,0,6,0,1,,,,,,,,,,,,,,,,,,,,,,,,,,,,,,,,,,,,
,,,,,,,,,,1492579,2020-10-12_18h42.53.041,swahili,2020.2.4,Win32,60,,,,,,,,,,,,,,,,,,,,,,,,,,,,,,,,,,,,,,,,,,,,,,,,,,,3.62337,0.46171875,0.250898634,1,0,0,0.7183,yes,PARROT,BRINI,incorrect,7,0,7,0,1,,,,,,,,,,,,,,,,,,,,,,,,,,,,,,,,,,,,
,,,,,,,,,,1492579,2020-10-12_18h42.53.041,swahili,2020.2.4,Win32,60,,,,,,,,,,,,,,,,,,,,,,,,,,,,,,,,,,,,,,,,,,,,,,,,,,,3.87456,0.44375,0.105679367,1,0,0,0.735495,yes,BOAT,MASHUA,incorrect,8,0,8,0,1,,,,,,,,,,,,,,,,,,,,,,,,,,,,,,,,,,,,
,,,,,,,,,,1492579,2020-10-12_18h42.53.041,swahili,2020.2.4,Win32,60,,,,,,,,,,,,,,,,,,,,,,,,,,,,,,,,,,,,,,,,,,,,,,,,,,,5.344405,0.45078125,-0.076923077,1,0,0,0.83503,yes,TREASURE,JIKIRI,incorrect,9,0,9,0,1,,,,,,,,,,,,,,,,,,,,,,,,,,,,,,,,,,,,
,,,,,,,,,,1492579,2020-10-12_18h42.53.041,swahili,2020.2.4,Win32,60,,,,,,,,,,,,,,,,,,,,,,,,,,,,,,,,,,,,,,,,,,,,,,,,,,,3.490355,0.37734375,0.134435658,1,0,0,0.65127,yes,PLATE,F,incorrect,10,0,10,0,1,,,,,,,,,,,,,,,,,,,,,,,,,,,,,,,,,,,,
,,,,,,,,,,1492579,2020-10-12_18h42.53.041,swahili,2020.2.4,Win32,60,,,,,,,,,,,,,,,,,,,,,,,,,,,,,,,,,,,,,,,,0,0,0,0,1,,,,,,,,,,,,,,,,,,,,,,,,,,,,,,,,,,,,,,,,,,,,,,,,,,,,,,,,,,
,,,,,,,,,,1492579,2020-10-12_18h42.53.041,swahili,2020.2.4,Win32,60,,,,,,,,,,,,,,,,,,,,,,BLAME - LAWAMA,,,,,,,,return,1.4894,return,2.085395,0,0,0,0,1,,,,,,,,,,,,,,,,,,,,,,,,,,,,,,,,,,,,,,,,,,,,,,,,,,,,,,,,,,,,,,,,
,,,,,,,,,,1492579,2020-10-12_18h42.53.041,swahili,2020.2.4,Win32,60,,,,,,,,,,,,,,,,,,,,,,OATH - YAMINI,,,,,,,,,,return,1.6578,1,0,1,0,1,,,,,,,,,,,,,,,,,,,,,,,,,,,,,,,,,,,,,,,,,,,,,,,,,,,,,,,,,,,,,,,,
,,,,,,,,,,1492579,2020-10-12_18h42.53.041,swahili,2020.2.4,Win32,60,,,,,,,,,,,,,,,,,,,,,,POEM - UTENZI,,,,,,,,,,return,1.45387,2,0,2,0,1,,,,,,,,,,,,,,,,,,,,,,,,,,,,,,,,,,,,,,,,,,,,,,,,,,,,,,,,,,,,,,,,
,,,,,,,,,,1492579,2020-10-12_18h42.53.041,swahili,2020.2.4,Win32,60,,,,,,,,,,,,,,,,,,,,,,DIVORCE - TALAKA,,,,,,,,,,return,1.39435,3,0,3,0,1,,,,,,,,,,,,,,,,,,,,,,,,,,,,,,,,,,,,,,,,,,,,,,,,,,,,,,,,,,,,,,,,
,,,,,,,,,,1492579,2020-10-12_18h42.53.041,swahili,2020.2.4,Win32,60,,,,,,,,,,,,,,,,,,,,,,CORN - NAFAKA,,,,,,,,,,return,1.51512,4,0,4,0,1,,,,,,,,,,,,,,,,,,,,,,,,,,,,,,,,,,,,,,,,,,,,,,,,,,,,,,,,,,,,,,,,
,,,,,,,,,,1492579,2020-10-12_18h42.53.041,swahili,2020.2.4,Win32,60,,,,,,,,,,,,,,,,,,,,,,BRIBE - RUSHWA,,,,,,,,,,return,1.6237,5,0,5,0,1,,,,,,,,,,,,,,,,,,,,,,,,,,,,,,,,,,,,,,,,,,,,,,,,,,,,,,,,,,,,,,,,
,,,,,,,,,,1492579,2020-10-12_18h42.53.041,swahili,2020.2.4,Win32,60,,,,,,,,,,,,,,,,,,,,,,ORPHAN - YATIMA,,,,,,,,,,return,1.577605,6,0,6,0,1,,,,,,,,,,,,,,,,,,,,,,,,,,,,,,,,,,,,,,,,,,,,,,,,,,,,,,,,,,,,,,,,
,,,,,,,,,,1492579,2020-10-12_18h42.53.041,swahili,2020.2.4,Win32,60,,,,,,,,,,,,,,,,,,,,,,YEAST - HAMIRA,,,,,,,,,,return,1.177395,7,0,7,0,1,,,,,,,,,,,,,,,,,,,,,,,,,,,,,,,,,,,,,,,,,,,,,,,,,,,,,,,,,,,,,,,,
,,,,,,,,,,1492579,2020-10-12_18h42.53.041,swahili,2020.2.4,Win32,60,,,,,,,,,,,,,,,,,,,,,,TAILOR - MSHONI,,,,,,,,,,return,1.16342,8,0,8,0,1,,,,,,,,,,,,,,,,,,,,,,,,,,,,,,,,,,,,,,,,,,,,,,,,,,,,,,,,,,,,,,,,
,,,,,,,,,,1492579,2020-10-12_18h42.53.041,swahili,2020.2.4,Win32,60,,,,,,,,,,,,,,,,,,,,,,,,,,,,,,,,,,,,,,,,1,0,1,0,1,,,,,,,,,,,,,,,,,,,,,,,,,,,,,,,,,,,,,,,,,,,,,,,,,,,,,,,,,,
,,,,,,,,,,1492579,2020-10-12_18h42.53.041,swahili,2020.2.4,Win32,60,,,,,,,,,,,,,,,,,,,,,,,,,,,,,,,,,,,,,,,,,,,,,1,0,1,0,1,,,,,,,,,,,,,,,,,,,,,,,,,,,,,,,,,,,,,,,,,,,,,,,,,,,,,
,,,,,,,,,,1492579,2020-10-12_18h42.53.041,swahili,2020.2.4,Win32,60,,,,,,,,,,-0.25390625,-0.019410496,1,0,0,1.06322,unsorted_card,0,0,0,0,1,,,,,,,,,,,,,,,,,,,,,,,,,,,,,,,,,,,,,,,,,,,,,,,,,,,,,,,,,,,,,,,,,,,,,,,,,,,,,,,,,
,,,,,,,,,,1492579,2020-10-12_18h42.53.041,swahili,2020.2.4,Win32,60,,,,,,,,,,0.54609375,-0.035226456,1,0,0,1.3855,test_pile,1,0,1,0,1,MERCHANT - TAJIRI,,,,,,,,,,,,,,,,,,,,,,,,,,,,,,,,,,,,,,,,,,,,,,,,,,,,,,,,,,,,,,,,,,,,,,,,,,,,,,,,
,,,,,,,,,,1492579,2020-10-12_18h42.53.041,swahili,2020.2.4,Win32,60,,,,,,,,,,-0.4015625,-0.030913012,1,0,0,0.484065,unsorted_card,2,0,2,0,1,,,,,,,,,,,,,,,,,,,,,,,,,,,,,,,,,,,,,,,,,,,,,,,,,,,,,,,,,,,,,,,,,,,,,,,,,,,,,,,,,
,,,,,,,,,,1492579,2020-10-12_18h42.53.041,swahili,2020.2.4,Win32,60,,,,,,,,,,0.44375,0.462257369,1,0,0,3.023345,study_pile,3,0,3,0,1,PARROT - KASUKU,,,,,,,,,,,,,,,,,,,,,,,,,,,,,,,,,,,,,,,,,,,,,,,,,,,,,,,,,,,,,,,,,,,,,,,,,,,,,,,,
,,,,,,,,,,1492579,2020-10-12_18h42.53.041,swahili,2020.2.4,Win32,60,,,,,,,,,,-0.52109375,-0.132997843,1,0,0,0.316145,unsorted_card,4,0,4,0,1,,,,,,,,,,,,,,,,,,,,,,,,,,,,,,,,,,,,,,,,,,,,,,,,,,,,,,,,,,,,,,,,,,,,,,,,,,,,,,,,,
,,,,,,,,,,1492579,2020-10-12_18h42.53.041,swahili,2020.2.4,Win32,60,,,,,,,,,,0.54375,0.457943925,1,0,0,1.670715,study_pile,5,0,5,0,1,BULL - FAHILI,,,,,,,,,,,,,,,,,,,,,,,,,,,,,,,,,,,,,,,,,,,,,,,,,,,,,,,,,,,,,,,,,,,,,,,,,,,,,,,,
,,,,,,,,,,1492579,2020-10-12_18h42.53.041,swahili,2020.2.4,Win32,60,,,,,,,,,,-0.37265625,-0.049604601,1,0,0,0.26669,unsorted_card,6,0,6,0,1,,,,,,,,,,,,,,,,,,,,,,,,,,,,,,,,,,,,,,,,,,,,,,,,,,,,,,,,,,,,,,,,,,,,,,,,,,,,,,,,,
,,,,,,,,,,1492579,2020-10-12_18h42.53.041,swahili,2020.2.4,Win32,60,,,,,,,,,,0.453125,0.514018692,1,0,0,2.90595,study_pile,7,0,7,0,1,PLATE - SAHANI,,,,,,,,,,,,,,,,,,,,,,,,,,,,,,,,,,,,,,,,,,,,,,,,,,,,,,,,,,,,,,,,,,,,,,,,,,,,,,,,
,,,,,,,,,,1492579,2020-10-12_18h42.53.041,swahili,2020.2.4,Win32,60,,,,,,,,,,-0.45625,-0.006470165,1,0,0,0.249075,unsorted_card,8,0,8,0,1,,,,,,,,,,,,,,,,,,,,,,,,,,,,,,,,,,,,,,,,,,,,,,,,,,,,,,,,,,,,,,,,,,,,,,,,,,,,,,,,,
,,,,,,,,,,1492579,2020-10-12_18h42.53.041,swahili,2020.2.4,Win32,60,,,,,,,,,,0.43671875,-0.030913012,1,0,0,2.188525,test_pile,9,0,9,0,1,YEAST - HAMIRA,,,,,,,,,,,,,,,,,,,,,,,,,,,,,,,,,,,,,,,,,,,,,,,,,,,,,,,,,,,,,,,,,,,,,,,,,,,,,,,,
,,,,,,,,,,1492579,2020-10-12_18h42.53.041,swahili,2020.2.4,Win32,60,,,,,,,,,,-0.43046875,-0.134435658,1,0,0,0.24909,unsorted_card,10,0,10,0,1,,,,,,,,,,,,,,,,,,,,,,,,,,,,,,,,,,,,,,,,,,,,,,,,,,,,,,,,,,,,,,,,,,,,,,,,,,,,,,,,,
,,,,,,,,,,1492579,2020-10-12_18h42.53.041,swahili,2020.2.4,Win32,60,,,,,,,,,,0.478125,0.479511143,1,0,0,1.502785,study_pile,11,0,11,0,1,BLAME - LAWAMA,,,,,,,,,,,,,,,,,,,,,,,,,,,,,,,,,,,,,,,,,,,,,,,,,,,,,,,,,,,,,,,,,,,,,,,,,,,,,,,,
,,,,,,,,,,1492579,2020-10-12_18h42.53.041,swahili,2020.2.4,Win32,60,,,,,,,,,,-0.28671875,-0.109992811,1,0,0,0.30014,unsorted_card,12,0,12,0,1,,,,,,,,,,,,,,,,,,,,,,,,,,,,,,,,,,,,,,,,,,,,,,,,,,,,,,,,,,,,,,,,,,,,,,,,,,,,,,,,,
,,,,,,,,,,1492579,2020-10-12_18h42.53.041,swahili,2020.2.4,Win32,60,,,,,,,,,,0.51640625,0.505391804,1,0,0,1.26911,study_pile,13,0,13,0,1,OATH - YAMINI,,,,,,,,,,,,,,,,,,,,,,,,,,,,,,,,,,,,,,,,,,,,,,,,,,,,,,,,,,,,,,,,,,,,,,,,,,,,,,,,
,,,,,,,,,,1492579,2020-10-12_18h42.53.041,swahili,2020.2.4,Win32,60,,,,,,,,,,-0.22421875,0.049604601,1,0,0,0.216655,unsorted_card,14,0,14,0,1,,,,,,,,,,,,,,,,,,,,,,,,,,,,,,,,,,,,,,,,,,,,,,,,,,,,,,,,,,,,,,,,,,,,,,,,,,,,,,,,,
,,,,,,,,,,1492579,2020-10-12_18h42.53.041,swahili,2020.2.4,Win32,60,,,,,,,,,,0.48671875,0.50395399,1,0,0,1.31819,study_pile,15,0,15,0,1,CORN - NAFAKA,,,,,,,,,,,,,,,,,,,,,,,,,,,,,,,,,,,,,,,,,,,,,,,,,,,,,,,,,,,,,,,,,,,,,,,,,,,,,,,,
,,,,,,,,,,1492579,2020-10-12_18h42.53.041,swahili,2020.2.4,Win32,60,,,,,,,,,,-0.39609375,-0.209202013,1,0,0,0.233265,unsorted_card,16,0,16,0,1,,,,,,,,,,,,,,,,,,,,,,,,,,,,,,,,,,,,,,,,,,,,,,,,,,,,,,,,,,,,,,,,,,,,,,,,,,,,,,,,,
,,,,,,,,,,1492579,2020-10-12_18h42.53.041,swahili,2020.2.4,Win32,60,,,,,,,,,,0.45078125,0.051042416,1,0,0,1.035825,test_pile,17,0,17,0,1,POEM - UTENZI,,,,,,,,,,,,,,,,,,,,,,,,,,,,,,,,,,,,,,,,,,,,,,,,,,,,,,,,,,,,,,,,,,,,,,,,,,,,,,,,
,,,,,,,,,,1492579,2020-10-12_18h42.53.041,swahili,2020.2.4,Win32,60,,,,,,,,,,-0.25,-0.108554996,1,0,0,0.282735,unsorted_card,18,0,18,0,1,,,,,,,,,,,,,,,,,,,,,,,,,,,,,,,,,,,,,,,,,,,,,,,,,,,,,,,,,,,,,,,,,,,,,,,,,,,,,,,,,
,,,,,,,,,,1492579,2020-10-12_18h42.53.041,swahili,2020.2.4,Win32,60,,,,,,,,,,0.390625,0.495327103,1,0,0,1.7869,study_pile,19,0,19,0,1,TAILOR - MSHONI,,,,,,,,,,,,,,,,,,,,,,,,,,,,,,,,,,,,,,,,,,,,,,,,,,,,,,,,,,,,,,,,,,,,,,,,,,,,,,,,
,,,,,,,,,,1492579,2020-10-12_18h42.53.041,swahili,2020.2.4,Win32,60,,,,,,,,,,-0.26015625,-0.107117182,1,0,0,0.21723,unsorted_card,20,0,20,0,1,,,,,,,,,,,,,,,,,,,,,,,,,,,,,,,,,,,,,,,,,,,,,,,,,,,,,,,,,,,,,,,,,,,,,,,,,,,,,,,,,
,,,,,,,,,,1492579,2020-10-12_18h42.53.041,swahili,2020.2.4,Win32,60,,,,,,,,,,0.48125,-0.053918045,1,0,0,1.118845,test_pile,21,0,21,0,1,CHEESE - JIBINI,,,,,,,,,,,,,,,,,,,,,,,,,,,,,,,,,,,,,,,,,,,,,,,,,,,,,,,,,,,,,,,,,,,,,,,,,,,,,,,,
,,,,,,,,,,1492579,2020-10-12_18h42.53.041,swahili,2020.2.4,Win32,60,,,,,,,,,,-0.37578125,-0.170381021,1,0,0,0.24923,unsorted_card,22,0,22,0,1,,,,,,,,,,,,,,,,,,,,,,,,,,,,,,,,,,,,,,,,,,,,,,,,,,,,,,,,,,,,,,,,,,,,,,,,,,,,,,,,,
,,,,,,,,,,1492579,2020-10-12_18h42.53.041,swahili,2020.2.4,Win32,60,,,,,,,,,,0.41875,0.387491014,1,0,0,1.436055,study_pile,23,0,23,0,1,GRAPES - ZABIBU,,,,,,,,,,,,,,,,,,,,,,,,,,,,,,,,,,,,,,,,,,,,,,,,,,,,,,,,,,,,,,,,,,,,,,,,,,,,,,,,
,,,,,,,,,,1492579,2020-10-12_18h42.53.041,swahili,2020.2.4,Win32,60,,,,,,,,,,-0.25625,-0.043853343,1,0,0,0.23407,unsorted_card,24,0,24,0,1,,,,,,,,,,,,,,,,,,,,,,,,,,,,,,,,,,,,,,,,,,,,,,,,,,,,,,,,,,,,,,,,,,,,,,,,,,,,,,,,,
,,,,,,,,,,1492579,2020-10-12_18h42.53.041,swahili,2020.2.4,Win32,60,,,,,,,,,,0.503125,0.479511143,1,0,0,6.12831,study_pile,25,0,25,0,1,GRAVE - KABURI,,,,,,,,,,,,,,,,,,,,,,,,,,,,,,,,,,,,,,,,,,,,,,,,,,,,,,,,,,,,,,,,,,,,,,,,,,,,,,,,
,,,,,,,,,,1492579,2020-10-12_18h42.53.041,swahili,2020.2.4,Win32,60,,,,,,,,,,-0.28046875,0.08123652,1,0,0,0.249865,unsorted_card,26,0,26,0,1,,,,,,,,,,,,,,,,,,,,,,,,,,,,,,,,,,,,,,,,,,,,,,,,,,,,,,,,,,,,,,,,,,,,,,,,,,,,,,,,,
,,,,,,,,,,1492579,2020-10-12_18h42.53.041,swahili,2020.2.4,Win32,60,,,,,,,,,,0.4640625,0.420560748,1,0,0,2.45486,study_pile,27,0,27,0,1,MANURE - SAMADI,,,,,,,,,,,,,,,,,,,,,,,,,,,,,,,,,,,,,,,,,,,,,,,,,,,,,,,,,,,,,,,,,,,,,,,,,,,,,,,,
,,,,,,,,,,1492579,2020-10-12_18h42.53.041,swahili,2020.2.4,Win32,60,,,,,,,,,,-0.3828125,-0.032350827,1,0,0,0.2341,unsorted_card,28,0,28,0,1,,,,,,,,,,,,,,,,,,,,,,,,,,,,,,,,,,,,,,,,,,,,,,,,,,,,,,,,,,,,,,,,,,,,,,,,,,,,,,,,,
,,,,,,,,,,1492579,2020-10-12_18h42.53.041,swahili,2020.2.4,Win32,60,,,,,,,,,,0.3703125,-0.015097052,1,0,0,1.469435,test_pile,29,0,29,0,1,AGENT - WAKILI,,,,,,,,,,,,,,,,,,,,,,,,,,,,,,,,,,,,,,,,,,,,,,,,,,,,,,,,,,,,,,,,,,,,,,,,,,,,,,,,
,,,,,,,,,,1492579,2020-10-12_18h42.53.041,swahili,2020.2.4,Win32,60,,,,,,,,,,-0.48671875,-0.079798706,1,0,0,0.23311,unsorted_card,30,0,30,0,1,,,,,,,,,,,,,,,,,,,,,,,,,,,,,,,,,,,,,,,,,,,,,,,,,,,,,,,,,,,,,,,,,,,,,,,,,,,,,,,,,
,,,,,,,,,,1492579,2020-10-12_18h42.53.041,swahili,2020.2.4,Win32,60,,,,,,,,,,0.3171875,0.00790798,1,0,0,2.28701,test_pile,31,0,31,0,1,BRIBE - RUSHWA,,,,,,,,,,,,,,,,,,,,,,,,,,,,,,,,,,,,,,,,,,,,,,,,,,,,,,,,,,,,,,,,,,,,,,,,,,,,,,,,
,,,,,,,,,,1492579,2020-10-12_18h42.53.041,swahili,2020.2.4,Win32,60,,,,,,,,,,-0.3796875,-0.08123652,1,0,0,0.250235,unsorted_card,32,0,32,0,1,,,,,,,,,,,,,,,,,,,,,,,,,,,,,,,,,,,,,,,,,,,,,,,,,,,,,,,,,,,,,,,,,,,,,,,,,,,,,,,,,
,,,,,,,,,,1492579,2020-10-12_18h42.53.041,swahili,2020.2.4,Win32,60,,,,,,,,,,0.37421875,0.424874191,1,0,0,0.934745,study_pile,33,0,33,0,1,ORPHAN - YATIMA,,,,,,,,,,,,,,,,,,,,,,,,,,,,,,,,,,,,,,,,,,,,,,,,,,,,,,,,,,,,,,,,,,,,,,,,,,,,,,,,
,,,,,,,,,,1492579,2020-10-12_18h42.53.041,swahili,2020.2.4,Win32,60,,,,,,,,,,-0.2578125,-0.08411215,1,0,0,0.216615,unsorted_card,34,0,34,0,1,,,,,,,,,,,,,,,,,,,,,,,,,,,,,,,,,,,,,,,,,,,,,,,,,,,,,,,,,,,,,,,,,,,,,,,,,,,,,,,,,
,,,,,,,,,,1492579,2020-10-12_18h42.53.041,swahili,2020.2.4,Win32,60,,,,,,,,,,0.48828125,0.465132998,1,0,0,1.119465,study_pile,35,0,35,0,1,DIVORCE - TALAKA,,,,,,,,,,,,,,,,,,,,,,,,,,,,,,,,,,,,,,,,,,,,,,,,,,,,,,,,,,,,,,,,,,,,,,,,,,,,,,,,
,,,,,,,,,,1492579,2020-10-12_18h42.53.041,swahili,2020.2.4,Win32,60,,,,,,,,,,-0.28828125,-0.053918045,1,0,0,0.433005,unsorted_card,36,0,36,0,1,,,,,,,,,,,,,,,,,,,,,,,,,,,,,,,,,,,,,,,,,,,,,,,,,,,,,,,,,,,,,,,,,,,,,,,,,,,,,,,,,
,,,,,,,,,,1492579,2020-10-12_18h42.53.041,swahili,2020.2.4,Win32,60,,,,,,,,,,0.41484375,0.006470165,1,0,0,1.036,test_pile,37,0,37,0,1,BOAT - MASHUA,,,,,,,,,,,,,,,,,,,,,,,,,,,,,,,,,,,,,,,,,,,,,,,,,,,,,,,,,,,,,,,,,,,,,,,,,,,,,,,,
,,,,,,,,,,1492579,2020-10-12_18h42.53.041,swahili,2020.2.4,Win32,60,,,,,,,,,,-0.2765625,-0.048166786,1,0,0,0.20002,unsorted_card,38,0,38,0,1,,,,,,,,,,,,,,,,,,,,,,,,,,,,,,,,,,,,,,,,,,,,,,,,,,,,,,,,,,,,,,,,,,,,,,,,,,,,,,,,,
,,,,,,,,,,1492579,2020-10-12_18h42.53.041,swahili,2020.2.4,Win32,60,,,,,,,,,,0.5140625,0.545650611,1,0,0,1.268795,study_pile,39,0,39,0,1,TREASURE - DAFINA,,,,,,,,,,,,,,,,,,,,,,,,,,,,,,,,,,,,,,,,,,,,,,,,,,,,,,,,,,,,,,,,,,,,,,,,,,,,,,,,
,,,,,,,,,,1492579,2020-10-12_18h42.53.041,swahili,2020.2.4,Win32,60,,,,,,,,,,,,,,,,,,,,,,,0.59296875,0.250898634,1,0,0,1.886235,test_first,,,,,0,0,0,0,1,,,,,,,,,,,,,,,,,,,,,,,,,,,,,,,,,,,,,,,,,,,,,,,,,,,,,,,,,,,,,,,,
,,,,,,,,,,1492579,2020-10-12_18h42.53.041,swahili,2020.2.4,Win32,60,,,,,,,,,,,,,,,,,,,,,,,,,,,,,,,,,,,,,,,return,,,,,,,,,,,2.26568,5.37761,0.31015625,-0.1286844,1,0,0,0.969515,yes,BOAT,MUSHUA,incorrect,0,0,0,0,1,,,,,,,,,,,,,,,,,,,,,,,,,,,,,,,,,,,,
,,,,,,,,,,1492579,2020-10-12_18h42.53.041,swahili,2020.2.4,Win32,60,,,,,,,,,,,,,,,,,,,,,,,,,,,,,,,,,,,,,,,,,,,,,,,,,,,3.45694,0.43125,-0.153127247,1,0,0,0.802295,yes,CHEESE,BILINI,incorrect,1,0,1,0,1,,,,,,,,,,,,,,,,,,,,,,,,,,,,,,,,,,,,
,,,,,,,,,,1492579,2020-10-12_18h42.53.041,swahili,2020.2.4,Win32,60,,,,,,,,,,,,,,,,,,,,,,,,,,,,,,,,,,,,,,,,,,,,,,,,,,,4.22519,0.378125,-0.1286844,1,0,0,0.75154,yes,MERCHANT,TAJIKI,incorrect,2,0,2,0,1,,,,,,,,,,,,,,,,,,,,,,,,,,,,,,,,,,,,
,,,,,,,,,,1492579,2020-10-12_18h42.53.041,swahili,2020.2.4,Win32,60,,,,,,,,,,,,,,,,,,,,,,,,,,,,,,,,,,,,,,,,,,,,,,,,,,,7.265315,0.38125,-0.032350827,1,0,0,0.751575,yes,YEAST,SAMIRA,incorrect,3,0,3,0,1,,,,,,,,,,,,,,,,,,,,,,,,,,,,,,,,,,,,
,,,,,,,,,,1492579,2020-10-12_18h42.53.041,swahili,2020.2.4,Win32,60,,,,,,,,,,,,,,,,,,,,,,,,,,,,,,,,,,,,,,,,,,,,,,,,,,,13.49546,0.3671875,0.049604601,1,0,0,0.88608,yes,POEM,RUSHWA,incorrect,4,0,4,0,1,,,,,,,,,,,,,,,,,,,,,,,,,,,,,,,,,,,,
,,,,,,,,,,1492579,2020-10-12_18h42.53.041,swahili,2020.2.4,Win32,60,,,,,,,,,,,,,,,,,,,,,,,,,,,,,,,,,,,,,,,,,,,,,,,,,,,6.747345,0.41015625,-0.099928109,1,0,0,0.701495,yes,AGENT,JIKINI,incorrect,5,0,5,0,1,,,,,,,,,,,,,,,,,,,,,,,,,,,,,,,,,,,,
,,,,,,,,,,1492579,2020-10-12_18h42.53.041,swahili,2020.2.4,Win32,60,,,,,,,,,,,,,,,,,,,,,,,,,,,,,,,,,,,,,,,,,,,,,,,,,,,3.52371,0.63203125,0.009345794,1,0,0,0.768235,yes,BRIBE,RUSHWA,incorrect,6,0,6,0,1,,,,,,,,,,,,,,,,,,,,,,,,,,,,,,,,,,,,
,,,,,,,,,,1492579,2020-10-12_18h42.53.041,swahili,2020.2.4,Win32,60,,,,,,,,,,,,,,,,,,,,,,,,,,,,,,,,,,,,,,,,0,0,0,0,1,,,,,,,,,,,,,,,,,,,,,,,,,,,,,,,,,,,,,,,,,,,,,,,,,,,,,,,,,,
,,,,,,,,,,1492579,2020-10-12_18h42.53.041,swahili,2020.2.4,Win32,60,,,,,,,,,,,,,,,,,,,,,,PLATE - SAHANI,,,,,,,,return,1.22991,return,1.773445,0,0,0,0,1,,,,,,,,,,,,,,,,,,,,,,,,,,,,,,,,,,,,,,,,,,,,,,,,,,,,,,,,,,,,,,,,
,,,,,,,,,,1492579,2020-10-12_18h42.53.041,swahili,2020.2.4,Win32,60,,,,,,,,,,,,,,,,,,,,,,OATH - YAMINI,,,,,,,,,,return,1.104185,1,0,1,0,1,,,,,,,,,,,,,,,,,,,,,,,,,,,,,,,,,,,,,,,,,,,,,,,,,,,,,,,,,,,,,,,,
,,,,,,,,,,1492579,2020-10-12_18h42.53.041,swahili,2020.2.4,Win32,60,,,,,,,,,,,,,,,,,,,,,,ORPHAN - YATIMA,,,,,,,,,,return,1.50079,2,0,2,0,1,,,,,,,,,,,,,,,,,,,,,,,,,,,,,,,,,,,,,,,,,,,,,,,,,,,,,,,,,,,,,,,,
,,,,,,,,,,1492579,2020-10-12_18h42.53.041,swahili,2020.2.4,Win32,60,,,,,,,,,,,,,,,,,,,,,,PARROT - KASUKU,,,,,,,,,,return,1.07566,3,0,3,0,1,,,,,,,,,,,,,,,,,,,,,,,,,,,,,,,,,,,,,,,,,,,,,,,,,,,,,,,,,,,,,,,,
,,,,,,,,,,1492579,2020-10-12_18h42.53.041,swahili,2020.2.4,Win32,60,,,,,,,,,,,,,,,,,,,,,,BULL - FAHILI,,,,,,,,,,return,1.27623,4,0,4,0,1,,,,,,,,,,,,,,,,,,,,,,,,,,,,,,,,,,,,,,,,,,,,,,,,,,,,,,,,,,,,,,,,
,,,,,,,,,,1492579,2020-10-12_18h42.53.041,swahili,2020.2.4,Win32,60,,,,,,,,,,,,,,,,,,,,,,DIVORCE - TALAKA,,,,,,,,,,return,0.935935,5,0,5,0,1,,,,,,,,,,,,,,,,,,,,,,,,,,,,,,,,,,,,,,,,,,,,,,,,,,,,,,,,,,,,,,,,
,,,,,,,,,,1492579,2020-10-12_18h42.53.041,swahili,2020.2.4,Win32,60,,,,,,,,,,,,,,,,,,,,,,CORN - NAFAKA,,,,,,,,,,return,1.72502,6,0,6,0,1,,,,,,,,,,,,,,,,,,,,,,,,,,,,,,,,,,,,,,,,,,,,,,,,,,,,,,,,,,,,,,,,
,,,,,,,,,,1492579,2020-10-12_18h42.53.041,swahili,2020.2.4,Win32,60,,,,,,,,,,,,,,,,,,,,,,BLAME - LAWAMA,,,,,,,,,,return,1.220225,7,0,7,0,1,,,,,,,,,,,,,,,,,,,,,,,,,,,,,,,,,,,,,,,,,,,,,,,,,,,,,,,,,,,,,,,,
,,,,,,,,,,1492579,2020-10-12_18h42.53.041,swahili,2020.2.4,Win32,60,,,,,,,,,,,,,,,,,,,,,,GRAVE - KABURI,,,,,,,,,,return,1.89419,8,0,8,0,1,,,,,,,,,,,,,,,,,,,,,,,,,,,,,,,,,,,,,,,,,,,,,,,,,,,,,,,,,,,,,,,,
,,,,,,,,,,1492579,2020-10-12_18h42.53.041,swahili,2020.2.4,Win32,60,,,,,,,,,,,,,,,,,,,,,,TAILOR - MSHONI,,,,,,,,,,return,0.92428,9,0,9,0,1,,,,,,,,,,,,,,,,,,,,,,,,,,,,,,,,,,,,,,,,,,,,,,,,,,,,,,,,,,,,,,,,
,,,,,,,,,,1492579,2020-10-12_18h42.53.041,swahili,2020.2.4,Win32,60,,,,,,,,,,,,,,,,,,,,,,GRAPES - ZABIBU,,,,,,,,,,return,1.2268,10,0,10,0,1,,,,,,,,,,,,,,,,,,,,,,,,,,,,,,,,,,,,,,,,,,,,,,,,,,,,,,,,,,,,,,,,
,,,,,,,,,,1492579,2020-10-12_18h42.53.041,swahili,2020.2.4,Win32,60,,,,,,,,,,,,,,,,,,,,,,TREASURE - DAFINA,,,,,,,,,,return,1.31425,11,0,11,0,1,,,,,,,,,,,,,,,,,,,,,,,,,,,,,,,,,,,,,,,,,,,,,,,,,,,,,,,,,,,,,,,,
,,,,,,,,,,1492579,2020-10-12_18h42.53.041,swahili,2020.2.4,Win32,60,,,,,,,,,,,,,,,,,,,,,,MANURE - SAMADI,,,,,,,,,,return,1.251785,12,0,12,0,1,,,,,,,,,,,,,,,,,,,,,,,,,,,,,,,,,,,,,,,,,,,,,,,,,,,,,,,,,,,,,,,,
,,,,,,,,,,1492579,2020-10-12_18h42.53.041,swahili,2020.2.4,Win32,60,,,,,,,,,,,,,,,,,,,,,,,,,,,,,,,,,,,,,,,,1,0,1,0,1,,,,,,,,,,,,,,,,,,,,,,,,,,,,,,,,,,,,,,,,,,,,,,,,,,,,,,,,,,
,,,,,,,,,,1492579,2020-10-12_18h42.53.041,swahili,2020.2.4,Win32,60,,,,,,,,,,,,,,,,,,,,,,,,,,,,,,,,,,,,,,,,,,,,,2,0,2,0,1,,,,,,,,,,,,,,,,,,,,,,,,,,,,,,,,,,,,,,,,,,,,,,,,,,,,,
,,,,,,,,,,1492579,2020-10-12_18h42.53.041,swahili,2020.2.4,Win32,60,,,,,,,,,,-0.4703125,-0.048166786,1,0,0,1.43042,unsorted_card,0,0,0,0,1,,,,,,,,,,,,,,,,,,,,,,,,,,,,,,,,,,,,,,,,,,,,,,,,,,,,,,,,,,,,,,,,,,,,,,,,,,,,,,,,,
,,,,,,,,,,1492579,2020-10-12_18h42.53.041,swahili,2020.2.4,Win32,60,,,,,,,,,,0.61328125,-0.094176851,1,0,0,1.335945,test_pile,1,0,1,0,1,MERCHANT - TAJIRI,,,,,,,,,,,,,,,,,,,,,,,,,,,,,,,,,,,,,,,,,,,,,,,,,,,,,,,,,,,,,,,,,,,,,,,,,,,,,,,,
,,,,,,,,,,1492579,2020-10-12_18h42.53.041,swahili,2020.2.4,Win32,60,,,,,,,,,,-0.30625,-0.038102085,1,0,0,0.334105,unsorted_card,2,0,2,0,1,,,,,,,,,,,,,,,,,,,,,,,,,,,,,,,,,,,,,,,,,,,,,,,,,,,,,,,,,,,,,,,,,,,,,,,,,,,,,,,,,
,,,,,,,,,,1492579,2020-10-12_18h42.53.041,swahili,2020.2.4,Win32,60,,,,,,,,,,0.47421875,0.54852624,1,0,0,0.98526,study_pile,3,0,3,0,1,PARROT - KASUKU,,,,,,,,,,,,,,,,,,,,,,,,,,,,,,,,,,,,,,,,,,,,,,,,,,,,,,,,,,,,,,,,,,,,,,,,,,,,,,,,
,,,,,,,,,,1492579,2020-10-12_18h42.53.041,swahili,2020.2.4,Win32,60,,,,,,,,,,-0.28828125,0.088425593,1,0,0,0.33285,unsorted_card,4,0,4,0,1,,,,,,,,,,,,,,,,,,,,,,,,,,,,,,,,,,,,,,,,,,,,,,,,,,,,,,,,,,,,,,,,,,,,,,,,,,,,,,,,,
,,,,,,,,,,1492579,2020-10-12_18h42.53.041,swahili,2020.2.4,Win32,60,,,,,,,,,,0.48046875,0.547088426,1,0,0,1.101955,study_pile,5,0,5,0,1,BULL - FAHILI,,,,,,,,,,,,,,,,,,,,,,,,,,,,,,,,,,,,,,,,,,,,,,,,,,,,,,,,,,,,,,,,,,,,,,,,,,,,,,,,
,,,,,,,,,,1492579,2020-10-12_18h42.53.041,swahili,2020.2.4,Win32,60,,,,,,,,,,-0.38984375,-0.017972682,1,0,0,0.31692,unsorted_card,6,0,6,0,1,,,,,,,,,,,,,,,,,,,,,,,,,,,,,,,,,,,,,,,,,,,,,,,,,,,,,,,,,,,,,,,,,,,,,,,,,,,,,,,,,
,,,,,,,,,,1492579,2020-10-12_18h42.53.041,swahili,2020.2.4,Win32,60,,,,,,,,,,0.41328125,0.397555715,1,0,0,0.902065,study_pile,7,0,7,0,1,PLATE - SAHANI,,,,,,,,,,,,,,,,,,,,,,,,,,,,,,,,,,,,,,,,,,,,,,,,,,,,,,,,,,,,,,,,,,,,,,,,,,,,,,,,
,,,,,,,,,,1492579,2020-10-12_18h42.53.041,swahili,2020.2.4,Win32,60,,,,,,,,,,-0.3265625,-0.076923077,1,0,0,0.39982,unsorted_card,8,0,8,0,1,,,,,,,,,,,,,,,,,,,,,,,,,,,,,,,,,,,,,,,,,,,,,,,,,,,,,,,,,,,,,,,,,,,,,,,,,,,,,,,,,
,,,,,,,,,,1492579,2020-10-12_18h42.53.041,swahili,2020.2.4,Win32,60,,,,,,,,,,0.48828125,0.460819554,1,0,0,0.80143,study_pile,9,0,9,0,1,YEAST - HAMIRA,,,,,,,,,,,,,,,,,,,,,,,,,,,,,,,,,,,,,,,,,,,,,,,,,,,,,,,,,,,,,,,,,,,,,,,,,,,,,,,,
,,,,,,,,,,1492579,2020-10-12_18h42.53.041,swahili,2020.2.4,Win32,60,,,,,,,,,,-0.32734375,-0.06829619,1,0,0,0.350145,unsorted_card,10,0,10,0,1,,,,,,,,,,,,,,,,,,,,,,,,,,,,,,,,,,,,,,,,,,,,,,,,,,,,,,,,,,,,,,,,,,,,,,,,,,,,,,,,,
,,,,,,,,,,1492579,2020-10-12_18h42.53.041,swahili,2020.2.4,Win32,60,,,,,,,,,,0.50234375,0.544212797,1,0,0,2.32125,study_pile,11,0,11,0,1,BLAME - LAWAMA,,,,,,,,,,,,,,,,,,,,,,,,,,,,,,,,,,,,,,,,,,,,,,,,,,,,,,,,,,,,,,,,,,,,,,,,,,,,,,,,
,,,,,,,,,,1492579,2020-10-12_18h42.53.041,swahili,2020.2.4,Win32,60,,,,,,,,,,-0.2453125,0.019410496,1,0,0,0.283415,unsorted_card,12,0,12,0,1,,,,,,,,,,,,,,,,,,,,,,,,,,,,,,,,,,,,,,,,,,,,,,,,,,,,,,,,,,,,,,,,,,,,,,,,,,,,,,,,,
,,,,,,,,,,1492579,2020-10-12_18h42.53.041,swahili,2020.2.4,Win32,60,,,,,,,,,,0.4953125,0.603163192,1,0,0,1.536215,study_pile,13,0,13,0,1,OATH - YAMINI,,,,,,,,,,,,,,,,,,,,,,,,,,,,,,,,,,,,,,,,,,,,,,,,,,,,,,,,,,,,,,,,,,,,,,,,,,,,,,,,
,,,,,,,,,,1492579,2020-10-12_18h42.53.041,swahili,2020.2.4,Win32,60,,,,,,,,,,-0.26640625,0.055355859,1,0,0,0.267235,unsorted_card,14,0,14,0,1,,,,,,,,,,,,,,,,,,,,,,,,,,,,,,,,,,,,,,,,,,,,,,,,,,,,,,,,,,,,,,,,,,,,,,,,,,,,,,,,,
,,,,,,,,,,1492579,2020-10-12_18h42.53.041,swahili,2020.2.4,Win32,60,,,,,,,,,,0.434375,0.480948958,1,0,0,0.917715,study_pile,15,0,15,0,1,CORN - NAFAKA,,,,,,,,,,,,,,,,,,,,,,,,,,,,,,,,,,,,,,,,,,,,,,,,,,,,,,,,,,,,,,,,,,,,,,,,,,,,,,,,
,,,,,,,,,,1492579,2020-10-12_18h42.53.041,swahili,2020.2.4,Win32,60,,,,,,,,,,-0.36484375,0.035226456,1,0,0,0.23326,unsorted_card,16,0,16,0,1,,,,,,,,,,,,,,,,,,,,,,,,,,,,,,,,,,,,,,,,,,,,,,,,,,,,,,,,,,,,,,,,,,,,,,,,,,,,,,,,,
,,,,,,,,,,1492579,2020-10-12_18h42.53.041,swahili,2020.2.4,Win32,60,,,,,,,,,,0.57578125,0.019410496,1,0,0,5.027295,test_pile,17,0,17,0,1,POEM - UTENZI,,,,,,,,,,,,,,,,,,,,,,,,,,,,,,,,,,,,,,,,,,,,,,,,,,,,,,,,,,,,,,,,,,,,,,,,,,,,,,,,
,,,,,,,,,,1492579,2020-10-12_18h42.53.041,swahili,2020.2.4,Win32,60,,,,,,,,,,-0.45546875,0.140186916,1,0,0,0.26706,unsorted_card,18,0,18,0,1,,,,,,,,,,,,,,,,,,,,,,,,,,,,,,,,,,,,,,,,,,,,,,,,,,,,,,,,,,,,,,,,,,,,,,,,,,,,,,,,,
,,,,,,,,,,1492579,2020-10-12_18h42.53.041,swahili,2020.2.4,Win32,60,,,,,,,,,,0.43125,0.483824587,1,0,0,0.985105,study_pile,19,0,19,0,1,TAILOR - MSHONI,,,,,,,,,,,,,,,,,,,,,,,,,,,,,,,,,,,,,,,,,,,,,,,,,,,,,,,,,,,,,,,,,,,,,,,,,,,,,,,,
,,,,,,,,,,1492579,2020-10-12_18h42.53.041,swahili,2020.2.4,Win32,60,,,,,,,,,,-0.2328125,0.059669303,1,0,0,0.349625,unsorted_card,20,0,20,0,1,,,,,,,,,,,,,,,,,,,,,,,,,,,,,,,,,,,,,,,,,,,,,,,,,,,,,,,,,,,,,,,,,,,,,,,,,,,,,,,,,
,,,,,,,,,,1492579,2020-10-12_18h42.53.041,swahili,2020.2.4,Win32,60,,,,,,,,,,0.371875,0.539899353,1,0,0,2.121575,study_pile,21,0,21,0,1,CHEESE - JIBINI,,,,,,,,,,,,,,,,,,,,,,,,,,,,,,,,,,,,,,,,,,,,,,,,,,,,,,,,,,,,,,,,,,,,,,,,,,,,,,,,
,,,,,,,,,,1492579,2020-10-12_18h42.53.041,swahili,2020.2.4,Win32,60,,,,,,,,,,-0.203125,0.03666427,1,0,0,0.2335,unsorted_card,22,0,22,0,1,,,,,,,,,,,,,,,,,,,,,,,,,,,,,,,,,,,,,,,,,,,,,,,,,,,,,,,,,,,,,,,,,,,,,,,,,,,,,,,,,
,,,,,,,,,,1492579,2020-10-12_18h42.53.041,swahili,2020.2.4,Win32,60,,,,,,,,,,0.4203125,0.567217829,1,0,0,0.834525,study_pile,23,0,23,0,1,GRAPES - ZABIBU,,,,,,,,,,,,,,,,,,,,,,,,,,,,,,,,,,,,,,,,,,,,,,,,,,,,,,,,,,,,,,,,,,,,,,,,,,,,,,,,
,,,,,,,,,,1492579,2020-10-12_18h42.53.041,swahili,2020.2.4,Win32,60,,,,,,,,,,-0.4296875,0.038102085,1,0,0,0.21625,unsorted_card,24,0,24,0,1,,,,,,,,,,,,,,,,,,,,,,,,,,,,,,,,,,,,,,,,,,,,,,,,,,,,,,,,,,,,,,,,,,,,,,,,,,,,,,,,,
,,,,,,,,,,1492579,2020-10-12_18h42.53.041,swahili,2020.2.4,Win32,60,,,,,,,,,,0.428125,0.499640546,1,0,0,1.15253,study_pile,25,0,25,0,1,GRAVE - KABURI,,,,,,,,,,,,,,,,,,,,,,,,,,,,,,,,,,,,,,,,,,,,,,,,,,,,,,,,,,,,,,,,,,,,,,,,,,,,,,,,
,,,,,,,,,,1492579,2020-10-12_18h42.53.041,swahili,2020.2.4,Win32,60,,,,,,,,,,-0.2375,-0.121495327,1,0,0,0.1993,unsorted_card,26,0,26,0,1,,,,,,,,,,,,,,,,,,,,,,,,,,,,,,,,,,,,,,,,,,,,,,,,,,,,,,,,,,,,,,,,,,,,,,,,,,,,,,,,,
,,,,,,,,,,1492579,2020-10-12_18h42.53.041,swahili,2020.2.4,Win32,60,,,,,,,,,,0.3734375,0.364485981,1,0,0,2.20508,study_pile,27,0,27,0,1,MANURE - SAMADI,,,,,,,,,,,,,,,,,,,,,,,,,,,,,,,,,,,,,,,,,,,,,,,,,,,,,,,,,,,,,,,,,,,,,,,,,,,,,,,,
,,,,,,,,,,1492579,2020-10-12_18h42.53.041,swahili,2020.2.4,Win32,60,,,,,,,,,,-0.28671875,-0.135873472,1,0,0,0.283355,unsorted_card,28,0,28,0,1,,,,,,,,,,,,,,,,,,,,,,,,,,,,,,,,,,,,,,,,,,,,,,,,,,,,,,,,,,,,,,,,,,,,,,,,,,,,,,,,,
,,,,,,,,,,1492579,2020-10-12_18h42.53.041,swahili,2020.2.4,Win32,60,,,,,,,,,,0.3265625,0.005032351,1,0,0,1.235485,test_pile,29,0,29,0,1,AGENT - WAKILI,,,,,,,,,,,,,,,,,,,,,,,,,,,,,,,,,,,,,,,,,,,,,,,,,,,,,,,,,,,,,,,,,,,,,,,,,,,,,,,,
,,,,,,,,,,1492579,2020-10-12_18h42.53.041,swahili,2020.2.4,Win32,60,,,,,,,,,,-0.4765625,-0.121495327,1,0,0,0.26616,unsorted_card,30,0,30,0,1,,,,,,,,,,,,,,,,,,,,,,,,,,,,,,,,,,,,,,,,,,,,,,,,,,,,,,,,,,,,,,,,,,,,,,,,,,,,,,,,,
,,,,,,,,,,1492579,2020-10-12_18h42.53.041,swahili,2020.2.4,Win32,60,,,,,,,,,,0.49296875,-0.022286125,1,0,0,0.969075,test_pile,31,0,31,0,1,BRIBE - RUSHWA,,,,,,,,,,,,,,,,,,,,,,,,,,,,,,,,,,,,,,,,,,,,,,,,,,,,,,,,,,,,,,,,,,,,,,,,,,,,,,,,
,,,,,,,,,,1492579,2020-10-12_18h42.53.041,swahili,2020.2.4,Win32,60,,,,,,,,,,-0.228125,-0.120057513,1,0,0,0.19923,unsorted_card,32,0,32,0,1,,,,,,,,,,,,,,,,,,,,,,,,,,,,,,,,,,,,,,,,,,,,,,,,,,,,,,,,,,,,,,,,,,,,,,,,,,,,,,,,,
,,,,,,,,,,1492579,2020-10-12_18h42.53.041,swahili,2020.2.4,Win32,60,,,,,,,,,,0.49921875,0.501078361,1,0,0,1.854305,study_pile,33,0,33,0,1,ORPHAN - YATIMA,,,,,,,,,,,,,,,,,,,,,,,,,,,,,,,,,,,,,,,,,,,,,,,,,,,,,,,,,,,,,,,,,,,,,,,,,,,,,,,,
,,,,,,,,,,1492579,2020-10-12_18h42.53.041,swahili,2020.2.4,Win32,60,,,,,,,,,,-0.209375,-0.086987779,1,0,0,0.26628,unsorted_card,34,0,34,0,1,,,,,,,,,,,,,,,,,,,,,,,,,,,,,,,,,,,,,,,,,,,,,,,,,,,,,,,,,,,,,,,,,,,,,,,,,,,,,,,,,
,,,,,,,,,,1492579,2020-10-12_18h42.53.041,swahili,2020.2.4,Win32,60,,,,,,,,,,0.45625,0.498202732,1,0,0,1.152015,study_pile,35,0,35,0,1,DIVORCE - TALAKA,,,,,,,,,,,,,,,,,,,,,,,,,,,,,,,,,,,,,,,,,,,,,,,,,,,,,,,,,,,,,,,,,,,,,,,,,,,,,,,,
,,,,,,,,,,1492579,2020-10-12_18h42.53.041,swahili,2020.2.4,Win32,60,,,,,,,,,,-0.15546875,-0.049604601,1,0,0,0.200465,unsorted_card,36,0,36,0,1,,,,,,,,,,,,,,,,,,,,,,,,,,,,,,,,,,,,,,,,,,,,,,,,,,,,,,,,,,,,,,,,,,,,,,,,,,,,,,,,,
,,,,,,,,,,1492579,2020-10-12_18h42.53.041,swahili,2020.2.4,Win32,60,,,,,,,,,,0.46171875,0.006470165,1,0,0,0.884165,test_pile,37,0,37,0,1,BOAT - MASHUA,,,,,,,,,,,,,,,,,,,,,,,,,,,,,,,,,,,,,,,,,,,,,,,,,,,,,,,,,,,,,,,,,,,,,,,,,,,,,,,,
,,,,,,,,,,1492579,2020-10-12_18h42.53.041,swahili,2020.2.4,Win32,60,,,,,,,,,,-0.36875,-0.055355859,1,0,0,0.20065,unsorted_card,38,0,38,0,1,,,,,,,,,,,,,,,,,,,,,,,,,,,,,,,,,,,,,,,,,,,,,,,,,,,,,,,,,,,,,,,,,,,,,,,,,,,,,,,,,
,,,,,,,,,,1492579,2020-10-12_18h42.53.041,swahili,2020.2.4,Win32,60,,,,,,,,,,0.5296875,0.552839684,1,0,0,1.2848,study_pile,39,0,39,0,1,TREASURE - DAFINA,,,,,,,,,,,,,,,,,,,,,,,,,,,,,,,,,,,,,,,,,,,,,,,,,,,,,,,,,,,,,,,,,,,,,,,,,,,,,,,,
,,,,,,,,,,1492579,2020-10-12_18h42.53.041,swahili,2020.2.4,Win32,60,,,,,,,,,,,,,,,,,,,,,,,0.5234375,0.079798706,1,0,0,1.00236,test_first,,,,,0,0,0,0,1,,,,,,,,,,,,,,,,,,,,,,,,,,,,,,,,,,,,,,,,,,,,,,,,,,,,,,,,,,,,,,,,
,,,,,,,,,,1492579,2020-10-12_18h42.53.041,swahili,2020.2.4,Win32,60,,,,,,,,,,,,,,,,,,,,,,,,,,,,,,,,,,,,,,,return,,,,,,,,,,,1.231955,8.66833,0.4109375,-0.193386053,1,0,0,0.76779,yes,AGENT,JIBINI,incorrect,0,0,0,0,1,,,,,,,,,,,,,,,,,,,,,,,,,,,,,,,,,,,,
,,,,,,,,,,1492579,2020-10-12_18h42.53.041,swahili,2020.2.4,Win32,60,,,,,,,,,,,,,,,,,,,,,,,,,,,,,,,,,,,,,,,,,,,,,,,,,,,4.04114,0.50703125,-0.091301222,1,0,0,0.718305,yes,BOAT,MASHUA,incorrect,1,0,1,0,1,,,,,,,,,,,,,,,,,,,,,,,,,,,,,,,,,,,,
,,,,,,,,,,1492579,2020-10-12_18h42.53.041,swahili,2020.2.4,Win32,60,,,,,,,,,,,,,,,,,,,,,,,,,,,,,,,,,,,,,,,,,,,,,,,,,,,4.74253,0.5375,-0.062544932,1,0,0,0.6686,yes,MERCHANT,TAJILI,incorrect,2,0,2,0,1,,,,,,,,,,,,,,,,,,,,,,,,,,,,,,,,,,,,
,,,,,,,,,,1492579,2020-10-12_18h42.53.041,swahili,2020.2.4,Win32,60,,,,,,,,,,,,,,,,,,,,,,,,,,,,,,,,,,,,,,,,,,,,,,,,,,,5.92906,0.72734375,-0.138749101,1,0,0,0.969555,yes,BRIBE,RUSHWA,incorrect,3,0,3,0,1,,,,,,,,,,,,,,,,,,,,,,,,,,,,,,,,,,,,
,,,,,,,,,,1492579,2020-10-12_18h42.53.041,swahili,2020.2.4,Win32,60,,,,,,,,,,,,,,,,,,,,,,,,,,,,,,,,,,,,,,,,,,,,,,,,,,,3.43951,0.2859375,-0.225017973,1,0,0,0.802495,yes,POEM,TAZIKI,incorrect,4,0,4,0,1,,,,,,,,,,,,,,,,,,,,,,,,,,,,,,,,,,,,
,,,,,,,,,,1492579,2020-10-12_18h42.53.041,swahili,2020.2.4,Win32,60,,,,,,,,,,,,,,,,,,,,,,,,,,,,,,,,,,,,,,,,0,0,0,0,1,,,,,,,,,,,,,,,,,,,,,,,,,,,,,,,,,,,,,,,,,,,,,,,,,,,,,,,,,,
,,,,,,,,,,1492579,2020-10-12_18h42.53.041,swahili,2020.2.4,Win32,60,,,,,,,,,,,,,,,,,,,,,,CORN - NAFAKA,,,,,,,,return,1.088435,return,2.312865,0,0,0,0,1,,,,,,,,,,,,,,,,,,,,,,,,,,,,,,,,,,,,,,,,,,,,,,,,,,,,,,,,,,,,,,,,
,,,,,,,,,,1492579,2020-10-12_18h42.53.041,swahili,2020.2.4,Win32,60,,,,,,,,,,,,,,,,,,,,,,CHEESE - JIBINI,,,,,,,,,,return,1.592265,1,0,1,0,1,,,,,,,,,,,,,,,,,,,,,,,,,,,,,,,,,,,,,,,,,,,,,,,,,,,,,,,,,,,,,,,,
,,,,,,,,,,1492579,2020-10-12_18h42.53.041,swahili,2020.2.4,Win32,60,,,,,,,,,,,,,,,,,,,,,,BLAME - LAWAMA,,,,,,,,,,return,1.618665,2,0,2,0,1,,,,,,,,,,,,,,,,,,,,,,,,,,,,,,,,,,,,,,,,,,,,,,,,,,,,,,,,,,,,,,,,
,,,,,,,,,,1492579,2020-10-12_18h42.53.041,swahili,2020.2.4,Win32,60,,,,,,,,,,,,,,,,,,,,,,PARROT - KASUKU,,,,,,,,,,return,1.704405,3,0,3,0,1,,,,,,,,,,,,,,,,,,,,,,,,,,,,,,,,,,,,,,,,,,,,,,,,,,,,,,,,,,,,,,,,
,,,,,,,,,,1492579,2020-10-12_18h42.53.041,swahili,2020.2.4,Win32,60,,,,,,,,,,,,,,,,,,,,,,OATH - YAMINI,,,,,,,,,,return,1.75025,4,0,4,0,1,,,,,,,,,,,,,,,,,,,,,,,,,,,,,,,,,,,,,,,,,,,,,,,,,,,,,,,,,,,,,,,,
,,,,,,,,,,1492579,2020-10-12_18h42.53.041,swahili,2020.2.4,Win32,60,,,,,,,,,,,,,,,,,,,,,,TREASURE - DAFINA,,,,,,,,,,return,1.167845,5,0,5,0,1,,,,,,,,,,,,,,,,,,,,,,,,,,,,,,,,,,,,,,,,,,,,,,,,,,,,,,,,,,,,,,,,
,,,,,,,,,,1492579,2020-10-12_18h42.53.041,swahili,2020.2.4,Win32,60,,,,,,,,,,,,,,,,,,,,,,DIVORCE - TALAKA,,,,,,,,,,return,1.337275,6,0,6,0,1,,,,,,,,,,,,,,,,,,,,,,,,,,,,,,,,,,,,,,,,,,,,,,,,,,,,,,,,,,,,,,,,
,,,,,,,,,,1492579,2020-10-12_18h42.53.041,swahili,2020.2.4,Win32,60,,,,,,,,,,,,,,,,,,,,,,GRAVE - KABURI,,,,,,,,,,return,1.203365,7,0,7,0,1,,,,,,,,,,,,,,,,,,,,,,,,,,,,,,,,,,,,,,,,,,,,,,,,,,,,,,,,,,,,,,,,
,,,,,,,,,,1492579,2020-10-12_18h42.53.041,swahili,2020.2.4,Win32,60,,,,,,,,,,,,,,,,,,,,,,ORPHAN - YATIMA,,,,,,,,,,return,1.115625,8,0,8,0,1,,,,,,,,,,,,,,,,,,,,,,,,,,,,,,,,,,,,,,,,,,,,,,,,,,,,,,,,,,,,,,,,
,,,,,,,,,,1492579,2020-10-12_18h42.53.041,swahili,2020.2.4,Win32,60,,,,,,,,,,,,,,,,,,,,,,BULL - FAHILI,,,,,,,,,,return,1.976005,9,0,9,0,1,,,,,,,,,,,,,,,,,,,,,,,,,,,,,,,,,,,,,,,,,,,,,,,,,,,,,,,,,,,,,,,,
,,,,,,,,,,1492579,2020-10-12_18h42.53.041,swahili,2020.2.4,Win32,60,,,,,,,,,,,,,,,,,,,,,,YEAST - HAMIRA,,,,,,,,,,return,1.597,10,0,10,0,1,,,,,,,,,,,,,,,,,,,,,,,,,,,,,,,,,,,,,,,,,,,,,,,,,,,,,,,,,,,,,,,,
,,,,,,,,,,1492579,2020-10-12_18h42.53.041,swahili,2020.2.4,Win32,60,,,,,,,,,,,,,,,,,,,,,,PLATE - SAHANI,,,,,,,,,,return,1.31281,11,0,11,0,1,,,,,,,,,,,,,,,,,,,,,,,,,,,,,,,,,,,,,,,,,,,,,,,,,,,,,,,,,,,,,,,,
,,,,,,,,,,1492579,2020-10-12_18h42.53.041,swahili,2020.2.4,Win32,60,,,,,,,,,,,,,,,,,,,,,,MANURE - SAMADI,,,,,,,,,,return,1.437355,12,0,12,0,1,,,,,,,,,,,,,,,,,,,,,,,,,,,,,,,,,,,,,,,,,,,,,,,,,,,,,,,,,,,,,,,,
,,,,,,,,,,1492579,2020-10-12_18h42.53.041,swahili,2020.2.4,Win32,60,,,,,,,,,,,,,,,,,,,,,,TAILOR - MSHONI,,,,,,,,,,return,1.30973,13,0,13,0,1,,,,,,,,,,,,,,,,,,,,,,,,,,,,,,,,,,,,,,,,,,,,,,,,,,,,,,,,,,,,,,,,
,,,,,,,,,,1492579,2020-10-12_18h42.53.041,swahili,2020.2.4,Win32,60,,,,,,,,,,,,,,,,,,,,,,GRAPES - ZABIBU,,,,,,,,,,return,1.125845,14,0,14,0,1,,,,,,,,,,,,,,,,,,,,,,,,,,,,,,,,,,,,,,,,,,,,,,,,,,,,,,,,,,,,,,,,
,,,,,,,,,,1492579,2020-10-12_18h42.53.041,swahili,2020.2.4,Win32,60,,,,,,,,,,,,,,,,,,,,,,,,,,,,,,,,,,,,,,,,1,0,1,0,1,,,,,,,,,,,,,,,,,,,,,,,,,,,,,,,,,,,,,,,,,,,,,,,,,,,,,,,,,,
,,,,,,,,,,1492579,2020-10-12_18h42.53.041,swahili,2020.2.4,Win32,60,,,,,,,,,,,,,,,,,,,,,,,,,,,,,,,,,,,,,,,,,,,,,3,0,3,0,1,,,,,,,,,,,,,,,,,,,,,,,,,,,,,,,,,,,,,,,,,,,,,,,,,,,,,
,,,,,,,,,,1492579,2020-10-12_18h42.53.041,swahili,2020.2.4,Win32,60,,,,,,,,,,-0.76328125,-0.130122214,1,0,0,1.14803,unsorted_card,0,0,0,0,1,,,,,,,,,,,,,,,,,,,,,,,,,,,,,,,,,,,,,,,,,,,,,,,,,,,,,,,,,,,,,,,,,,,,,,,,,,,,,,,,,
,,,,,,,,,,1492579,2020-10-12_18h42.53.041,swahili,2020.2.4,Win32,60,,,,,,,,,,0.4046875,0.005032351,1,0,0,1.0685,test_pile,1,0,1,0,1,MERCHANT - TAJIRI,,,,,,,,,,,,,,,,,,,,,,,,,,,,,,,,,,,,,,,,,,,,,,,,,,,,,,,,,,,,,,,,,,,,,,,,,,,,,,,,
,,,,,,,,,,1492579,2020-10-12_18h42.53.041,swahili,2020.2.4,Win32,60,,,,,,,,,,-0.34453125,0.138749101,1,0,0,0.28087,unsorted_card,2,0,2,0,1,,,,,,,,,,,,,,,,,,,,,,,,,,,,,,,,,,,,,,,,,,,,,,,,,,,,,,,,,,,,,,,,,,,,,,,,,,,,,,,,,
,,,,,,,,,,1492579,2020-10-12_18h42.53.041,swahili,2020.2.4,Win32,60,,,,,,,,,,0.56328125,0.386053199,1,0,0,1.77095,study_pile,3,0,3,0,1,PARROT - KASUKU,,,,,,,,,,,,,,,,,,,,,,,,,,,,,,,,,,,,,,,,,,,,,,,,,,,,,,,,,,,,,,,,,,,,,,,,,,,,,,,,
,,,,,,,,,,1492579,2020-10-12_18h42.53.041,swahili,2020.2.4,Win32,60,,,,,,,,,,-0.35625,0.019410496,1,0,0,0.282535,unsorted_card,4,0,4,0,1,,,,,,,,,,,,,,,,,,,,,,,,,,,,,,,,,,,,,,,,,,,,,,,,,,,,,,,,,,,,,,,,,,,,,,,,,,,,,,,,,
,,,,,,,,,,1492579,2020-10-12_18h42.53.041,swahili,2020.2.4,Win32,60,,,,,,,,,,0.46796875,0.508267434,1,0,0,1.20254,study_pile,5,0,5,0,1,BULL - FAHILI,,,,,,,,,,,,,,,,,,,,,,,,,,,,,,,,,,,,,,,,,,,,,,,,,,,,,,,,,,,,,,,,,,,,,,,,,,,,,,,,
,,,,,,,,,,1492579,2020-10-12_18h42.53.041,swahili,2020.2.4,Win32,60,,,,,,,,,,-0.2375,0.180445723,1,0,0,0.684915,unsorted_card,6,0,6,0,1,,,,,,,,,,,,,,,,,,,,,,,,,,,,,,,,,,,,,,,,,,,,,,,,,,,,,,,,,,,,,,,,,,,,,,,,,,,,,,,,,
,,,,,,,,,,1492579,2020-10-12_18h42.53.041,swahili,2020.2.4,Win32,60,,,,,,,,,,0.3828125,0.475197699,1,0,0,1.536625,study_pile,7,0,7,0,1,PLATE - SAHANI,,,,,,,,,,,,,,,,,,,,,,,,,,,,,,,,,,,,,,,,,,,,,,,,,,,,,,,,,,,,,,,,,,,,,,,,,,,,,,,,
,,,,,,,,,,1492579,2020-10-12_18h42.53.041,swahili,2020.2.4,Win32,60,,,,,,,,,,-0.41015625,0.038102085,1,0,0,0.249945,unsorted_card,8,0,8,0,1,,,,,,,,,,,,,,,,,,,,,,,,,,,,,,,,,,,,,,,,,,,,,,,,,,,,,,,,,,,,,,,,,,,,,,,,,,,,,,,,,
,,,,,,,,,,1492579,2020-10-12_18h42.53.041,swahili,2020.2.4,Win32,60,,,,,,,,,,0.3421875,0.409058231,1,0,0,2.38799,study_pile,9,0,9,0,1,YEAST - HAMIRA,,,,,,,,,,,,,,,,,,,,,,,,,,,,,,,,,,,,,,,,,,,,,,,,,,,,,,,,,,,,,,,,,,,,,,,,,,,,,,,,
,,,,,,,,,,1492579,2020-10-12_18h42.53.041,swahili,2020.2.4,Win32,60,,,,,,,,,,-0.42109375,0.062544932,1,0,0,0.282405,unsorted_card,10,0,10,0,1,,,,,,,,,,,,,,,,,,,,,,,,,,,,,,,,,,,,,,,,,,,,,,,,,,,,,,,,,,,,,,,,,,,,,,,,,,,,,,,,,
,,,,,,,,,,1492579,2020-10-12_18h42.53.041,swahili,2020.2.4,Win32,60,,,,,,,,,,0.4515625,0.445003595,1,0,0,0.85158,study_pile,11,0,11,0,1,BLAME - LAWAMA,,,,,,,,,,,,,,,,,,,,,,,,,,,,,,,,,,,,,,,,,,,,,,,,,,,,,,,,,,,,,,,,,,,,,,,,,,,,,,,,
,,,,,,,,,,1492579,2020-10-12_18h42.53.041,swahili,2020.2.4,Win32,60,,,,,,,,,,-0.534375,0.005032351,1,0,0,0.26731,unsorted_card,12,0,12,0,1,,,,,,,,,,,,,,,,,,,,,,,,,,,,,,,,,,,,,,,,,,,,,,,,,,,,,,,,,,,,,,,,,,,,,,,,,,,,,,,,,
,,,,,,,,,,1492579,2020-10-12_18h42.53.041,swahili,2020.2.4,Win32,60,,,,,,,,,,0.23671875,0.417685119,1,0,0,1.13457,study_pile,13,0,13,0,1,OATH - YAMINI,,,,,,,,,,,,,,,,,,,,,,,,,,,,,,,,,,,,,,,,,,,,,,,,,,,,,,,,,,,,,,,,,,,,,,,,,,,,,,,,
,,,,,,,,,,1492579,2020-10-12_18h42.53.041,swahili,2020.2.4,Win32,60,,,,,,,,,,-0.18984375,-0.099928109,1,0,0,0.24992,unsorted_card,14,0,14,0,1,,,,,,,,,,,,,,,,,,,,,,,,,,,,,,,,,,,,,,,,,,,,,,,,,,,,,,,,,,,,,,,,,,,,,,,,,,,,,,,,,
,,,,,,,,,,1492579,2020-10-12_18h42.53.041,swahili,2020.2.4,Win32,60,,,,,,,,,,0.453125,0.48813803,1,0,0,1.135585,study_pile,15,0,15,0,1,CORN - NAFAKA,,,,,,,,,,,,,,,,,,,,,,,,,,,,,,,,,,,,,,,,,,,,,,,,,,,,,,,,,,,,,,,,,,,,,,,,,,,,,,,,
,,,,,,,,,,1492579,2020-10-12_18h42.53.041,swahili,2020.2.4,Win32,60,,,,,,,,,,-0.2875,-0.108554996,1,0,0,0.20048,unsorted_card,16,0,16,0,1,,,,,,,,,,,,,,,,,,,,,,,,,,,,,,,,,,,,,,,,,,,,,,,,,,,,,,,,,,,,,,,,,,,,,,,,,,,,,,,,,
,,,,,,,,,,1492579,2020-10-12_18h42.53.041,swahili,2020.2.4,Win32,60,,,,,,,,,,0.44921875,0.003594536,1,0,0,2.83912,test_pile,17,0,17,0,1,POEM - UTENZI,,,,,,,,,,,,,,,,,,,,,,,,,,,,,,,,,,,,,,,,,,,,,,,,,,,,,,,,,,,,,,,,,,,,,,,,,,,,,,,,
,,,,,,,,,,1492579,2020-10-12_18h42.53.041,swahili,2020.2.4,Win32,60,,,,,,,,,,-0.153125,0.020848311,1,0,0,0.38295,unsorted_card,18,0,18,0,1,,,,,,,,,,,,,,,,,,,,,,,,,,,,,,,,,,,,,,,,,,,,,,,,,,,,,,,,,,,,,,,,,,,,,,,,,,,,,,,,,
,,,,,,,,,,1492579,2020-10-12_18h42.53.041,swahili,2020.2.4,Win32,60,,,,,,,,,,0.346875,0.127246585,1,0,0,3.056975,test_pile,19,0,19,0,1,TAILOR - MSHONI,,,,,,,,,,,,,,,,,,,,,,,,,,,,,,,,,,,,,,,,,,,,,,,,,,,,,,,,,,,,,,,,,,,,,,,,,,,,,,,,
,,,,,,,,,,1492579,2020-10-12_18h42.53.041,swahili,2020.2.4,Win32,60,,,,,,,,,,-0.28125,-0.063982746,1,0,0,0.233015,unsorted_card,20,0,20,0,1,,,,,,,,,,,,,,,,,,,,,,,,,,,,,,,,,,,,,,,,,,,,,,,,,,,,,,,,,,,,,,,,,,,,,,,,,,,,,,,,,
,,,,,,,,,,1492579,2020-10-12_18h42.53.041,swahili,2020.2.4,Win32,60,,,,,,,,,,0.34765625,0.132997843,1,0,0,1.553425,test_pile,21,0,21,0,1,CHEESE - JIBINI,,,,,,,,,,,,,,,,,,,,,,,,,,,,,,,,,,,,,,,,,,,,,,,,,,,,,,,,,,,,,,,,,,,,,,,,,,,,,,,,
,,,,,,,,,,1492579,2020-10-12_18h42.53.041,swahili,2020.2.4,Win32,60,,,,,,,,,,-0.36171875,-0.088425593,1,0,0,0.249555,unsorted_card,22,0,22,0,1,,,,,,,,,,,,,,,,,,,,,,,,,,,,,,,,,,,,,,,,,,,,,,,,,,,,,,,,,,,,,,,,,,,,,,,,,,,,,,,,,
,,,,,,,,,,1492579,2020-10-12_18h42.53.041,swahili,2020.2.4,Win32,60,,,,,,,,,,0.42421875,0.413371675,1,0,0,0.951465,study_pile,23,0,23,0,1,GRAPES - ZABIBU,,,,,,,,,,,,,,,,,,,,,,,,,,,,,,,,,,,,,,,,,,,,,,,,,,,,,,,,,,,,,,,,,,,,,,,,,,,,,,,,
,,,,,,,,,,1492579,2020-10-12_18h42.53.041,swahili,2020.2.4,Win32,60,,,,,,,,,,-0.36796875,0.079798706,1,0,0,0.26627,unsorted_card,24,0,24,0,1,,,,,,,,,,,,,,,,,,,,,,,,,,,,,,,,,,,,,,,,,,,,,,,,,,,,,,,,,,,,,,,,,,,,,,,,,,,,,,,,,
,,,,,,,,,,1492579,2020-10-12_18h42.53.041,swahili,2020.2.4,Win32,60,,,,,,,,,,0.5796875,0.483824587,1,0,0,1.102565,study_pile,25,0,25,0,1,GRAVE - KABURI,,,,,,,,,,,,,,,,,,,,,,,,,,,,,,,,,,,,,,,,,,,,,,,,,,,,,,,,,,,,,,,,,,,,,,,,,,,,,,,,
,,,,,,,,,,1492579,2020-10-12_18h42.53.041,swahili,2020.2.4,Win32,60,,,,,,,,,,-0.34375,-0.030913012,1,0,0,0.23364,unsorted_card,26,0,26,0,1,,,,,,,,,,,,,,,,,,,,,,,,,,,,,,,,,,,,,,,,,,,,,,,,,,,,,,,,,,,,,,,,,,,,,,,,,,,,,,,,,
,,,,,,,,,,1492579,2020-10-12_18h42.53.041,swahili,2020.2.4,Win32,60,,,,,,,,,,0.41640625,0.535585909,1,0,0,1.45243,study_pile,27,0,27,0,1,MANURE - SAMADI,,,,,,,,,,,,,,,,,,,,,,,,,,,,,,,,,,,,,,,,,,,,,,,,,,,,,,,,,,,,,,,,,,,,,,,,,,,,,,,,
,,,,,,,,,,1492579,2020-10-12_18h42.53.041,swahili,2020.2.4,Win32,60,,,,,,,,,,-0.45,0.000718907,1,0,0,0.26586,unsorted_card,28,0,28,0,1,,,,,,,,,,,,,,,,,,,,,,,,,,,,,,,,,,,,,,,,,,,,,,,,,,,,,,,,,,,,,,,,,,,,,,,,,,,,,,,,,
,,,,,,,,,,1492579,2020-10-12_18h42.53.041,swahili,2020.2.4,Win32,60,,,,,,,,,,0.3203125,0.058231488,1,0,0,1.486285,test_pile,29,0,29,0,1,AGENT - WAKILI,,,,,,,,,,,,,,,,,,,,,,,,,,,,,,,,,,,,,,,,,,,,,,,,,,,,,,,,,,,,,,,,,,,,,,,,,,,,,,,,
,,,,,,,,,,1492579,2020-10-12_18h42.53.041,swahili,2020.2.4,Win32,60,,,,,,,,,,-0.54140625,0.066858375,1,0,0,0.367615,unsorted_card,30,0,30,0,1,,,,,,,,,,,,,,,,,,,,,,,,,,,,,,,,,,,,,,,,,,,,,,,,,,,,,,,,,,,,,,,,,,,,,,,,,,,,,,,,,
,,,,,,,,,,1492579,2020-10-12_18h42.53.041,swahili,2020.2.4,Win32,60,,,,,,,,,,0.41875,0.121495327,1,0,0,0.951945,test_pile,31,0,31,0,1,BRIBE - RUSHWA,,,,,,,,,,,,,,,,,,,,,,,,,,,,,,,,,,,,,,,,,,,,,,,,,,,,,,,,,,,,,,,,,,,,,,,,,,,,,,,,
,,,,,,,,,,1492579,2020-10-12_18h42.53.041,swahili,2020.2.4,Win32,60,,,,,,,,,,-0.16015625,-0.05248023,1,0,0,0.500085,unsorted_card,32,0,32,0,1,,,,,,,,,,,,,,,,,,,,,,,,,,,,,,,,,,,,,,,,,,,,,,,,,,,,,,,,,,,,,,,,,,,,,,,,,,,,,,,,,
,,,,,,,,,,1492579,2020-10-12_18h42.53.041,swahili,2020.2.4,Win32,60,,,,,,,,,,0.3265625,0.421998562,1,0,0,0.88526,study_pile,33,0,33,0,1,ORPHAN - YATIMA,,,,,,,,,,,,,,,,,,,,,,,,,,,,,,,,,,,,,,,,,,,,,,,,,,,,,,,,,,,,,,,,,,,,,,,,,,,,,,,,
,,,,,,,,,,1492579,2020-10-12_18h42.53.041,swahili,2020.2.4,Win32,60,,,,,,,,,,-0.390625,-0.005032351,1,0,0,0.28263,unsorted_card,34,0,34,0,1,,,,,,,,,,,,,,,,,,,,,,,,,,,,,,,,,,,,,,,,,,,,,,,,,,,,,,,,,,,,,,,,,,,,,,,,,,,,,,,,,
,,,,,,,,,,1492579,2020-10-12_18h42.53.041,swahili,2020.2.4,Win32,60,,,,,,,,,,0.45859375,0.539899353,1,0,0,0.885745,study_pile,35,0,35,0,1,DIVORCE - TALAKA,,,,,,,,,,,,,,,,,,,,,,,,,,,,,,,,,,,,,,,,,,,,,,,,,,,,,,,,,,,,,,,,,,,,,,,,,,,,,,,,
,,,,,,,,,,1492579,2020-10-12_18h42.53.041,swahili,2020.2.4,Win32,60,,,,,,,,,,-0.37265625,0.039539899,1,0,0,0.26643,unsorted_card,36,0,36,0,1,,,,,,,,,,,,,,,,,,,,,,,,,,,,,,,,,,,,,,,,,,,,,,,,,,,,,,,,,,,,,,,,,,,,,,,,,,,,,,,,,
,,,,,,,,,,1492579,2020-10-12_18h42.53.041,swahili,2020.2.4,Win32,60,,,,,,,,,,0.334375,0.122933142,1,0,0,0.80038,test_pile,37,0,37,0,1,BOAT - MASHUA,,,,,,,,,,,,,,,,,,,,,,,,,,,,,,,,,,,,,,,,,,,,,,,,,,,,,,,,,,,,,,,,,,,,,,,,,,,,,,,,
,,,,,,,,,,1492579,2020-10-12_18h42.53.041,swahili,2020.2.4,Win32,60,,,,,,,,,,-0.42890625,-0.028037383,1,0,0,0.250845,unsorted_card,38,0,38,0,1,,,,,,,,,,,,,,,,,,,,,,,,,,,,,,,,,,,,,,,,,,,,,,,,,,,,,,,,,,,,,,,,,,,,,,,,,,,,,,,,,
,,,,,,,,,,1492579,2020-10-12_18h42.53.041,swahili,2020.2.4,Win32,60,,,,,,,,,,0.62890625,0.693745507,1,0,0,0.917325,study_pile,39,0,39,0,1,TREASURE - DAFINA,,,,,,,,,,,,,,,,,,,,,,,,,,,,,,,,,,,,,,,,,,,,,,,,,,,,,,,,,,,,,,,,,,,,,,,,,,,,,,,,
,,,,,,,,,,1492579,2020-10-12_18h42.53.041,swahili,2020.2.4,Win32,60,,,,,,,,,,,,,,,,,,,,,,,0.4328125,0.074047448,1,0,0,0.75108,test_first,,,,,0,0,0,0,1,,,,,,,,,,,,,,,,,,,,,,,,,,,,,,,,,,,,,,,,,,,,,,,,,,,,,,,,,,,,,,,,
,,,,,,,,,,1492579,2020-10-12_18h42.53.041,swahili,2020.2.4,Win32,60,,,,,,,,,,,,,,,,,,,,,,,,,,,,,,,,,,,,,,,return,,,,,,,,,,,1.072875,5.895375,0.4296875,0.059669303,1,0,0,1.0693,yes,TAILOR,MSHONI,incorrect,0,0,0,0,1,,,,,,,,,,,,,,,,,,,,,,,,,,,,,,,,,,,,
,,,,,,,,,,1492579,2020-10-12_18h42.53.041,swahili,2020.2.4,Win32,60,,,,,,,,,,,,,,,,,,,,,,,,,,,,,,,,,,,,,,,,,,,,,,,,,,,13.66246,0.40234375,-0.156002876,1,0,0,0.71836,yes,BRIBE,MOSHUA,incorrect,1,0,1,0,1,,,,,,,,,,,,,,,,,,,,,,,,,,,,,,,,,,,,
,,,,,,,,,,1492579,2020-10-12_18h42.53.041,swahili,2020.2.4,Win32,60,,,,,,,,,,,,,,,,,,,,,,,,,,,,,,,,,,,,,,,,,,,,,,,,,,,3.52359,0.49453125,-0.135873472,1,0,0,0.68489,yes,MERCHANT,TAJIRI,incorrect,2,0,2,0,1,,,,,,,,,,,,,,,,,,,,,,,,,,,,,,,,,,,,
,,,,,,,,,,1492579,2020-10-12_18h42.53.041,swahili,2020.2.4,Win32,60,,,,,,,,,,,,,,,,,,,,,,,,,,,,,,,,,,,,,,,,,,,,,,,,,,,6.714075,0.5296875,-0.046728972,1,0,0,0.785565,yes,AGENT,KAJIRI,incorrect,3,0,3,0,1,,,,,,,,,,,,,,,,,,,,,,,,,,,,,,,,,,,,
,,,,,,,,,,1492579,2020-10-12_18h42.53.041,swahili,2020.2.4,Win32,60,,,,,,,,,,,,,,,,,,,,,,,,,,,,,,,,,,,,,,,,,,,,,,,,,,,5.494635,0.434375,-0.107117182,1,0,0,0.718715,yes,CHEESE,JIBINI,incorrect,4,0,4,0,1,,,,,,,,,,,,,,,,,,,,,,,,,,,,,,,,,,,,
,,,,,,,,,,1492579,2020-10-12_18h42.53.041,swahili,2020.2.4,Win32,60,,,,,,,,,,,,,,,,,,,,,,,,,,,,,,,,,,,,,,,,,,,,,,,,,,,6.98077,0.55234375,-0.017972682,1,0,0,0.85242,yes,POEM,TAZIKI,incorrect,5,0,5,0,1,,,,,,,,,,,,,,,,,,,,,,,,,,,,,,,,,,,,
,,,,,,,,,,1492579,2020-10-12_18h42.53.041,swahili,2020.2.4,Win32,60,,,,,,,,,,,,,,,,,,,,,,,,,,,,,,,,,,,,,,,,,,,,,,,,,,,16.234735,0.52265625,-0.039539899,1,0,0,0.835855,yes,BOAT,MBUSHI,incorrect,6,0,6,0,1,,,,,,,,,,,,,,,,,,,,,,,,,,,,,,,,,,,,
,,,,,,,,,,1492579,2020-10-12_18h42.53.041,swahili,2020.2.4,Win32,60,,,,,,,,,,,,,,,,,,,,,,,,,,,,,,,,,,,,,,,,0,0,0,0,1,,,,,,,,,,,,,,,,,,,,,,,,,,,,,,,,,,,,,,,,,,,,,,,,,,,,,,,,,,
,,,,,,,,,,1492579,2020-10-12_18h42.53.041,swahili,2020.2.4,Win32,60,,,,,,,,,,,,,,,,,,,,,,BULL - FAHILI,,,,,,,,return,1.098285,return,1.03532,0,0,0,0,1,,,,,,,,,,,,,,,,,,,,,,,,,,,,,,,,,,,,,,,,,,,,,,,,,,,,,,,,,,,,,,,,
,,,,,,,,,,1492579,2020-10-12_18h42.53.041,swahili,2020.2.4,Win32,60,,,,,,,,,,,,,,,,,,,,,,PLATE - SAHANI,,,,,,,,,,return,0.92223,1,0,1,0,1,,,,,,,,,,,,,,,,,,,,,,,,,,,,,,,,,,,,,,,,,,,,,,,,,,,,,,,,,,,,,,,,
,,,,,,,,,,1492579,2020-10-12_18h42.53.041,swahili,2020.2.4,Win32,60,,,,,,,,,,,,,,,,,,,,,,MANURE - SAMADI,,,,,,,,,,return,0.11924,2,0,2,0,1,,,,,,,,,,,,,,,,,,,,,,,,,,,,,,,,,,,,,,,,,,,,,,,,,,,,,,,,,,,,,,,,
,,,,,,,,,,1492579,2020-10-12_18h42.53.041,swahili,2020.2.4,Win32,60,,,,,,,,,,,,,,,,,,,,,,ORPHAN - YATIMA,,,,,,,,,,return,0.09516,3,0,3,0,1,,,,,,,,,,,,,,,,,,,,,,,,,,,,,,,,,,,,,,,,,,,,,,,,,,,,,,,,,,,,,,,,
,,,,,,,,,,1492579,2020-10-12_18h42.53.041,swahili,2020.2.4,Win32,60,,,,,,,,,,,,,,,,,,,,,,OATH - YAMINI,,,,,,,,,,return,0.115515,4,0,4,0,1,,,,,,,,,,,,,,,,,,,,,,,,,,,,,,,,,,,,,,,,,,,,,,,,,,,,,,,,,,,,,,,,
,,,,,,,,,,1492579,2020-10-12_18h42.53.041,swahili,2020.2.4,Win32,60,,,,,,,,,,,,,,,,,,,,,,GRAVE - KABURI,,,,,,,,,,return,0.117365,5,0,5,0,1,,,,,,,,,,,,,,,,,,,,,,,,,,,,,,,,,,,,,,,,,,,,,,,,,,,,,,,,,,,,,,,,
,,,,,,,,,,1492579,2020-10-12_18h42.53.041,swahili,2020.2.4,Win32,60,,,,,,,,,,,,,,,,,,,,,,YEAST - HAMIRA,,,,,,,,,,return,0.120785,6,0,6,0,1,,,,,,,,,,,,,,,,,,,,,,,,,,,,,,,,,,,,,,,,,,,,,,,,,,,,,,,,,,,,,,,,
,,,,,,,,,,1492579,2020-10-12_18h42.53.041,swahili,2020.2.4,Win32,60,,,,,,,,,,,,,,,,,,,,,,TREASURE - DAFINA,,,,,,,,,,return,0.39282,7,0,7,0,1,,,,,,,,,,,,,,,,,,,,,,,,,,,,,,,,,,,,,,,,,,,,,,,,,,,,,,,,,,,,,,,,
,,,,,,,,,,1492579,2020-10-12_18h42.53.041,swahili,2020.2.4,Win32,60,,,,,,,,,,,,,,,,,,,,,,GRAPES - ZABIBU,,,,,,,,,,return,0.12095,8,0,8,0,1,,,,,,,,,,,,,,,,,,,,,,,,,,,,,,,,,,,,,,,,,,,,,,,,,,,,,,,,,,,,,,,,
,,,,,,,,,,1492579,2020-10-12_18h42.53.041,swahili,2020.2.4,Win32,60,,,,,,,,,,,,,,,,,,,,,,DIVORCE - TALAKA,,,,,,,,,,return,0.11977,9,0,9,0,1,,,,,,,,,,,,,,,,,,,,,,,,,,,,,,,,,,,,,,,,,,,,,,,,,,,,,,,,,,,,,,,,
,,,,,,,,,,1492579,2020-10-12_18h42.53.041,swahili,2020.2.4,Win32,60,,,,,,,,,,,,,,,,,,,,,,CORN - NAFAKA,,,,,,,,,,return,0.137445,10,0,10,0,1,,,,,,,,,,,,,,,,,,,,,,,,,,,,,,,,,,,,,,,,,,,,,,,,,,,,,,,,,,,,,,,,
,,,,,,,,,,1492579,2020-10-12_18h42.53.041,swahili,2020.2.4,Win32,60,,,,,,,,,,,,,,,,,,,,,,PARROT - KASUKU,,,,,,,,,,return,0.149635,11,0,11,0,1,,,,,,,,,,,,,,,,,,,,,,,,,,,,,,,,,,,,,,,,,,,,,,,,,,,,,,,,,,,,,,,,
,,,,,,,,,,1492579,2020-10-12_18h42.53.041,swahili,2020.2.4,Win32,60,,,,,,,,,,,,,,,,,,,,,,BLAME - LAWAMA,,,,,,,,,,return,0.141955,12,0,12,0,1,,,,,,,,,,,,,,,,,,,,,,,,,,,,,,,,,,,,,,,,,,,,,,,,,,,,,,,,,,,,,,,,
,,,,,,,,,,1492579,2020-10-12_18h42.53.041,swahili,2020.2.4,Win32,60,,,,,,,,,,,,,,,,,,,,,,,,,,,,,,,,,,,,,,,,1,0,1,0,1,,,,,,,,,,,,,,,,,,,,,,,,,,,,,,,,,,,,,,,,,,,,,,,,,,,,,,,,,,
,,,,,,,,,,1492579,2020-10-12_18h42.53.041,swahili,2020.2.4,Win32,60,,,,,,,,,,,,,,,,,,,,,,,,,,,,,,,,,,,,,,,,,,,,,4,0,4,0,1,,,,,,,,,,,,,,,,,,,,,,,,,,,,,,,,,,,,,,,,,,,,,,,,,,,,,
,,,,,,,,,,1492579,2020-10-12_18h42.53.041,swahili,2020.2.4,Win32,60,,,,,,,,,,-0.36171875,0.086987779,1,0,0,1.249645,unsorted_card,0,0,0,0,1,,,,,,,,,,,,,,,,,,,,,,,,,,,,,,,,,,,,,,,,,,,,,,,,,,,,,,,,,,,,,,,,,,,,,,,,,,,,,,,,,
,,,,,,,,,,1492579,2020-10-12_18h42.53.041,swahili,2020.2.4,Win32,60,,,,,,,,,,0.596875,-0.08123652,1,0,0,1.669095,test_pile,1,0,1,0,1,MERCHANT - TAJIRI,,,,,,,,,,,,,,,,,,,,,,,,,,,,,,,,,,,,,,,,,,,,,,,,,,,,,,,,,,,,,,,,,,,,,,,,,,,,,,,,
,,,,,,,,,,1492579,2020-10-12_18h42.53.041,swahili,2020.2.4,Win32,60,,,,,,,,,,-0.37265625,-0.017972682,1,0,0,0.31679,unsorted_card,2,0,2,0,1,,,,,,,,,,,,,,,,,,,,,,,,,,,,,,,,,,,,,,,,,,,,,,,,,,,,,,,,,,,,,,,,,,,,,,,,,,,,,,,,,
,,,,,,,,,,1492579,2020-10-12_18h42.53.041,swahili,2020.2.4,Win32,60,,,,,,,,,,0.54453125,0.479511143,1,0,0,0.78527,study_pile,3,0,3,0,1,PARROT - KASUKU,,,,,,,,,,,,,,,,,,,,,,,,,,,,,,,,,,,,,,,,,,,,,,,,,,,,,,,,,,,,,,,,,,,,,,,,,,,,,,,,
,,,,,,,,,,1492579,2020-10-12_18h42.53.041,swahili,2020.2.4,Win32,60,,,,,,,,,,-0.3640625,-0.00790798,1,0,0,0.21674,unsorted_card,4,0,4,0,1,,,,,,,,,,,,,,,,,,,,,,,,,,,,,,,,,,,,,,,,,,,,,,,,,,,,,,,,,,,,,,,,,,,,,,,,,,,,,,,,,
,,,,,,,,,,1492579,2020-10-12_18h42.53.041,swahili,2020.2.4,Win32,60,,,,,,,,,,0.4734375,0.482386772,1,0,0,1.034445,study_pile,5,0,5,0,1,BULL - FAHILI,,,,,,,,,,,,,,,,,,,,,,,,,,,,,,,,,,,,,,,,,,,,,,,,,,,,,,,,,,,,,,,,,,,,,,,,,,,,,,,,
,,,,,,,,,,1492579,2020-10-12_18h42.53.041,swahili,2020.2.4,Win32,60,,,,,,,,,,-0.2296875,0.079798706,1,0,0,0.2674,unsorted_card,6,0,6,0,1,,,,,,,,,,,,,,,,,,,,,,,,,,,,,,,,,,,,,,,,,,,,,,,,,,,,,,,,,,,,,,,,,,,,,,,,,,,,,,,,,
,,,,,,,,,,1492579,2020-10-12_18h42.53.041,swahili,2020.2.4,Win32,60,,,,,,,,,,0.43984375,0.468008627,1,0,0,0.95189,study_pile,7,0,7,0,1,PLATE - SAHANI,,,,,,,,,,,,,,,,,,,,,,,,,,,,,,,,,,,,,,,,,,,,,,,,,,,,,,,,,,,,,,,,,,,,,,,,,,,,,,,,
,,,,,,,,,,1492579,2020-10-12_18h42.53.041,swahili,2020.2.4,Win32,60,,,,,,,,,,-0.2765625,-0.010783609,1,0,0,0.2333,unsorted_card,8,0,8,0,1,,,,,,,,,,,,,,,,,,,,,,,,,,,,,,,,,,,,,,,,,,,,,,,,,,,,,,,,,,,,,,,,,,,,,,,,,,,,,,,,,
,,,,,,,,,,1492579,2020-10-12_18h42.53.041,swahili,2020.2.4,Win32,60,,,,,,,,,,0.490625,0.482386772,1,0,0,0.984385,study_pile,9,0,9,0,1,YEAST - HAMIRA,,,,,,,,,,,,,,,,,,,,,,,,,,,,,,,,,,,,,,,,,,,,,,,,,,,,,,,,,,,,,,,,,,,,,,,,,,,,,,,,
,,,,,,,,,,1492579,2020-10-12_18h42.53.041,swahili,2020.2.4,Win32,60,,,,,,,,,,-0.30625,-0.010783609,1,0,0,0.217405,unsorted_card,10,0,10,0,1,,,,,,,,,,,,,,,,,,,,,,,,,,,,,,,,,,,,,,,,,,,,,,,,,,,,,,,,,,,,,,,,,,,,,,,,,,,,,,,,,
,,,,,,,,,,1492579,2020-10-12_18h42.53.041,swahili,2020.2.4,Win32,60,,,,,,,,,,0.47578125,0.433501078,1,0,0,1.01776,study_pile,11,0,11,0,1,BLAME - LAWAMA,,,,,,,,,,,,,,,,,,,,,,,,,,,,,,,,,,,,,,,,,,,,,,,,,,,,,,,,,,,,,,,,,,,,,,,,,,,,,,,,
,,,,,,,,,,1492579,2020-10-12_18h42.53.041,swahili,2020.2.4,Win32,60,,,,,,,,,,-0.47421875,0.072609633,1,0,0,0.217425,unsorted_card,12,0,12,0,1,,,,,,,,,,,,,,,,,,,,,,,,,,,,,,,,,,,,,,,,,,,,,,,,,,,,,,,,,,,,,,,,,,,,,,,,,,,,,,,,,
,,,,,,,,,,1492579,2020-10-12_18h42.53.041,swahili,2020.2.4,Win32,60,,,,,,,,,,0.36953125,0.442127965,1,0,0,0.750345,study_pile,13,0,13,0,1,OATH - YAMINI,,,,,,,,,,,,,,,,,,,,,,,,,,,,,,,,,,,,,,,,,,,,,,,,,,,,,,,,,,,,,,,,,,,,,,,,,,,,,,,,
,,,,,,,,,,1492579,2020-10-12_18h42.53.041,swahili,2020.2.4,Win32,60,,,,,,,,,,-0.44140625,-0.022286125,1,0,0,0.199965,unsorted_card,14,0,14,0,1,,,,,,,,,,,,,,,,,,,,,,,,,,,,,,,,,,,,,,,,,,,,,,,,,,,,,,,,,,,,,,,,,,,,,,,,,,,,,,,,,
,,,,,,,,,,1492579,2020-10-12_18h42.53.041,swahili,2020.2.4,Win32,60,,,,,,,,,,0.36796875,0.434938893,1,0,0,0.684915,study_pile,15,0,15,0,1,CORN - NAFAKA,,,,,,,,,,,,,,,,,,,,,,,,,,,,,,,,,,,,,,,,,,,,,,,,,,,,,,,,,,,,,,,,,,,,,,,,,,,,,,,,
,,,,,,,,,,1492579,2020-10-12_18h42.53.041,swahili,2020.2.4,Win32,60,,,,,,,,,,-0.65859375,0.063982746,1,0,0,0.18333,unsorted_card,16,0,16,0,1,,,,,,,,,,,,,,,,,,,,,,,,,,,,,,,,,,,,,,,,,,,,,,,,,,,,,,,,,,,,,,,,,,,,,,,,,,,,,,,,,
,,,,,,,,,,1492579,2020-10-12_18h42.53.041,swahili,2020.2.4,Win32,60,,,,,,,,,,0.30625,0.114306254,1,0,0,4.092105,test_pile,17,0,17,0,1,POEM - UTENZI,,,,,,,,,,,,,,,,,,,,,,,,,,,,,,,,,,,,,,,,,,,,,,,,,,,,,,,,,,,,,,,,,,,,,,,,,,,,,,,,
,,,,,,,,,,1492579,2020-10-12_18h42.53.041,swahili,2020.2.4,Win32,60,,,,,,,,,,-0.4703125,0.040977714,1,0,0,0.349765,unsorted_card,18,0,18,0,1,,,,,,,,,,,,,,,,,,,,,,,,,,,,,,,,,,,,,,,,,,,,,,,,,,,,,,,,,,,,,,,,,,,,,,,,,,,,,,,,,
,,,,,,,,,,1492579,2020-10-12_18h42.53.041,swahili,2020.2.4,Win32,60,,,,,,,,,,0.41953125,0.545650611,1,0,0,0.851655,study_pile,19,0,19,0,1,TAILOR - MSHONI,,,,,,,,,,,,,,,,,,,,,,,,,,,,,,,,,,,,,,,,,,,,,,,,,,,,,,,,,,,,,,,,,,,,,,,,,,,,,,,,
,,,,,,,,,,1492579,2020-10-12_18h42.53.041,swahili,2020.2.4,Win32,60,,,,,,,,,,-0.48828125,-0.066858375,1,0,0,0.299165,unsorted_card,20,0,20,0,1,,,,,,,,,,,,,,,,,,,,,,,,,,,,,,,,,,,,,,,,,,,,,,,,,,,,,,,,,,,,,,,,,,,,,,,,,,,,,,,,,
,,,,,,,,,,1492579,2020-10-12_18h42.53.041,swahili,2020.2.4,Win32,60,,,,,,,,,,0.43671875,0.082674335,1,0,0,2.355335,test_pile,21,0,21,0,1,CHEESE - JIBINI,,,,,,,,,,,,,,,,,,,,,,,,,,,,,,,,,,,,,,,,,,,,,,,,,,,,,,,,,,,,,,,,,,,,,,,,,,,,,,,,
,,,,,,,,,,1492579,2020-10-12_18h42.53.041,swahili,2020.2.4,Win32,60,,,,,,,,,,-0.24765625,-0.074047448,1,0,0,0.2333,unsorted_card,22,0,22,0,1,,,,,,,,,,,,,,,,,,,,,,,,,,,,,,,,,,,,,,,,,,,,,,,,,,,,,,,,,,,,,,,,,,,,,,,,,,,,,,,,,
,,,,,,,,,,1492579,2020-10-12_18h42.53.041,swahili,2020.2.4,Win32,60,,,,,,,,,,0.403125,0.531272466,1,0,0,1.05166,study_pile,23,0,23,0,1,GRAPES - ZABIBU,,,,,,,,,,,,,,,,,,,,,,,,,,,,,,,,,,,,,,,,,,,,,,,,,,,,,,,,,,,,,,,,,,,,,,,,,,,,,,,,
,,,,,,,,,,1492579,2020-10-12_18h42.53.041,swahili,2020.2.4,Win32,60,,,,,,,,,,-0.27109375,-0.105679367,1,0,0,0.23283,unsorted_card,24,0,24,0,1,,,,,,,,,,,,,,,,,,,,,,,,,,,,,,,,,,,,,,,,,,,,,,,,,,,,,,,,,,,,,,,,,,,,,,,,,,,,,,,,,
,,,,,,,,,,1492579,2020-10-12_18h42.53.041,swahili,2020.2.4,Win32,60,,,,,,,,,,0.3234375,0.401869159,1,0,0,0.91802,study_pile,25,0,25,0,1,GRAVE - KABURI,,,,,,,,,,,,,,,,,,,,,,,,,,,,,,,,,,,,,,,,,,,,,,,,,,,,,,,,,,,,,,,,,,,,,,,,,,,,,,,,
,,,,,,,,,,1492579,2020-10-12_18h42.53.041,swahili,2020.2.4,Win32,60,,,,,,,,,,-0.3453125,-0.23364486,1,0,0,0.217285,unsorted_card,26,0,26,0,1,,,,,,,,,,,,,,,,,,,,,,,,,,,,,,,,,,,,,,,,,,,,,,,,,,,,,,,,,,,,,,,,,,,,,,,,,,,,,,,,,
,,,,,,,,,,1492579,2020-10-12_18h42.53.041,swahili,2020.2.4,Win32,60,,,,,,,,,,0.4203125,0.560028756,1,0,0,1.73708,study_pile,27,0,27,0,1,MANURE - SAMADI,,,,,,,,,,,,,,,,,,,,,,,,,,,,,,,,,,,,,,,,,,,,,,,,,,,,,,,,,,,,,,,,,,,,,,,,,,,,,,,,
,,,,,,,,,,1492579,2020-10-12_18h42.53.041,swahili,2020.2.4,Win32,60,,,,,,,,,,-0.52109375,-0.181883537,1,0,0,0.34903,unsorted_card,28,0,28,0,1,,,,,,,,,,,,,,,,,,,,,,,,,,,,,,,,,,,,,,,,,,,,,,,,,,,,,,,,,,,,,,,,,,,,,,,,,,,,,,,,,
,,,,,,,,,,1492579,2020-10-12_18h42.53.041,swahili,2020.2.4,Win32,60,,,,,,,,,,0.38984375,-0.160316319,1,0,0,3.23985,test_pile,29,0,29,0,1,AGENT - WAKILI,,,,,,,,,,,,,,,,,,,,,,,,,,,,,,,,,,,,,,,,,,,,,,,,,,,,,,,,,,,,,,,,,,,,,,,,,,,,,,,,
,,,,,,,,,,1492579,2020-10-12_18h42.53.041,swahili,2020.2.4,Win32,60,,,,,,,,,,-0.18359375,-0.11286844,1,0,0,0.38361,unsorted_card,30,0,30,0,1,,,,,,,,,,,,,,,,,,,,,,,,,,,,,,,,,,,,,,,,,,,,,,,,,,,,,,,,,,,,,,,,,,,,,,,,,,,,,,,,,
,,,,,,,,,,1492579,2020-10-12_18h42.53.041,swahili,2020.2.4,Win32,60,,,,,,,,,,0.5171875,-0.143062545,1,0,0,1.70309,test_pile,31,0,31,0,1,BRIBE - RUSHWA,,,,,,,,,,,,,,,,,,,,,,,,,,,,,,,,,,,,,,,,,,,,,,,,,,,,,,,,,,,,,,,,,,,,,,,,,,,,,,,,
,,,,,,,,,,1492579,2020-10-12_18h42.53.041,swahili,2020.2.4,Win32,60,,,,,,,,,,-0.3328125,-0.095614666,1,0,0,0.266665,unsorted_card,32,0,32,0,1,,,,,,,,,,,,,,,,,,,,,,,,,,,,,,,,,,,,,,,,,,,,,,,,,,,,,,,,,,,,,,,,,,,,,,,,,,,,,,,,,
,,,,,,,,,,1492579,2020-10-12_18h42.53.041,swahili,2020.2.4,Win32,60,,,,,,,,,,0.56875,0.511143063,1,0,0,1.102365,study_pile,33,0,33,0,1,ORPHAN - YATIMA,,,,,,,,,,,,,,,,,,,,,,,,,,,,,,,,,,,,,,,,,,,,,,,,,,,,,,,,,,,,,,,,,,,,,,,,,,,,,,,,
,,,,,,,,,,1492579,2020-10-12_18h42.53.041,swahili,2020.2.4,Win32,60,,,,,,,,,,-0.315625,0.086987779,1,0,0,0.299025,unsorted_card,34,0,34,0,1,,,,,,,,,,,,,,,,,,,,,,,,,,,,,,,,,,,,,,,,,,,,,,,,,,,,,,,,,,,,,,,,,,,,,,,,,,,,,,,,,
,,,,,,,,,,1492579,2020-10-12_18h42.53.041,swahili,2020.2.4,Win32,60,,,,,,,,,,0.634375,0.53271028,1,0,0,1.119345,study_pile,35,0,35,0,1,DIVORCE - TALAKA,,,,,,,,,,,,,,,,,,,,,,,,,,,,,,,,,,,,,,,,,,,,,,,,,,,,,,,,,,,,,,,,,,,,,,,,,,,,,,,,
,,,,,,,,,,1492579,2020-10-12_18h42.53.041,swahili,2020.2.4,Win32,60,,,,,,,,,,-0.184375,0.040977714,1,0,0,0.216095,unsorted_card,36,0,36,0,1,,,,,,,,,,,,,,,,,,,,,,,,,,,,,,,,,,,,,,,,,,,,,,,,,,,,,,,,,,,,,,,,,,,,,,,,,,,,,,,,,
,,,,,,,,,,1492579,2020-10-12_18h42.53.041,swahili,2020.2.4,Win32,60,,,,,,,,,,0.5921875,-0.06829619,1,0,0,1.152125,test_pile,37,0,37,0,1,BOAT - MASHUA,,,,,,,,,,,,,,,,,,,,,,,,,,,,,,,,,,,,,,,,,,,,,,,,,,,,,,,,,,,,,,,,,,,,,,,,,,,,,,,,
,,,,,,,,,,1492579,2020-10-12_18h42.53.041,swahili,2020.2.4,Win32,60,,,,,,,,,,-0.54453125,-0.022286125,1,0,0,0.266645,unsorted_card,38,0,38,0,1,,,,,,,,,,,,,,,,,,,,,,,,,,,,,,,,,,,,,,,,,,,,,,,,,,,,,,,,,,,,,,,,,,,,,,,,,,,,,,,,,
,,,,,,,,,,1492579,2020-10-12_18h42.53.041,swahili,2020.2.4,Win32,60,,,,,,,,,,0.38359375,0.407620417,1,0,0,0.817995,study_pile,39,0,39,0,1,TREASURE - DAFINA,,,,,,,,,,,,,,,,,,,,,,,,,,,,,,,,,,,,,,,,,,,,,,,,,,,,,,,,,,,,,,,,,,,,,,,,,,,,,,,,
,,,,,,,,,,1492579,2020-10-12_18h42.53.041,swahili,2020.2.4,Win32,60,,,,,,,,,,,,,,,,,,,,,,,0.6078125,0.127246585,1,0,0,1.068375,test_first,,,,,0,0,0,0,1,,,,,,,,,,,,,,,,,,,,,,,,,,,,,,,,,,,,,,,,,,,,,,,,,,,,,,,,,,,,,,,,
,,,,,,,,,,1492579,2020-10-12_18h42.53.041,swahili,2020.2.4,Win32,60,,,,,,,,,,,,,,,,,,,,,,,,,,,,,,,,,,,,,,,return,,,,,,,,,,,0.919605,8.150325,0.3890625,-0.209202013,1,0,0,0.73462,yes,BRIBE,RUSHWA,incorrect,0,0,0,0,1,,,,,,,,,,,,,,,,,,,,,,,,,,,,,,,,,,,,
,,,,,,,,,,1492579,2020-10-12_18h42.53.041,swahili,2020.2.4,Win32,60,,,,,,,,,,,,,,,,,,,,,,,,,,,,,,,,,,,,,,,,,,,,,,,,,,,3.406905,0.68203125,-0.111430625,1,0,0,0.71806,yes,MERCHANT,TAJIRI,incorrect,1,0,1,0,1,,,,,,,,,,,,,,,,,,,,,,,,,,,,,,,,,,,,
,,,,,,,,,,1492579,2020-10-12_18h42.53.041,swahili,2020.2.4,Win32,60,,,,,,,,,,,,,,,,,,,,,,,,,,,,,,,,,,,,,,,,,,,,,,,,,,,16.85254,0.35703125,0.088425593,1,0,0,0.718235,yes,BOAT,BUSHWA,incorrect,2,0,2,0,1,,,,,,,,,,,,,,,,,,,,,,,,,,,,,,,,,,,,
,,,,,,,,,,1492579,2020-10-12_18h42.53.041,swahili,2020.2.4,Win32,60,,,,,,,,,,,,,,,,,,,,,,,,,,,,,,,,,,,,,,,,,,,,,,,,,,,10.7563,0.44921875,-0.086987779,1,0,0,0.752145,yes,POEM,JAZIKI,incorrect,3,0,3,0,1,,,,,,,,,,,,,,,,,,,,,,,,,,,,,,,,,,,,
,,,,,,,,,,1492579,2020-10-12_18h42.53.041,swahili,2020.2.4,Win32,60,,,,,,,,,,,,,,,,,,,,,,,,,,,,,,,,,,,,,,,,,,,,,,,,,,,15.7336,0.3890625,-0.082674335,1,0,0,0.702045,yes,AGENT,TAJIRI,incorrect,4,0,4,0,1,,,,,,,,,,,,,,,,,,,,,,,,,,,,,,,,,,,,
,,,,,,,,,,1492579,2020-10-12_18h42.53.041,swahili,2020.2.4,Win32,60,,,,,,,,,,,,,,,,,,,,,,,,,,,,,,,,,,,,,,,,,,,,,,,,,,,3.54031,0.67734375,-0.000718907,1,0,0,0.634775,yes,CHEESE,JABINI,incorrect,5,0,5,0,1,,,,,,,,,,,,,,,,,,,,,,,,,,,,,,,,,,,,
,,,,,,,,,,1492579,2020-10-12_18h42.53.041,swahili,2020.2.4,Win32,60,,,,,,,,,,,,,,,,,,,,,,,,,,,,,,,,,,,,,,,,0,0,0,0,1,,,,,,,,,,,,,,,,,,,,,,,,,,,,,,,,,,,,,,,,,,,,,,,,,,,,,,,,,,
,,,,,,,,,,1492579,2020-10-12_18h42.53.041,swahili,2020.2.4,Win32,60,,,,,,,,,,,,,,,,,,,,,,PARROT - KASUKU,,,,,,,,return,1.709845,return,0.98632,0,0,0,0,1,,,,,,,,,,,,,,,,,,,,,,,,,,,,,,,,,,,,,,,,,,,,,,,,,,,,,,,,,,,,,,,,
,,,,,,,,,,1492579,2020-10-12_18h42.53.041,swahili,2020.2.4,Win32,60,,,,,,,,,,,,,,,,,,,,,,TREASURE - DAFINA,,,,,,,,,,return,1.062295,1,0,1,0,1,,,,,,,,,,,,,,,,,,,,,,,,,,,,,,,,,,,,,,,,,,,,,,,,,,,,,,,,,,,,,,,,
,,,,,,,,,,1492579,2020-10-12_18h42.53.041,swahili,2020.2.4,Win32,60,,,,,,,,,,,,,,,,,,,,,,CORN - NAFAKA,,,,,,,,,,return,0.86037,2,0,2,0,1,,,,,,,,,,,,,,,,,,,,,,,,,,,,,,,,,,,,,,,,,,,,,,,,,,,,,,,,,,,,,,,,
,,,,,,,,,,1492579,2020-10-12_18h42.53.041,swahili,2020.2.4,Win32,60,,,,,,,,,,,,,,,,,,,,,,MANURE - SAMADI,,,,,,,,,,return,0.932095,3,0,3,0,1,,,,,,,,,,,,,,,,,,,,,,,,,,,,,,,,,,,,,,,,,,,,,,,,,,,,,,,,,,,,,,,,
,,,,,,,,,,1492579,2020-10-12_18h42.53.041,swahili,2020.2.4,Win32,60,,,,,,,,,,,,,,,,,,,,,,BLAME - LAWAMA,,,,,,,,,,return,0.9075,4,0,4,0,1,,,,,,,,,,,,,,,,,,,,,,,,,,,,,,,,,,,,,,,,,,,,,,,,,,,,,,,,,,,,,,,,
,,,,,,,,,,1492579,2020-10-12_18h42.53.041,swahili,2020.2.4,Win32,60,,,,,,,,,,,,,,,,,,,,,,DIVORCE - TALAKA,,,,,,,,,,return,0.86995,5,0,5,0,1,,,,,,,,,,,,,,,,,,,,,,,,,,,,,,,,,,,,,,,,,,,,,,,,,,,,,,,,,,,,,,,,
,,,,,,,,,,1492579,2020-10-12_18h42.53.041,swahili,2020.2.4,Win32,60,,,,,,,,,,,,,,,,,,,,,,TAILOR - MSHONI,,,,,,,,,,return,0.821155,6,0,6,0,1,,,,,,,,,,,,,,,,,,,,,,,,,,,,,,,,,,,,,,,,,,,,,,,,,,,,,,,,,,,,,,,,
,,,,,,,,,,1492579,2020-10-12_18h42.53.041,swahili,2020.2.4,Win32,60,,,,,,,,,,,,,,,,,,,,,,BULL - FAHILI,,,,,,,,,,return,1.13776,7,0,7,0,1,,,,,,,,,,,,,,,,,,,,,,,,,,,,,,,,,,,,,,,,,,,,,,,,,,,,,,,,,,,,,,,,
,,,,,,,,,,1492579,2020-10-12_18h42.53.041,swahili,2020.2.4,Win32,60,,,,,,,,,,,,,,,,,,,,,,YEAST - HAMIRA,,,,,,,,,,return,0.945425,8,0,8,0,1,,,,,,,,,,,,,,,,,,,,,,,,,,,,,,,,,,,,,,,,,,,,,,,,,,,,,,,,,,,,,,,,
,,,,,,,,,,1492579,2020-10-12_18h42.53.041,swahili,2020.2.4,Win32,60,,,,,,,,,,,,,,,,,,,,,,GRAVE - KABURI,,,,,,,,,,return,0.94369,9,0,9,0,1,,,,,,,,,,,,,,,,,,,,,,,,,,,,,,,,,,,,,,,,,,,,,,,,,,,,,,,,,,,,,,,,
,,,,,,,,,,1492579,2020-10-12_18h42.53.041,swahili,2020.2.4,Win32,60,,,,,,,,,,,,,,,,,,,,,,GRAPES - ZABIBU,,,,,,,,,,return,0.885805,10,0,10,0,1,,,,,,,,,,,,,,,,,,,,,,,,,,,,,,,,,,,,,,,,,,,,,,,,,,,,,,,,,,,,,,,,
,,,,,,,,,,1492579,2020-10-12_18h42.53.041,swahili,2020.2.4,Win32,60,,,,,,,,,,,,,,,,,,,,,,ORPHAN - YATIMA,,,,,,,,,,return,0.85271,11,0,11,0,1,,,,,,,,,,,,,,,,,,,,,,,,,,,,,,,,,,,,,,,,,,,,,,,,,,,,,,,,,,,,,,,,
,,,,,,,,,,1492579,2020-10-12_18h42.53.041,swahili,2020.2.4,Win32,60,,,,,,,,,,,,,,,,,,,,,,OATH - YAMINI,,,,,,,,,,return,0.80239,12,0,12,0,1,,,,,,,,,,,,,,,,,,,,,,,,,,,,,,,,,,,,,,,,,,,,,,,,,,,,,,,,,,,,,,,,
,,,,,,,,,,1492579,2020-10-12_18h42.53.041,swahili,2020.2.4,Win32,60,,,,,,,,,,,,,,,,,,,,,,PLATE - SAHANI,,,,,,,,,,return,0.930935,13,0,13,0,1,,,,,,,,,,,,,,,,,,,,,,,,,,,,,,,,,,,,,,,,,,,,,,,,,,,,,,,,,,,,,,,,
,,,,,,,,,,1492579,2020-10-12_18h42.53.041,swahili,2020.2.4,Win32,60,,,,,,,,,,,,,,,,,,,,,,,,,,,,,,,,,,,,,,,,1,0,1,0,1,,,,,,,,,,,,,,,,,,,,,,,,,,,,,,,,,,,,,,,,,,,,,,,,,,,,,,,,,,
,,,,,,,,,,1492579,2020-10-12_18h42.53.041,swahili,2020.2.4,Win32,60,,,,,,,,,,,,,,,,,,,,,,,,,,,,,,,,,,,,,,,,,,,,,5,0,5,0,1,,,,,,,,,,,,,,,,,,,,,,,,,,,,,,,,,,,,,,,,,,,,,,,,,,,,,
,,,,,,,,,,1492579,2020-10-12_18h42.53.041,swahili,2020.2.4,Win32,60,,,,,,,,,,-0.478125,0.039539899,1,0,0,1.69984,unsorted_card,0,0,0,0,1,,,,,,,,,,,,,,,,,,,,,,,,,,,,,,,,,,,,,,,,,,,,,,,,,,,,,,,,,,,,,,,,,,,,,,,,,,,,,,,,,
,,,,,,,,,,1492579,2020-10-12_18h42.53.041,swahili,2020.2.4,Win32,60,,,,,,,,,,0.553125,-0.148813803,1,0,0,11.60646,test_pile,1,0,1,0,1,MERCHANT - TAJIRI,,,,,,,,,,,,,,,,,,,,,,,,,,,,,,,,,,,,,,,,,,,,,,,,,,,,,,,,,,,,,,,,,,,,,,,,,,,,,,,,
