condition,consent_key.keys,consent_key.rt,done_with_instructions.keys,done_with_instructions.rt,instr_loop.thisRepN,instr_loop.thisTrialN,instr_loop.thisN,instr_loop.thisIndex,instr_loop.ran,Student ID #,date,expName,psychopyVersion,OS,frameRate,instr_learning_key.keys,instr_learning_key.rt,card_gen_loop.thisRepN,card_gen_loop.thisTrialN,card_gen_loop.thisN,card_gen_loop.thisIndex,card_gen_loop.ran,swa,eng,choose_pile.x,choose_pile.y,choose_pile.leftButton,choose_pile.midButton,choose_pile.rightButton,choose_pile.time,choose_pile.clicked_name,choices.thisRepN,choices.thisTrialN,choices.thisN,choices.thisIndex,choices.ran,card_to_show,mouse_pick.x,mouse_pick.y,mouse_pick.leftButton,mouse_pick.midButton,mouse_pick.rightButton,mouse_pick.time,mouse_pick.clicked_name,key_instr_study.keys,key_instr_study.rt,next_study.keys,next_study.rt,study_loop.thisRepN,study_loop.thisTrialN,study_loop.thisN,study_loop.thisIndex,study_loop.ran,key_instr_test.keys,learn_loop.thisRepN,learn_loop.thisTrialN,learn_loop.thisN,learn_loop.thisIndex,learn_loop.ran,key_instr_test.rt,duration,yes_or_no.x,yes_or_no.y,yes_or_no.leftButton,yes_or_no.midButton,yes_or_no.rightButton,yes_or_no.time,yes_or_no.clicked_name,test_response.stim,test_response.resp,test_response.eval,test_loop.thisRepN,test_loop.thisTrialN,test_loop.thisN,test_loop.thisIndex,test_loop.ran,trials.thisRepN,trials.thisTrialN,trials.thisN,trials.thisIndex,trials.ran,instr_movie_key.keys,instr_movie_key.rt,return_to_exp.keys,return_to_exp.rt,instr_assess_key.keys,instr_assess_key.rt,assess_loop.thisRepN,assess_loop.thisTrialN,assess_loop.thisN,assess_loop.thisIndex,assess_loop.ran,ans_gen_loop.thisRepN,ans_gen_loop.thisTrialN,ans_gen_loop.thisN,ans_gen_loop.thisIndex,ans_gen_loop.ran,sen,ans,instr_transfer_key.keys,instr_transfer_key.rt,transfer_response.resp,transfer_response.eval,select_word.x,select_word.y,select_word.leftButton,select_word.midButton,select_word.rightButton,select_word.time,select_word.clicked_name,transfers.thisRepN,transfers.thisTrialN,transfers.thisN,transfers.thisIndex,transfers.ran,end_experiment.keys,end_experiment.rt
1,return,27.21481,return,22.642985,0,0,0,0,1,00001527326,2020-10-30_08h38.39.778,swahili,2020.2.4,MacIntel,60,,,,,,,,,,,,,,,,,,,,,,,,,,,,,,,,,,,,,,,,,,,,,,,,,,,,,,,,,,,,,,,,,,,,,,,,,,,,,,,,,,,,,,,,,,,,,,,,,,,,,,
,,,,,,,,,,00001527326,2020-10-30_08h38.39.778,swahili,2020.2.4,MacIntel,60,return,13.428865,0,0,0,0,1,TAJIRI,MERCHANT,,,,,,,,,,,,,,,,,,,,,,,,,,,,,,,,,,,,,,,,,,,,,,,,,,,,,,,,,,,,,,,,,,,,,,,,,,,,,,,,,,,,,,,,,,,,,
,,,,,,,,,,00001527326,2020-10-30_08h38.39.778,swahili,2020.2.4,MacIntel,60,,,0,1,1,1,1,KASUKU,PARROT,,,,,,,,,,,,,,,,,,,,,,,,,,,,,,,,,,,,,,,,,,,,,,,,,,,,,,,,,,,,,,,,,,,,,,,,,,,,,,,,,,,,,,,,,,,,,
,,,,,,,,,,00001527326,2020-10-30_08h38.39.778,swahili,2020.2.4,MacIntel,60,,,0,2,2,2,1,FAHILI,BULL,,,,,,,,,,,,,,,,,,,,,,,,,,,,,,,,,,,,,,,,,,,,,,,,,,,,,,,,,,,,,,,,,,,,,,,,,,,,,,,,,,,,,,,,,,,,,
,,,,,,,,,,00001527326,2020-10-30_08h38.39.778,swahili,2020.2.4,MacIntel,60,,,0,3,3,3,1,SAHANI,PLATE,,,,,,,,,,,,,,,,,,,,,,,,,,,,,,,,,,,,,,,,,,,,,,,,,,,,,,,,,,,,,,,,,,,,,,,,,,,,,,,,,,,,,,,,,,,,,
,,,,,,,,,,00001527326,2020-10-30_08h38.39.778,swahili,2020.2.4,MacIntel,60,,,0,4,4,4,1,HAMIRA,YEAST,,,,,,,,,,,,,,,,,,,,,,,,,,,,,,,,,,,,,,,,,,,,,,,,,,,,,,,,,,,,,,,,,,,,,,,,,,,,,,,,,,,,,,,,,,,,,
,,,,,,,,,,00001527326,2020-10-30_08h38.39.778,swahili,2020.2.4,MacIntel,60,,,0,5,5,5,1,LAWAMA,BLAME,,,,,,,,,,,,,,,,,,,,,,,,,,,,,,,,,,,,,,,,,,,,,,,,,,,,,,,,,,,,,,,,,,,,,,,,,,,,,,,,,,,,,,,,,,,,,
,,,,,,,,,,00001527326,2020-10-30_08h38.39.778,swahili,2020.2.4,MacIntel,60,,,0,6,6,6,1,YAMINI,OATH,,,,,,,,,,,,,,,,,,,,,,,,,,,,,,,,,,,,,,,,,,,,,,,,,,,,,,,,,,,,,,,,,,,,,,,,,,,,,,,,,,,,,,,,,,,,,
,,,,,,,,,,00001527326,2020-10-30_08h38.39.778,swahili,2020.2.4,MacIntel,60,,,0,7,7,7,1,NAFAKA,CORN,,,,,,,,,,,,,,,,,,,,,,,,,,,,,,,,,,,,,,,,,,,,,,,,,,,,,,,,,,,,,,,,,,,,,,,,,,,,,,,,,,,,,,,,,,,,,
,,,,,,,,,,00001527326,2020-10-30_08h38.39.778,swahili,2020.2.4,MacIntel,60,,,0,8,8,8,1,UTENZI,POEM,,,,,,,,,,,,,,,,,,,,,,,,,,,,,,,,,,,,,,,,,,,,,,,,,,,,,,,,,,,,,,,,,,,,,,,,,,,,,,,,,,,,,,,,,,,,,
,,,,,,,,,,00001527326,2020-10-30_08h38.39.778,swahili,2020.2.4,MacIntel,60,,,0,9,9,9,1,MSHONI,TAILOR,,,,,,,,,,,,,,,,,,,,,,,,,,,,,,,,,,,,,,,,,,,,,,,,,,,,,,,,,,,,,,,,,,,,,,,,,,,,,,,,,,,,,,,,,,,,,
,,,,,,,,,,00001527326,2020-10-30_08h38.39.778,swahili,2020.2.4,MacIntel,60,,,0,10,10,10,1,JIBINI,CHEESE,,,,,,,,,,,,,,,,,,,,,,,,,,,,,,,,,,,,,,,,,,,,,,,,,,,,,,,,,,,,,,,,,,,,,,,,,,,,,,,,,,,,,,,,,,,,,
,,,,,,,,,,00001527326,2020-10-30_08h38.39.778,swahili,2020.2.4,MacIntel,60,,,0,11,11,11,1,ZABIBU,GRAPES,,,,,,,,,,,,,,,,,,,,,,,,,,,,,,,,,,,,,,,,,,,,,,,,,,,,,,,,,,,,,,,,,,,,,,,,,,,,,,,,,,,,,,,,,,,,,
,,,,,,,,,,00001527326,2020-10-30_08h38.39.778,swahili,2020.2.4,MacIntel,60,,,0,12,12,12,1,KABURI,GRAVE,,,,,,,,,,,,,,,,,,,,,,,,,,,,,,,,,,,,,,,,,,,,,,,,,,,,,,,,,,,,,,,,,,,,,,,,,,,,,,,,,,,,,,,,,,,,,
,,,,,,,,,,00001527326,2020-10-30_08h38.39.778,swahili,2020.2.4,MacIntel,60,,,0,13,13,13,1,SAMADI,MANURE,,,,,,,,,,,,,,,,,,,,,,,,,,,,,,,,,,,,,,,,,,,,,,,,,,,,,,,,,,,,,,,,,,,,,,,,,,,,,,,,,,,,,,,,,,,,,
,,,,,,,,,,00001527326,2020-10-30_08h38.39.778,swahili,2020.2.4,MacIntel,60,,,0,14,14,14,1,WAKILI,AGENT,,,,,,,,,,,,,,,,,,,,,,,,,,,,,,,,,,,,,,,,,,,,,,,,,,,,,,,,,,,,,,,,,,,,,,,,,,,,,,,,,,,,,,,,,,,,,
,,,,,,,,,,00001527326,2020-10-30_08h38.39.778,swahili,2020.2.4,MacIntel,60,,,0,15,15,15,1,RUSHWA,BRIBE,,,,,,,,,,,,,,,,,,,,,,,,,,,,,,,,,,,,,,,,,,,,,,,,,,,,,,,,,,,,,,,,,,,,,,,,,,,,,,,,,,,,,,,,,,,,,
,,,,,,,,,,00001527326,2020-10-30_08h38.39.778,swahili,2020.2.4,MacIntel,60,,,0,16,16,16,1,YATIMA,ORPHAN,,,,,,,,,,,,,,,,,,,,,,,,,,,,,,,,,,,,,,,,,,,,,,,,,,,,,,,,,,,,,,,,,,,,,,,,,,,,,,,,,,,,,,,,,,,,,
,,,,,,,,,,00001527326,2020-10-30_08h38.39.778,swahili,2020.2.4,MacIntel,60,,,0,17,17,17,1,TALAKA,DIVORCE,,,,,,,,,,,,,,,,,,,,,,,,,,,,,,,,,,,,,,,,,,,,,,,,,,,,,,,,,,,,,,,,,,,,,,,,,,,,,,,,,,,,,,,,,,,,,
,,,,,,,,,,00001527326,2020-10-30_08h38.39.778,swahili,2020.2.4,MacIntel,60,,,0,18,18,18,1,MASHUA,BOAT,,,,,,,,,,,,,,,,,,,,,,,,,,,,,,,,,,,,,,,,,,,,,,,,,,,,,,,,,,,,,,,,,,,,,,,,,,,,,,,,,,,,,,,,,,,,,
,,,,,,,,,,00001527326,2020-10-30_08h38.39.778,swahili,2020.2.4,MacIntel,60,,,0,19,19,19,1,DAFINA,TREASURE,,,,,,,,,,,,,,,,,,,,,,,,,,,,,,,,,,,,,,,,,,,,,,,,,,,,,,,,,,,,,,,,,,,,,,,,,,,,,,,,,,,,,,,,,,,,,
,,,,,,,,,,00001527326,2020-10-30_08h38.39.778,swahili,2020.2.4,MacIntel,60,,,,,,,,,,0.425092231,0.448376736,1,0,0,7.15322,study_pile,0,0,0,0,1,,,,,,,,,,,,,,,,,,,,,,,,,,,,,,,,,,,,,,,,,,,,,,,,,,,,,,,,,,,,,,,,,,,,,,,,,,,,,,,,,
,,,,,,,,,,00001527326,2020-10-30_08h38.39.778,swahili,2020.2.4,MacIntel,60,,,,,,,,,,-0.1878852,0.036649306,1,0,0,1.445955,unsorted_card,1,0,1,0,1,,,,,,,,,,,,,,,,,,,,,,,,,,,,,,,,,,,,,,,,,,,,,,,,,,,,,,,,,,,,,,,,,,,,,,,,,,,,,,,,,
,,,,,,,,,,00001527326,2020-10-30_08h38.39.778,swahili,2020.2.4,MacIntel,60,,,,,,,,,,-0.304546441,-0.099921875,1,0,0,6.763555,unsorted_card,2,0,2,0,1,MERCHANT - TAJIRI,,,,,,,,,,,,,,,,,,,,,,,,,,,,,,,,,,,,,,,,,,,,,,,,,,,,,,,,,,,,,,,,,,,,,,,,,,,,,,,,
,,,,,,,,,,00001527326,2020-10-30_08h38.39.778,swahili,2020.2.4,MacIntel,60,,,,,,,,,,0.420469835,0.457725694,1,0,0,8.181885,study_pile,3,0,3,0,1,MERCHANT - TAJIRI,,,,,,,,,,,,,,,,,,,,,,,,,,,,,,,,,,,,,,,,,,,,,,,,,,,,,,,,,,,,,,,,,,,,,,,,,,,,,,,,
,,,,,,,,,,00001527326,2020-10-30_08h38.39.778,swahili,2020.2.4,MacIntel,60,,,,,,,,,,-0.244493273,0.086744792,1,0,0,1.593895,unsorted_card,4,0,4,0,1,,,,,,,,,,,,,,,,,,,,,,,,,,,,,,,,,,,,,,,,,,,,,,,,,,,,,,,,,,,,,,,,,,,,,,,,,,,,,,,,,
,,,,,,,,,,00001527326,2020-10-30_08h38.39.778,swahili,2020.2.4,MacIntel,60,,,,,,,,,,0.493511285,0.479322917,1,0,0,13.56607,study_pile,5,0,5,0,1,PARROT - KASUKU,,,,,,,,,,,,,,,,,,,,,,,,,,,,,,,,,,,,,,,,,,,,,,,,,,,,,,,,,,,,,,,,,,,,,,,,,,,,,,,,
,,,,,,,,,,00001527326,2020-10-30_08h38.39.778,swahili,2020.2.4,MacIntel,60,,,,,,,,,,-0.48766276,0.012022569,1,0,0,0.79399,unsorted_card,6,0,6,0,1,,,,,,,,,,,,,,,,,,,,,,,,,,,,,,,,,,,,,,,,,,,,,,,,,,,,,,,,,,,,,,,,,,,,,,,,,,,,,,,,,
,,,,,,,,,,00001527326,2020-10-30_08h38.39.778,swahili,2020.2.4,MacIntel,60,,,,,,,,,,0.469759115,0.496631944,1,0,0,13.083375,study_pile,7,0,7,0,1,BULL - FAHILI,,,,,,,,,,,,,,,,,,,,,,,,,,,,,,,,,,,,,,,,,,,,,,,,,,,,,,,,,,,,,,,,,,,,,,,,,,,,,,,,
,,,,,,,,,,00001527326,2020-10-30_08h38.39.778,swahili,2020.2.4,MacIntel,60,,,,,,,,,,-0.115147569,-0.004357639,1,0,0,1.29543,unsorted_card,8,0,8,0,1,,,,,,,,,,,,,,,,,,,,,,,,,,,,,,,,,,,,,,,,,,,,,,,,,,,,,,,,,,,,,,,,,,,,,,,,,,,,,,,,,
,,,,,,,,,,00001527326,2020-10-30_08h38.39.778,swahili,2020.2.4,MacIntel,60,,,,,,,,,,0.522162543,0.453506944,1,0,0,18.265005,study_pile,9,0,9,0,1,PLATE - SAHANI,,,,,,,,,,,,,,,,,,,,,,,,,,,,,,,,,,,,,,,,,,,,,,,,,,,,,,,,,,,,,,,,,,,,,,,,,,,,,,,,
,,,,,,,,,,00001527326,2020-10-30_08h38.39.778,swahili,2020.2.4,MacIntel,60,,,,,,,,,,-0.23038737,-0.075017361,1,0,0,0.74502,unsorted_card,10,0,10,0,1,,,,,,,,,,,,,,,,,,,,,,,,,,,,,,,,,,,,,,,,,,,,,,,,,,,,,,,,,,,,,,,,,,,,,,,,,,,,,,,,,
,,,,,,,,,,00001527326,2020-10-30_08h38.39.778,swahili,2020.2.4,MacIntel,60,,,,,,,,,,0.415576172,0.38734375,1,0,0,3.198325,study_pile,11,0,11,0,1,YEAST - HAMIRA,,,,,,,,,,,,,,,,,,,,,,,,,,,,,,,,,,,,,,,,,,,,,,,,,,,,,,,,,,,,,,,,,,,,,,,,,,,,,,,,
,,,,,,,,,,00001527326,2020-10-30_08h38.39.778,swahili,2020.2.4,MacIntel,60,,,,,,,,,,0.468630642,0.038090278,1,0,0,0.712645,test_pile,12,0,12,0,1,,,,,,,,,,,,,,,,,,,,,,,,,,,,,,,,,,,,,,,,,,,,,,,,,,,,,,,,,,,,,,,,,,,,,,,,,,,,,,,,,
,,,,,,,,,,00001527326,2020-10-30_08h38.39.778,swahili,2020.2.4,MacIntel,60,,,,,,,,,,-0.243977865,-0.152369792,1,0,0,1.11506,unsorted_card,13,0,13,0,1,,,,,,,,,,,,,,,,,,,,,,,,,,,,,,,,,,,,,,,,,,,,,,,,,,,,,,,,,,,,,,,,,,,,,,,,,,,,,,,,,
,,,,,,,,,,00001527326,2020-10-30_08h38.39.778,swahili,2020.2.4,MacIntel,60,,,,,,,,,,0.454106988,0.424123264,1,0,0,2.39681,study_pile,14,0,14,0,1,BLAME - LAWAMA,,,,,,,,,,,,,,,,,,,,,,,,,,,,,,,,,,,,,,,,,,,,,,,,,,,,,,,,,,,,,,,,,,,,,,,,,,,,,,,,
,,,,,,,,,,00001527326,2020-10-30_08h38.39.778,swahili,2020.2.4,MacIntel,60,,,,,,,,,,-0.184847005,0.060451389,1,0,0,1.36498,unsorted_card,15,0,15,0,1,,,,,,,,,,,,,,,,,,,,,,,,,,,,,,,,,,,,,,,,,,,,,,,,,,,,,,,,,,,,,,,,,,,,,,,,,,,,,,,,,
,,,,,,,,,,00001527326,2020-10-30_08h38.39.778,swahili,2020.2.4,MacIntel,60,,,,,,,,,,0.430430773,0.010390625,1,0,0,4.231745,test_pile,16,0,16,0,1,OATH - YAMINI,,,,,,,,,,,,,,,,,,,,,,,,,,,,,,,,,,,,,,,,,,,,,,,,,,,,,,,,,,,,,,,,,,,,,,,,,,,,,,,,
,,,,,,,,,,00001527326,2020-10-30_08h38.39.778,swahili,2020.2.4,MacIntel,60,,,,,,,,,,-0.372222222,-0.060486111,1,0,0,1.844005,unsorted_card,17,0,17,0,1,,,,,,,,,,,,,,,,,,,,,,,,,,,,,,,,,,,,,,,,,,,,,,,,,,,,,,,,,,,,,,,,,,,,,,,,,,,,,,,,,
,,,,,,,,,,00001527326,2020-10-30_08h38.39.778,swahili,2020.2.4,MacIntel,60,,,,,,,,,,0.475694444,0.520642361,1,0,0,6.69831,study_pile,18,0,18,0,1,CORN - NAFAKA,,,,,,,,,,,,,,,,,,,,,,,,,,,,,,,,,,,,,,,,,,,,,,,,,,,,,,,,,,,,,,,,,,,,,,,,,,,,,,,,
,,,,,,,,,,00001527326,2020-10-30_08h38.39.778,swahili,2020.2.4,MacIntel,60,,,,,,,,,,-0.158729384,0.089010417,1,0,0,3.61236,unsorted_card,19,0,19,0,1,,,,,,,,,,,,,,,,,,,,,,,,,,,,,,,,,,,,,,,,,,,,,,,,,,,,,,,,,,,,,,,,,,,,,,,,,,,,,,,,,
,,,,,,,,,,00001527326,2020-10-30_08h38.39.778,swahili,2020.2.4,MacIntel,60,,,,,,,,,,0.374565972,0.392560764,1,0,0,3.265615,study_pile,20,0,20,0,1,POEM - UTENZI,,,,,,,,,,,,,,,,,,,,,,,,,,,,,,,,,,,,,,,,,,,,,,,,,,,,,,,,,,,,,,,,,,,,,,,,,,,,,,,,
,,,,,,,,,,00001527326,2020-10-30_08h38.39.778,swahili,2020.2.4,MacIntel,60,,,,,,,,,,-0.411968316,-0.049574653,1,0,0,0.99502,unsorted_card,21,0,21,0,1,,,,,,,,,,,,,,,,,,,,,,,,,,,,,,,,,,,,,,,,,,,,,,,,,,,,,,,,,,,,,,,,,,,,,,,,,,,,,,,,,
,,,,,,,,,,00001527326,2020-10-30_08h38.39.778,swahili,2020.2.4,MacIntel,60,,,,,,,,,,0.407161458,0.369670139,1,0,0,3.93169,study_pile,22,0,22,0,1,TAILOR - MSHONI,,,,,,,,,,,,,,,,,,,,,,,,,,,,,,,,,,,,,,,,,,,,,,,,,,,,,,,,,,,,,,,,,,,,,,,,,,,,,,,,
,,,,,,,,,,00001527326,2020-10-30_08h38.39.778,swahili,2020.2.4,MacIntel,60,,,,,,,,,,-0.339284939,0.041414931,1,0,0,0.744995,unsorted_card,23,0,23,0,1,,,,,,,,,,,,,,,,,,,,,,,,,,,,,,,,,,,,,,,,,,,,,,,,,,,,,,,,,,,,,,,,,,,,,,,,,,,,,,,,,
,,,,,,,,,,00001527326,2020-10-30_08h38.39.778,swahili,2020.2.4,MacIntel,60,,,,,,,,,,0.378493924,0.426701389,1,0,0,2.31685,study_pile,24,0,24,0,1,CHEESE - JIBINI,,,,,,,,,,,,,,,,,,,,,,,,,,,,,,,,,,,,,,,,,,,,,,,,,,,,,,,,,,,,,,,,,,,,,,,,,,,,,,,,
,,,,,,,,,,00001527326,2020-10-30_08h38.39.778,swahili,2020.2.4,MacIntel,60,,,,,,,,,,-0.18969184,0.156449653,1,0,0,0.73045,unsorted_card,25,0,25,0,1,,,,,,,,,,,,,,,,,,,,,,,,,,,,,,,,,,,,,,,,,,,,,,,,,,,,,,,,,,,,,,,,,,,,,,,,,,,,,,,,,
,,,,,,,,,,00001527326,2020-10-30_08h38.39.778,swahili,2020.2.4,MacIntel,60,,,,,,,,,,0.364648437,0.382847222,1,0,0,2.962765,study_pile,26,0,26,0,1,GRAPES - ZABIBU,,,,,,,,,,,,,,,,,,,,,,,,,,,,,,,,,,,,,,,,,,,,,,,,,,,,,,,,,,,,,,,,,,,,,,,,,,,,,,,,
,,,,,,,,,,00001527326,2020-10-30_08h38.39.778,swahili,2020.2.4,MacIntel,60,,,,,,,,,,-0.228135851,0.061206597,1,0,0,0.830245,unsorted_card,27,0,27,0,1,,,,,,,,,,,,,,,,,,,,,,,,,,,,,,,,,,,,,,,,,,,,,,,,,,,,,,,,,,,,,,,,,,,,,,,,,,,,,,,,,
,,,,,,,,,,00001527326,2020-10-30_08h38.39.778,swahili,2020.2.4,MacIntel,60,,,,,,,,,,0.413693576,0.465581597,1,0,0,1.98166,study_pile,28,0,28,0,1,GRAVE - KABURI,,,,,,,,,,,,,,,,,,,,,,,,,,,,,,,,,,,,,,,,,,,,,,,,,,,,,,,,,,,,,,,,,,,,,,,,,,,,,,,,
,,,,,,,,,,00001527326,2020-10-30_08h38.39.778,swahili,2020.2.4,MacIntel,60,,,,,,,,,,-0.352631293,0.097152778,1,0,0,0.67876,unsorted_card,29,0,29,0,1,,,,,,,,,,,,,,,,,,,,,,,,,,,,,,,,,,,,,,,,,,,,,,,,,,,,,,,,,,,,,,,,,,,,,,,,,,,,,,,,,
,,,,,,,,,,00001527326,2020-10-30_08h38.39.778,swahili,2020.2.4,MacIntel,60,,,,,,,,,,0.44906684,0.444539931,1,0,0,2.01437,study_pile,30,0,30,0,1,MANURE - SAMADI,,,,,,,,,,,,,,,,,,,,,,,,,,,,,,,,,,,,,,,,,,,,,,,,,,,,,,,,,,,,,,,,,,,,,,,,,,,,,,,,
,,,,,,,,,,00001527326,2020-10-30_08h38.39.778,swahili,2020.2.4,MacIntel,60,,,,,,,,,,-0.118277995,0.191388889,1,0,0,0.664905,unsorted_card,31,0,31,0,1,,,,,,,,,,,,,,,,,,,,,,,,,,,,,,,,,,,,,,,,,,,,,,,,,,,,,,,,,,,,,,,,,,,,,,,,,,,,,,,,,
,,,,,,,,,,00001527326,2020-10-30_08h38.39.778,swahili,2020.2.4,MacIntel,60,,,,,,,,,,0.422450087,0.417977431,1,0,0,1.680475,study_pile,32,0,32,0,1,AGENT - WAKILI,,,,,,,,,,,,,,,,,,,,,,,,,,,,,,,,,,,,,,,,,,,,,,,,,,,,,,,,,,,,,,,,,,,,,,,,,,,,,,,,
,,,,,,,,,,00001527326,2020-10-30_08h38.39.778,swahili,2020.2.4,MacIntel,60,,,,,,,,,,-0.326757813,0.100373264,1,0,0,0.664335,unsorted_card,33,0,33,0,1,,,,,,,,,,,,,,,,,,,,,,,,,,,,,,,,,,,,,,,,,,,,,,,,,,,,,,,,,,,,,,,,,,,,,,,,,,,,,,,,,
,,,,,,,,,,00001527326,2020-10-30_08h38.39.778,swahili,2020.2.4,MacIntel,60,,,,,,,,,,0.494569227,0.456267361,1,0,0,2.549785,study_pile,34,0,34,0,1,BRIBE - RUSHWA,,,,,,,,,,,,,,,,,,,,,,,,,,,,,,,,,,,,,,,,,,,,,,,,,,,,,,,,,,,,,,,,,,,,,,,,,,,,,,,,
,,,,,,,,,,00001527326,2020-10-30_08h38.39.778,swahili,2020.2.4,MacIntel,60,,,,,,,,,,-0.094921875,0.210381944,1,0,0,0.763005,unsorted_card,35,0,35,0,1,,,,,,,,,,,,,,,,,,,,,,,,,,,,,,,,,,,,,,,,,,,,,,,,,,,,,,,,,,,,,,,,,,,,,,,,,,,,,,,,,
,,,,,,,,,,00001527326,2020-10-30_08h38.39.778,swahili,2020.2.4,MacIntel,60,,,,,,,,,,0.419618056,0.403177083,1,0,0,1.998105,study_pile,36,0,36,0,1,ORPHAN - YATIMA,,,,,,,,,,,,,,,,,,,,,,,,,,,,,,,,,,,,,,,,,,,,,,,,,,,,,,,,,,,,,,,,,,,,,,,,,,,,,,,,
,,,,,,,,,,00001527326,2020-10-30_08h38.39.778,swahili,2020.2.4,MacIntel,60,,,,,,,,,,-0.422851563,0.150954861,1,0,0,0.89935,unsorted_card,37,0,37,0,1,,,,,,,,,,,,,,,,,,,,,,,,,,,,,,,,,,,,,,,,,,,,,,,,,,,,,,,,,,,,,,,,,,,,,,,,,,,,,,,,,
,,,,,,,,,,00001527326,2020-10-30_08h38.39.778,swahili,2020.2.4,MacIntel,60,,,,,,,,,,0.538644748,0.470112847,1,0,0,1.56315,study_pile,38,0,38,0,1,DIVORCE - TALAKA,,,,,,,,,,,,,,,,,,,,,,,,,,,,,,,,,,,,,,,,,,,,,,,,,,,,,,,,,,,,,,,,,,,,,,,,,,,,,,,,
,,,,,,,,,,00001527326,2020-10-30_08h38.39.778,swahili,2020.2.4,MacIntel,60,,,,,,,,,,-0.212082248,0.070807292,1,0,0,0.865305,unsorted_card,39,0,39,0,1,,,,,,,,,,,,,,,,,,,,,,,,,,,,,,,,,,,,,,,,,,,,,,,,,,,,,,,,,,,,,,,,,,,,,,,,,,,,,,,,,
,,,,,,,,,,00001527326,2020-10-30_08h38.39.778,swahili,2020.2.4,MacIntel,60,,,,,,,,,,0.45578342,0.4240625,1,0,0,1.88123,study_pile,40,0,40,0,1,BOAT - MASHUA,,,,,,,,,,,,,,,,,,,,,,,,,,,,,,,,,,,,,,,,,,,,,,,,,,,,,,,,,,,,,,,,,,,,,,,,,,,,,,,,
,,,,,,,,,,00001527326,2020-10-30_08h38.39.778,swahili,2020.2.4,MacIntel,60,,,,,,,,,,-0.43664822,0.021996528,1,0,0,0.73246,unsorted_card,41,0,41,0,1,,,,,,,,,,,,,,,,,,,,,,,,,,,,,,,,,,,,,,,,,,,,,,,,,,,,,,,,,,,,,,,,,,,,,,,,,,,,,,,,,
,,,,,,,,,,00001527326,2020-10-30_08h38.39.778,swahili,2020.2.4,MacIntel,60,,,,,,,,,,0.479248047,0.433923611,1,0,0,1.580995,study_pile,42,0,42,0,1,TREASURE - DAFINA,,,,,,,,,,,,,,,,,,,,,,,,,,,,,,,,,,,,,,,,,,,,,,,,,,,,,,,,,,,,,,,,,,,,,,,,,,,,,,,,
,,,,,,,,,,00001527326,2020-10-30_08h38.39.778,swahili,2020.2.4,MacIntel,60,,,,,,,,,,,,,,,,,,,,,,BRIBE - RUSHWA,-0.320469835,0.023081597,1,0,0,1.774395,study_first,return,3.67912,return,8.14619,0,0,0,0,1,,,,,,,,,,,,,,,,,,,,,,,,,,,,,,,,,,,,,,,,,,,,,,,,,,,,,,,,,,,,,,,,
,,,,,,,,,,00001527326,2020-10-30_08h38.39.778,swahili,2020.2.4,MacIntel,60,,,,,,,,,,,,,,,,,,,,,,POEM - UTENZI,,,,,,,,,,return,3.028725,1,0,1,0,1,,,,,,,,,,,,,,,,,,,,,,,,,,,,,,,,,,,,,,,,,,,,,,,,,,,,,,,,,,,,,,,,
,,,,,,,,,,00001527326,2020-10-30_08h38.39.778,swahili,2020.2.4,MacIntel,60,,,,,,,,,,,,,,,,,,,,,,TREASURE - DAFINA,,,,,,,,,,return,1.75099,2,0,2,0,1,,,,,,,,,,,,,,,,,,,,,,,,,,,,,,,,,,,,,,,,,,,,,,,,,,,,,,,,,,,,,,,,
,,,,,,,,,,00001527326,2020-10-30_08h38.39.778,swahili,2020.2.4,MacIntel,60,,,,,,,,,,,,,,,,,,,,,,GRAPES - ZABIBU,,,,,,,,,,return,1.53387,3,0,3,0,1,,,,,,,,,,,,,,,,,,,,,,,,,,,,,,,,,,,,,,,,,,,,,,,,,,,,,,,,,,,,,,,,
,,,,,,,,,,00001527326,2020-10-30_08h38.39.778,swahili,2020.2.4,MacIntel,60,,,,,,,,,,,,,,,,,,,,,,TAILOR - MSHONI,,,,,,,,,,return,1.315795,4,0,4,0,1,,,,,,,,,,,,,,,,,,,,,,,,,,,,,,,,,,,,,,,,,,,,,,,,,,,,,,,,,,,,,,,,
,,,,,,,,,,00001527326,2020-10-30_08h38.39.778,swahili,2020.2.4,MacIntel,60,,,,,,,,,,,,,,,,,,,,,,AGENT - WAKILI,,,,,,,,,,return,1.09982,5,0,5,0,1,,,,,,,,,,,,,,,,,,,,,,,,,,,,,,,,,,,,,,,,,,,,,,,,,,,,,,,,,,,,,,,,
,,,,,,,,,,00001527326,2020-10-30_08h38.39.778,swahili,2020.2.4,MacIntel,60,,,,,,,,,,,,,,,,,,,,,,MANURE - SAMADI,,,,,,,,,,return,1.3846,6,0,6,0,1,,,,,,,,,,,,,,,,,,,,,,,,,,,,,,,,,,,,,,,,,,,,,,,,,,,,,,,,,,,,,,,,
,,,,,,,,,,00001527326,2020-10-30_08h38.39.778,swahili,2020.2.4,MacIntel,60,,,,,,,,,,,,,,,,,,,,,,GRAVE - KABURI,,,,,,,,,,return,1.40142,7,0,7,0,1,,,,,,,,,,,,,,,,,,,,,,,,,,,,,,,,,,,,,,,,,,,,,,,,,,,,,,,,,,,,,,,,
,,,,,,,,,,00001527326,2020-10-30_08h38.39.778,swahili,2020.2.4,MacIntel,60,,,,,,,,,,,,,,,,,,,,,,CHEESE - JIBINI,,,,,,,,,,return,1.60948,8,0,8,0,1,,,,,,,,,,,,,,,,,,,,,,,,,,,,,,,,,,,,,,,,,,,,,,,,,,,,,,,,,,,,,,,,
,,,,,,,,,,00001527326,2020-10-30_08h38.39.778,swahili,2020.2.4,MacIntel,60,,,,,,,,,,,,,,,,,,,,,,PARROT - KASUKU,,,,,,,,,,return,1.01027,9,0,9,0,1,,,,,,,,,,,,,,,,,,,,,,,,,,,,,,,,,,,,,,,,,,,,,,,,,,,,,,,,,,,,,,,,
,,,,,,,,,,00001527326,2020-10-30_08h38.39.778,swahili,2020.2.4,MacIntel,60,,,,,,,,,,,,,,,,,,,,,,BULL - FAHILI,,,,,,,,,,return,1.03801,10,0,10,0,1,,,,,,,,,,,,,,,,,,,,,,,,,,,,,,,,,,,,,,,,,,,,,,,,,,,,,,,,,,,,,,,,
,,,,,,,,,,00001527326,2020-10-30_08h38.39.778,swahili,2020.2.4,MacIntel,60,,,,,,,,,,,,,,,,,,,,,,YEAST - HAMIRA,,,,,,,,,,return,1.700165,11,0,11,0,1,,,,,,,,,,,,,,,,,,,,,,,,,,,,,,,,,,,,,,,,,,,,,,,,,,,,,,,,,,,,,,,,
,,,,,,,,,,00001527326,2020-10-30_08h38.39.778,swahili,2020.2.4,MacIntel,60,,,,,,,,,,,,,,,,,,,,,,BLAME - LAWAMA,,,,,,,,,,return,1.736475,12,0,12,0,1,,,,,,,,,,,,,,,,,,,,,,,,,,,,,,,,,,,,,,,,,,,,,,,,,,,,,,,,,,,,,,,,
,,,,,,,,,,00001527326,2020-10-30_08h38.39.778,swahili,2020.2.4,MacIntel,60,,,,,,,,,,,,,,,,,,,,,,ORPHAN - YATIMA,,,,,,,,,,return,2.168815,13,0,13,0,1,,,,,,,,,,,,,,,,,,,,,,,,,,,,,,,,,,,,,,,,,,,,,,,,,,,,,,,,,,,,,,,,
,,,,,,,,,,00001527326,2020-10-30_08h38.39.778,swahili,2020.2.4,MacIntel,60,,,,,,,,,,,,,,,,,,,,,,DIVORCE - TALAKA,,,,,,,,,,return,1.017,14,0,14,0,1,,,,,,,,,,,,,,,,,,,,,,,,,,,,,,,,,,,,,,,,,,,,,,,,,,,,,,,,,,,,,,,,
,,,,,,,,,,00001527326,2020-10-30_08h38.39.778,swahili,2020.2.4,MacIntel,60,,,,,,,,,,,,,,,,,,,,,,MERCHANT - TAJIRI,,,,,,,,,,return,1.234015,15,0,15,0,1,,,,,,,,,,,,,,,,,,,,,,,,,,,,,,,,,,,,,,,,,,,,,,,,,,,,,,,,,,,,,,,,
,,,,,,,,,,00001527326,2020-10-30_08h38.39.778,swahili,2020.2.4,MacIntel,60,,,,,,,,,,,,,,,,,,,,,,PLATE - SAHANI,,,,,,,,,,return,1.514825,16,0,16,0,1,,,,,,,,,,,,,,,,,,,,,,,,,,,,,,,,,,,,,,,,,,,,,,,,,,,,,,,,,,,,,,,,
,,,,,,,,,,00001527326,2020-10-30_08h38.39.778,swahili,2020.2.4,MacIntel,60,,,,,,,,,,,,,,,,,,,,,,CORN - NAFAKA,,,,,,,,,,return,1.535925,17,0,17,0,1,,,,,,,,,,,,,,,,,,,,,,,,,,,,,,,,,,,,,,,,,,,,,,,,,,,,,,,,,,,,,,,,
,,,,,,,,,,00001527326,2020-10-30_08h38.39.778,swahili,2020.2.4,MacIntel,60,,,,,,,,,,,,,,,,,,,,,,BOAT - MASHUA,,,,,,,,,,return,3.235005,18,0,18,0,1,,,,,,,,,,,,,,,,,,,,,,,,,,,,,,,,,,,,,,,,,,,,,,,,,,,,,,,,,,,,,,,,
,,,,,,,,,,00001527326,2020-10-30_08h38.39.778,swahili,2020.2.4,MacIntel,60,,,,,,,,,,,,,,,,,,,,,,,,,,,,,,,,,,,,,,,,0,0,0,0,1,,,,,,,,,,,,,,,,,,,,,,,,,,,,,,,,,,,,,,,,,,,,,,,,,,,,,,,,,,
,,,,,,,,,,00001527326,2020-10-30_08h38.39.778,swahili,2020.2.4,MacIntel,60,,,,,,,,,,,,,,,,,,,,,,,,,,,,,,,,,,0,0,0,0,1,,,,,,,,,,,,,,,,,,,,,,,,,,,,,,,,,,,,,,,,,,,,,,,,,,,,,,,,,,,,,,,,
,,,,,,,,,,00001527326,2020-10-30_08h38.39.778,swahili,2020.2.4,MacIntel,60,,,,,,,,,,,,,,,,,,,,,,,,,,,,,,,,,,,,,,,return,,,,,,1.599665,20.498145,0.35272895,0.012690972,1,0,0,1.67912,yes,OATH,B,incorrect,0,0,0,0,1,,,,,,,,,,,,,,,,,,,,,,,,,,,,,,,,,,,,,,,,,
,,,,,,,,,,00001527326,2020-10-30_08h38.39.778,swahili,2020.2.4,MacIntel,60,,,,,,,,,,,,,,,,,,,,,,,,,,,,,,,,,,,,,,,,1,0,1,0,1,,,,,,,,,,,,,,,,,,,,,,,,,,,,,,,,,,,,,,,,,,,,,,,,,,,,,,,,,,
,,,,,,,,,,00001527326,2020-10-30_08h38.39.778,swahili,2020.2.4,MacIntel,60,,,,,,,,,,,,,,,,,,,,,,,,,,,,,,,,,,,,,,,,,,,,,,,,,,,,,,,,,,,,,,0,0,0,0,1,,,,,,,,,,,,,,,,,,,,,,,,,,,,,,,,,,,,
,,,,,,,,,,00001527326,2020-10-30_08h38.39.778,swahili,2020.2.4,MacIntel,60,,,,,,,,,,-0.214035373,-0.100572917,1,0,0,2.22246,unsorted_card,0,0,0,0,1,,,,,,,,,,,,,,,,,,,,,,,,,,,,,,,,,,,,,,,,,,,,,,,,,,,,,,,,,,,,,,,,,,,,,,,,,,,,,,,,,
,,,,,,,,,,00001527326,2020-10-30_08h38.39.778,swahili,2020.2.4,MacIntel,60,,,,,,,,,,0.502387153,-0.498585069,1,0,0,1.932435,done_pile,1,0,1,0,1,MERCHANT - TAJIRI,,,,,,,,,,,,,,,,,,,,,,,,,,,,,,,,,,,,,,,,,,,,,,,,,,,,,,,,,,,,,,,,,,,,,,,,,,,,,,,,
,,,,,,,,,,00001527326,2020-10-30_08h38.39.778,swahili,2020.2.4,MacIntel,60,,,,,,,,,,-0.156038411,-0.078576389,1,0,0,0.580085,unsorted_card,2,0,2,0,1,,,,,,,,,,,,,,,,,,,,,,,,,,,,,,,,,,,,,,,,,,,,,,,,,,,,,,,,,,,,,,,,,,,,,,,,,,,,,,,,,
,,,,,,,,,,00001527326,2020-10-30_08h38.39.778,swahili,2020.2.4,MacIntel,60,,,,,,,,,,0.374446615,-0.499253472,1,0,0,0.433285,done_pile,3,0,3,0,1,PARROT - KASUKU,,,,,,,,,,,,,,,,,,,,,,,,,,,,,,,,,,,,,,,,,,,,,,,,,,,,,,,,,,,,,,,,,,,,,,,,,,,,,,,,
,,,,,,,,,,00001527326,2020-10-30_08h38.39.778,swahili,2020.2.4,MacIntel,60,,,,,,,,,,-0.268847656,-0.016102431,1,0,0,0.44801,unsorted_card,4,0,4,0,1,,,,,,,,,,,,,,,,,,,,,,,,,,,,,,,,,,,,,,,,,,,,,,,,,,,,,,,,,,,,,,,,,,,,,,,,,,,,,,,,,
,,,,,,,,,,00001527326,2020-10-30_08h38.39.778,swahili,2020.2.4,MacIntel,60,,,,,,,,,,0.292860243,-0.447065972,1,0,0,0.448315,done_pile,5,0,5,0,1,BULL - FAHILI,,,,,,,,,,,,,,,,,,,,,,,,,,,,,,,,,,,,,,,,,,,,,,,,,,,,,,,,,,,,,,,,,,,,,,,,,,,,,,,,
,,,,,,,,,,00001527326,2020-10-30_08h38.39.778,swahili,2020.2.4,MacIntel,60,,,,,,,,,,-0.16226671,-0.066180556,1,0,0,0.447215,unsorted_card,6,0,6,0,1,,,,,,,,,,,,,,,,,,,,,,,,,,,,,,,,,,,,,,,,,,,,,,,,,,,,,,,,,,,,,,,,,,,,,,,,,,,,,,,,,
,,,,,,,,,,00001527326,2020-10-30_08h38.39.778,swahili,2020.2.4,MacIntel,60,,,,,,,,,,0.458794488,-0.477491319,1,0,0,0.4153,done_pile,7,0,7,0,1,PLATE - SAHANI,,,,,,,,,,,,,,,,,,,,,,,,,,,,,,,,,,,,,,,,,,,,,,,,,,,,,,,,,,,,,,,,,,,,,,,,,,,,,,,,
,,,,,,,,,,00001527326,2020-10-30_08h38.39.778,swahili,2020.2.4,MacIntel,60,,,,,,,,,,-0.139425998,-0.112682292,1,0,0,0.530615,unsorted_card,8,0,8,0,1,,,,,,,,,,,,,,,,,,,,,,,,,,,,,,,,,,,,,,,,,,,,,,,,,,,,,,,,,,,,,,,,,,,,,,,,,,,,,,,,,
,,,,,,,,,,00001527326,2020-10-30_08h38.39.778,swahili,2020.2.4,MacIntel,60,,,,,,,,,,0.458479818,-0.474357639,1,0,0,0.44947,done_pile,9,0,9,0,1,YEAST - HAMIRA,,,,,,,,,,,,,,,,,,,,,,,,,,,,,,,,,,,,,,,,,,,,,,,,,,,,,,,,,,,,,,,,,,,,,,,,,,,,,,,,
,,,,,,,,,,00001527326,2020-10-30_08h38.39.778,swahili,2020.2.4,MacIntel,60,,,,,,,,,,-0.191286892,-0.07796875,1,0,0,0.5305,unsorted_card,10,0,10,0,1,,,,,,,,,,,,,,,,,,,,,,,,,,,,,,,,,,,,,,,,,,,,,,,,,,,,,,,,,,,,,,,,,,,,,,,,,,,,,,,,,
,,,,,,,,,,00001527326,2020-10-30_08h38.39.778,swahili,2020.2.4,MacIntel,60,,,,,,,,,,0.42875434,-0.479131944,1,0,0,0.432785,done_pile,11,0,11,0,1,BLAME - LAWAMA,,,,,,,,,,,,,,,,,,,,,,,,,,,,,,,,,,,,,,,,,,,,,,,,,,,,,,,,,,,,,,,,,,,,,,,,,,,,,,,,
,,,,,,,,,,00001527326,2020-10-30_08h38.39.778,swahili,2020.2.4,MacIntel,60,,,,,,,,,,-0.217892795,0.032074653,1,0,0,0.431105,unsorted_card,12,0,12,0,1,,,,,,,,,,,,,,,,,,,,,,,,,,,,,,,,,,,,,,,,,,,,,,,,,,,,,,,,,,,,,,,,,,,,,,,,,,,,,,,,,
,,,,,,,,,,00001527326,2020-10-30_08h38.39.778,swahili,2020.2.4,MacIntel,60,,,,,,,,,,0.398247613,-0.486892361,1,0,0,0.43175,done_pile,13,0,13,0,1,OATH - YAMINI,,,,,,,,,,,,,,,,,,,,,,,,,,,,,,,,,,,,,,,,,,,,,,,,,,,,,,,,,,,,,,,,,,,,,,,,,,,,,,,,
,,,,,,,,,,00001527326,2020-10-30_08h38.39.778,swahili,2020.2.4,MacIntel,60,,,,,,,,,,-0.150786675,-0.107413194,1,0,0,0.512995,unsorted_card,14,0,14,0,1,,,,,,,,,,,,,,,,,,,,,,,,,,,,,,,,,,,,,,,,,,,,,,,,,,,,,,,,,,,,,,,,,,,,,,,,,,,,,,,,,
,,,,,,,,,,00001527326,2020-10-30_08h38.39.778,swahili,2020.2.4,MacIntel,60,,,,,,,,,,0.53695204,-0.411571181,1,0,0,0.464455,done_pile,15,0,15,0,1,CORN - NAFAKA,,,,,,,,,,,,,,,,,,,,,,,,,,,,,,,,,,,,,,,,,,,,,,,,,,,,,,,,,,,,,,,,,,,,,,,,,,,,,,,,
,,,,,,,,,,00001527326,2020-10-30_08h38.39.778,swahili,2020.2.4,MacIntel,60,,,,,,,,,,-0.100938585,-0.000555556,1,0,0,0.432635,unsorted_card,16,0,16,0,1,,,,,,,,,,,,,,,,,,,,,,,,,,,,,,,,,,,,,,,,,,,,,,,,,,,,,,,,,,,,,,,,,,,,,,,,,,,,,,,,,
,,,,,,,,,,00001527326,2020-10-30_08h38.39.778,swahili,2020.2.4,MacIntel,60,,,,,,,,,,0.427772352,-0.492022569,1,0,0,0.548565,done_pile,17,0,17,0,1,POEM - UTENZI,,,,,,,,,,,,,,,,,,,,,,,,,,,,,,,,,,,,,,,,,,,,,,,,,,,,,,,,,,,,,,,,,,,,,,,,,,,,,,,,
,,,,,,,,,,00001527326,2020-10-30_08h38.39.778,swahili,2020.2.4,MacIntel,60,,,,,,,,,,-0.175477431,-0.060833333,1,0,0,0.49669,unsorted_card,18,0,18,0,1,,,,,,,,,,,,,,,,,,,,,,,,,,,,,,,,,,,,,,,,,,,,,,,,,,,,,,,,,,,,,,,,,,,,,,,,,,,,,,,,,
,,,,,,,,,,00001527326,2020-10-30_08h38.39.778,swahili,2020.2.4,MacIntel,60,,,,,,,,,,0.395583767,-0.426111111,1,0,0,0.43086,done_pile,19,0,19,0,1,TAILOR - MSHONI,,,,,,,,,,,,,,,,,,,,,,,,,,,,,,,,,,,,,,,,,,,,,,,,,,,,,,,,,,,,,,,,,,,,,,,,,,,,,,,,
,,,,,,,,,,00001527326,2020-10-30_08h38.39.778,swahili,2020.2.4,MacIntel,60,,,,,,,,,,-0.222205946,-0.049548611,1,0,0,0.44825,unsorted_card,20,0,20,0,1,,,,,,,,,,,,,,,,,,,,,,,,,,,,,,,,,,,,,,,,,,,,,,,,,,,,,,,,,,,,,,,,,,,,,,,,,,,,,,,,,
,,,,,,,,,,00001527326,2020-10-30_08h38.39.778,swahili,2020.2.4,MacIntel,60,,,,,,,,,,0.38859592,-0.432465278,1,0,0,0.380665,done_pile,21,0,21,0,1,CHEESE - JIBINI,,,,,,,,,,,,,,,,,,,,,,,,,,,,,,,,,,,,,,,,,,,,,,,,,,,,,,,,,,,,,,,,,,,,,,,,,,,,,,,,
,,,,,,,,,,00001527326,2020-10-30_08h38.39.778,swahili,2020.2.4,MacIntel,60,,,,,,,,,,-0.256770833,-0.029045139,1,0,0,0.447095,unsorted_card,22,0,22,0,1,,,,,,,,,,,,,,,,,,,,,,,,,,,,,,,,,,,,,,,,,,,,,,,,,,,,,,,,,,,,,,,,,,,,,,,,,,,,,,,,,
,,,,,,,,,,00001527326,2020-10-30_08h38.39.778,swahili,2020.2.4,MacIntel,60,,,,,,,,,,0.278797743,-0.406892361,1,0,0,0.381805,done_pile,23,0,23,0,1,GRAPES - ZABIBU,,,,,,,,,,,,,,,,,,,,,,,,,,,,,,,,,,,,,,,,,,,,,,,,,,,,,,,,,,,,,,,,,,,,,,,,,,,,,,,,
,,,,,,,,,,00001527326,2020-10-30_08h38.39.778,swahili,2020.2.4,MacIntel,60,,,,,,,,,,-0.226204427,-0.066996528,1,0,0,0.448955,unsorted_card,24,0,24,0,1,,,,,,,,,,,,,,,,,,,,,,,,,,,,,,,,,,,,,,,,,,,,,,,,,,,,,,,,,,,,,,,,,,,,,,,,,,,,,,,,,
,,,,,,,,,,00001527326,2020-10-30_08h38.39.778,swahili,2020.2.4,MacIntel,60,,,,,,,,,,0.336713325,-0.426284722,1,0,0,0.397575,done_pile,25,0,25,0,1,GRAVE - KABURI,,,,,,,,,,,,,,,,,,,,,,,,,,,,,,,,,,,,,,,,,,,,,,,,,,,,,,,,,,,,,,,,,,,,,,,,,,,,,,,,
,,,,,,,,,,00001527326,2020-10-30_08h38.39.778,swahili,2020.2.4,MacIntel,60,,,,,,,,,,-0.311979167,-0.043298611,1,0,0,0.431915,unsorted_card,26,0,26,0,1,,,,,,,,,,,,,,,,,,,,,,,,,,,,,,,,,,,,,,,,,,,,,,,,,,,,,,,,,,,,,,,,,,,,,,,,,,,,,,,,,
,,,,,,,,,,00001527326,2020-10-30_08h38.39.778,swahili,2020.2.4,MacIntel,60,,,,,,,,,,0.318847656,-0.420477431,1,0,0,0.41595,done_pile,27,0,27,0,1,MANURE - SAMADI,,,,,,,,,,,,,,,,,,,,,,,,,,,,,,,,,,,,,,,,,,,,,,,,,,,,,,,,,,,,,,,,,,,,,,,,,,,,,,,,
,,,,,,,,,,00001527326,2020-10-30_08h38.39.778,swahili,2020.2.4,MacIntel,60,,,,,,,,,,-0.310845269,0.000486111,1,0,0,0.497255,unsorted_card,28,0,28,0,1,,,,,,,,,,,,,,,,,,,,,,,,,,,,,,,,,,,,,,,,,,,,,,,,,,,,,,,,,,,,,,,,,,,,,,,,,,,,,,,,,
,,,,,,,,,,00001527326,2020-10-30_08h38.39.778,swahili,2020.2.4,MacIntel,60,,,,,,,,,,0.473866102,-0.423463542,1,0,0,0.48084,done_pile,29,0,29,0,1,AGENT - WAKILI,,,,,,,,,,,,,,,,,,,,,,,,,,,,,,,,,,,,,,,,,,,,,,,,,,,,,,,,,,,,,,,,,,,,,,,,,,,,,,,,
,,,,,,,,,,00001527326,2020-10-30_08h38.39.778,swahili,2020.2.4,MacIntel,60,,,,,,,,,,-0.208273655,-0.037473958,1,0,0,0.39974,unsorted_card,30,0,30,0,1,,,,,,,,,,,,,,,,,,,,,,,,,,,,,,,,,,,,,,,,,,,,,,,,,,,,,,,,,,,,,,,,,,,,,,,,,,,,,,,,,
,,,,,,,,,,00001527326,2020-10-30_08h38.39.778,swahili,2020.2.4,MacIntel,60,,,,,,,,,,0.420817057,-0.489991319,1,0,0,0.414555,done_pile,31,0,31,0,1,BRIBE - RUSHWA,,,,,,,,,,,,,,,,,,,,,,,,,,,,,,,,,,,,,,,,,,,,,,,,,,,,,,,,,,,,,,,,,,,,,,,,,,,,,,,,
,,,,,,,,,,00001527326,2020-10-30_08h38.39.778,swahili,2020.2.4,MacIntel,60,,,,,,,,,,-0.210644531,-0.014756944,1,0,0,0.41341,unsorted_card,32,0,32,0,1,,,,,,,,,,,,,,,,,,,,,,,,,,,,,,,,,,,,,,,,,,,,,,,,,,,,,,,,,,,,,,,,,,,,,,,,,,,,,,,,,
,,,,,,,,,,00001527326,2020-10-30_08h38.39.778,swahili,2020.2.4,MacIntel,60,,,,,,,,,,0.42273763,-0.382760417,1,0,0,0.41527,done_pile,33,0,33,0,1,ORPHAN - YATIMA,,,,,,,,,,,,,,,,,,,,,,,,,,,,,,,,,,,,,,,,,,,,,,,,,,,,,,,,,,,,,,,,,,,,,,,,,,,,,,,,
,,,,,,,,,,00001527326,2020-10-30_08h38.39.778,swahili,2020.2.4,MacIntel,60,,,,,,,,,,-0.27218967,-0.023706597,1,0,0,0.41312,unsorted_card,34,0,34,0,1,,,,,,,,,,,,,,,,,,,,,,,,,,,,,,,,,,,,,,,,,,,,,,,,,,,,,,,,,,,,,,,,,,,,,,,,,,,,,,,,,
,,,,,,,,,,00001527326,2020-10-30_08h38.39.778,swahili,2020.2.4,MacIntel,60,,,,,,,,,,0.392485894,-0.422829861,1,0,0,0.44747,done_pile,35,0,35,0,1,DIVORCE - TALAKA,,,,,,,,,,,,,,,,,,,,,,,,,,,,,,,,,,,,,,,,,,,,,,,,,,,,,,,,,,,,,,,,,,,,,,,,,,,,,,,,
,,,,,,,,,,00001527326,2020-10-30_08h38.39.778,swahili,2020.2.4,MacIntel,60,,,,,,,,,,-0.381472439,-0.030269097,1,0,0,0.430235,unsorted_card,36,0,36,0,1,,,,,,,,,,,,,,,,,,,,,,,,,,,,,,,,,,,,,,,,,,,,,,,,,,,,,,,,,,,,,,,,,,,,,,,,,,,,,,,,,
,,,,,,,,,,00001527326,2020-10-30_08h38.39.778,swahili,2020.2.4,MacIntel,60,,,,,,,,,,0.422129991,-0.378272569,1,0,0,0.56654,done_pile,37,0,37,0,1,BOAT - MASHUA,,,,,,,,,,,,,,,,,,,,,,,,,,,,,,,,,,,,,,,,,,,,,,,,,,,,,,,,,,,,,,,,,,,,,,,,,,,,,,,,
,,,,,,,,,,00001527326,2020-10-30_08h38.39.778,swahili,2020.2.4,MacIntel,60,,,,,,,,,,-0.194222005,0.030885417,1,0,0,0.4138,unsorted_card,38,0,38,0,1,,,,,,,,,,,,,,,,,,,,,,,,,,,,,,,,,,,,,,,,,,,,,,,,,,,,,,,,,,,,,,,,,,,,,,,,,,,,,,,,,
,,,,,,,,,,00001527326,2020-10-30_08h38.39.778,swahili,2020.2.4,MacIntel,60,,,,,,,,,,0.418733724,-0.444852431,1,0,0,0.516605,done_pile,39,0,39,0,1,TREASURE - DAFINA,,,,,,,,,,,,,,,,,,,,,,,,,,,,,,,,,,,,,,,,,,,,,,,,,,,,,,,,,,,,,,,,,,,,,,,,,,,,,,,,
,,,,,,,,,,00001527326,2020-10-30_08h38.39.778,swahili,2020.2.4,MacIntel,60,,,,,,,,,,,,,,,,,,,,,,,,,,,,,,,,,,,,,,,,0,0,0,0,1,,,,,,,,,,,,,,,,,,,,,,,,,,,,,,,,,,,,,,,,,,,,,,,,,,,,,,,,,,
,,,,,,,,,,00001527326,2020-10-30_08h38.39.778,swahili,2020.2.4,MacIntel,60,,,,,,,,,,,,,,,,,,,,,,,,,,,,,,,,,,,,,,,,1,0,1,0,1,,,,,,,,,,,,,,,,,,,,,,,,,,,,,,,,,,,,,,,,,,,,,,,,,,,,,,,,,,
,,,,,,,,,,00001527326,2020-10-30_08h38.39.778,swahili,2020.2.4,MacIntel,60,,,,,,,,RUSHWA,BRIBE,,,,,,,,,,,,,,,,,,,,,,,,,,,,,,,,,,,,,5.61809,,,,,,,,,RISHWAT,incorrect,,,,,,,,,,,return,3.74933,return,0.89896,return,1.84344,0,0,0,15,1,,,,,,,,,,,,,,,,,,,,,,,,,
,,,,,,,,,,00001527326,2020-10-30_08h38.39.778,swahili,2020.2.4,MacIntel,60,,,,,,,,SAMADI,MANURE,,,,,,,,,,,,,,,,,,,,,,,,,,,,,,,,,,,,,10.081375,,,,,,,,,GOBAR,incorrect,,,,,,,,,,,,,,,,,0,1,1,13,1,,,,,,,,,,,,,,,,,,,,,,,,,
,,,,,,,,,,00001527326,2020-10-30_08h38.39.778,swahili,2020.2.4,MacIntel,60,,,,,,,,HAMIRA,YEAST,,,,,,,,,,,,,,,,,,,,,,,,,,,,,,,,,,,,,17.147615,,,,,,,,,IDK,incorrect,,,,,,,,,,,,,,,,,0,2,2,4,1,,,,,,,,,,,,,,,,,,,,,,,,,
,,,,,,,,,,00001527326,2020-10-30_08h38.39.778,swahili,2020.2.4,MacIntel,60,,,,,,,,MSHONI,TAILOR,,,,,,,,,,,,,,,,,,,,,,,,,,,,,,,,,,,,,5.0471,,,,,,,,,IDK,incorrect,,,,,,,,,,,,,,,,,0,3,3,9,1,,,,,,,,,,,,,,,,,,,,,,,,,
,,,,,,,,,,00001527326,2020-10-30_08h38.39.778,swahili,2020.2.4,MacIntel,60,,,,,,,,KABURI,GRAVE,,,,,,,,,,,,,,,,,,,,,,,,,,,,,,,,,,,,,8.7155,,,,,,,,,S,incorrect,,,,,,,,,,,,,,,,,0,4,4,12,1,,,,,,,,,,,,,,,,,,,,,,,,,
,,,,,,,,,,00001527326,2020-10-30_08h38.39.778,swahili,2020.2.4,MacIntel,60,,,,,,,,KASUKU,PARROT,,,,,,,,,,,,,,,,,,,,,,,,,,,,,,,,,,,,,4.69835,,,,,,,,,KUSUKU,incorrect,,,,,,,,,,,,,,,,,0,5,5,1,1,,,,,,,,,,,,,,,,,,,,,,,,,
,,,,,,,,,,00001527326,2020-10-30_08h38.39.778,swahili,2020.2.4,MacIntel,60,,,,,,,,TALAKA,DIVORCE,,,,,,,,,,,,,,,,,,,,,,,,,,,,,,,,,,,,,2.71352,,,,,,,,,TALAK,incorrect,,,,,,,,,,,,,,,,,0,6,6,17,1,,,,,,,,,,,,,,,,,,,,,,,,,
,,,,,,,,,,00001527326,2020-10-30_08h38.39.778,swahili,2020.2.4,MacIntel,60,,,,,,,,WAKILI,AGENT,,,,,,,,,,,,,,,,,,,,,,,,,,,,,,,,,,,,,3.1156,,,,,,,,,WAHILI,incorrect,,,,,,,,,,,,,,,,,0,7,7,14,1,,,,,,,,,,,,,,,,,,,,,,,,,
,,,,,,,,,,00001527326,2020-10-30_08h38.39.778,swahili,2020.2.4,MacIntel,60,,,,,,,,FAHILI,BULL,,,,,,,,,,,,,,,,,,,,,,,,,,,,,,,,,,,,,3.43168,,,,,,,,,FAHILI,correct,,,,,,,,,,,,,,,,,0,8,8,2,1,,,,,,,,,,,,,,,,,,,,,,,,,
,,,,,,,,,,00001527326,2020-10-30_08h38.39.778,swahili,2020.2.4,MacIntel,60,,,,,,,,UTENZI,POEM,,,,,,,,,,,,,,,,,,,,,,,,,,,,,,,,,,,,,5.732365,,,,,,,,,TARA,incorrect,,,,,,,,,,,,,,,,,0,9,9,8,1,,,,,,,,,,,,,,,,,,,,,,,,,
,,,,,,,,,,00001527326,2020-10-30_08h38.39.778,swahili,2020.2.4,MacIntel,60,,,,,,,,TAJIRI,MERCHANT,,,,,,,,,,,,,,,,,,,,,,,,,,,,,,,,,,,,,4.84982,,,,,,,,,TERAJI,incorrect,,,,,,,,,,,,,,,,,0,10,10,0,1,,,,,,,,,,,,,,,,,,,,,,,,,
,,,,,,,,,,00001527326,2020-10-30_08h38.39.778,swahili,2020.2.4,MacIntel,60,,,,,,,,DAFINA,TREASURE,,,,,,,,,,,,,,,,,,,,,,,,,,,,,,,,,,,,,5.49734,,,,,,,,,KASAJANA,incorrect,,,,,,,,,,,,,,,,,0,11,11,19,1,,,,,,,,,,,,,,,,,,,,,,,,,
,,,,,,,,,,00001527326,2020-10-30_08h38.39.778,swahili,2020.2.4,MacIntel,60,,,,,,,,SAHANI,PLATE,,,,,,,,,,,,,,,,,,,,,,,,,,,,,,,,,,,,,4.431435,,,,,,,,,FERI,incorrect,,,,,,,,,,,,,,,,,0,12,12,3,1,,,,,,,,,,,,,,,,,,,,,,,,,
,,,,,,,,,,00001527326,2020-10-30_08h38.39.778,swahili,2020.2.4,MacIntel,60,,,,,,,,ZABIBU,GRAPES,,,,,,,,,,,,,,,,,,,,,,,,,,,,,,,,,,,,,3.132725,,,,,,,,,D,incorrect,,,,,,,,,,,,,,,,,0,13,13,11,1,,,,,,,,,,,,,,,,,,,,,,,,,
,,,,,,,,,,00001527326,2020-10-30_08h38.39.778,swahili,2020.2.4,MacIntel,60,,,,,,,,JIBINI,CHEESE,,,,,,,,,,,,,,,,,,,,,,,,,,,,,,,,,,,,,1.731,,,,,,,,,D,incorrect,,,,,,,,,,,,,,,,,0,14,14,10,1,,,,,,,,,,,,,,,,,,,,,,,,,
,,,,,,,,,,00001527326,2020-10-30_08h38.39.778,swahili,2020.2.4,MacIntel,60,,,,,,,,NAFAKA,CORN,,,,,,,,,,,,,,,,,,,,,,,,,,,,,,,,,,,,,4.598855,,,,,,,,,BHUTA,incorrect,,,,,,,,,,,,,,,,,0,15,15,7,1,,,,,,,,,,,,,,,,,,,,,,,,,
,,,,,,,,,,00001527326,2020-10-30_08h38.39.778,swahili,2020.2.4,MacIntel,60,,,,,,,,YAMINI,OATH,,,,,,,,,,,,,,,,,,,,,,,,,,,,,,,,,,,,,3.56448,,,,,,,,,RISHWATH,incorrect,,,,,,,,,,,,,,,,,0,16,16,6,1,,,,,,,,,,,,,,,,,,,,,,,,,
,,,,,,,,,,00001527326,2020-10-30_08h38.39.778,swahili,2020.2.4,MacIntel,60,,,,,,,,MASHUA,BOAT,,,,,,,,,,,,,,,,,,,,,,,,,,,,,,,,,,,,,4.348995,,,,,,,,,MAHUSU,incorrect,,,,,,,,,,,,,,,,,0,17,17,18,1,,,,,,,,,,,,,,,,,,,,,,,,,
,,,,,,,,,,00001527326,2020-10-30_08h38.39.778,swahili,2020.2.4,MacIntel,60,,,,,,,,YATIMA,ORPHAN,,,,,,,,,,,,,,,,,,,,,,,,,,,,,,,,,,,,,3.76387,,,,,,,,,S,incorrect,,,,,,,,,,,,,,,,,0,18,18,16,1,,,,,,,,,,,,,,,,,,,,,,,,,
,,,,,,,,,,00001527326,2020-10-30_08h38.39.778,swahili,2020.2.4,MacIntel,60,,,,,,,,LAWAMA,BLAME,,,,,,,,,,,,,,,,,,,,,,,,,,,,,,,,,,,,,2.04824,,,,,,,,,S,incorrect,,,,,,,,,,,,,,,,,0,19,19,5,1,,,,,,,,,,,,,,,,,,,,,,,,,
,,,,,,,,,,00001527326,2020-10-30_08h38.39.778,swahili,2020.2.4,MacIntel,60,,,,,,,,,,,,,,,,,,,,,,,,,,,,,,,,,,,,,,,,,,,,,,,,,,,,,,,,,,,,,,,,,,,,,,,,,,,,,,0,0,0,0,1,I bought all my goods from the ____ at the market. ,TAJIRI,,,,,,,,,,,,,,,,,,
,,,,,,,,,,00001527326,2020-10-30_08h38.39.778,swahili,2020.2.4,MacIntel,60,,,,,,,,,,,,,,,,,,,,,,,,,,,,,,,,,,,,,,,,,,,,,,,,,,,,,,,,,,,,,,,,,,,,,,,,,,,,,,0,1,1,1,1,The ____ is a bird that can learn to repeat words.,KASUKU,,,,,,,,,,,,,,,,,,
,,,,,,,,,,00001527326,2020-10-30_08h38.39.778,swahili,2020.2.4,MacIntel,60,,,,,,,,,,,,,,,,,,,,,,,,,,,,,,,,,,,,,,,,,,,,,,,,,,,,,,,,,,,,,,,,,,,,,,,,,,,,,,0,2,2,2,1,The ____ charged the matador's red cape. ,FAHILI,,,,,,,,,,,,,,,,,,
,,,,,,,,,,00001527326,2020-10-30_08h38.39.778,swahili,2020.2.4,MacIntel,60,,,,,,,,,,,,,,,,,,,,,,,,,,,,,,,,,,,,,,,,,,,,,,,,,,,,,,,,,,,,,,,,,,,,,,,,,,,,,,0,3,3,3,1,I filled my ____ with food at the buffet. ,SAHANI,,,,,,,,,,,,,,,,,,
,,,,,,,,,,00001527326,2020-10-30_08h38.39.778,swahili,2020.2.4,MacIntel,60,,,,,,,,,,,,,,,,,,,,,,,,,,,,,,,,,,,,,,,,,,,,,,,,,,,,,,,,,,,,,,,,,,,,,,,,,,,,,,0,4,4,4,1,_____ makes bread rise. ,HAMIRA,,,,,,,,,,,,,,,,,,
,,,,,,,,,,00001527326,2020-10-30_08h38.39.778,swahili,2020.2.4,MacIntel,60,,,,,,,,,,,,,,,,,,,,,,,,,,,,,,,,,,,,,,,,,,,,,,,,,,,,,,,,,,,,,,,,,,,,,,,,,,,,,,0,5,5,5,1,Shannon had no one else to  ____ for what happened.,LAWAMA,,,,,,,,,,,,,,,,,,
,,,,,,,,,,00001527326,2020-10-30_08h38.39.778,swahili,2020.2.4,MacIntel,60,,,,,,,,,,,,,,,,,,,,,,,,,,,,,,,,,,,,,,,,,,,,,,,,,,,,,,,,,,,,,,,,,,,,,,,,,,,,,,0,6,6,6,1,The president takes the  ____ of office to uphold the Constitution.,YAMINI,,,,,,,,,,,,,,,,,,
,,,,,,,,,,00001527326,2020-10-30_08h38.39.778,swahili,2020.2.4,MacIntel,60,,,,,,,,,,,,,,,,,,,,,,,,,,,,,,,,,,,,,,,,,,,,,,,,,,,,,,,,,,,,,,,,,,,,,,,,,,,,,,0,7,7,7,1,Kate doesn't like ____ on the cob because it gets stuck between her teeth. ,NAFAKA,,,,,,,,,,,,,,,,,,
,,,,,,,,,,00001527326,2020-10-30_08h38.39.778,swahili,2020.2.4,MacIntel,60,,,,,,,,,,,,,,,,,,,,,,,,,,,,,,,,,,,,,,,,,,,,,,,,,,,,,,,,,,,,,,,,,,,,,,,,,,,,,,0,8,8,8,1,David wrote Cynthia a romantic ____  but she thought it rhymed too much.,UTENZI,,,,,,,,,,,,,,,,,,
,,,,,,,,,,00001527326,2020-10-30_08h38.39.778,swahili,2020.2.4,MacIntel,60,,,,,,,,,,,,,,,,,,,,,,,,,,,,,,,,,,,,,,,,,,,,,,,,,,,,,,,,,,,,,,,,,,,,,,,,,,,,,,0,9,9,9,1,Charles went to the ____ to get his suit adjusted. ,MSHONI,,,,,,,,,,,,,,,,,,
,,,,,,,,,,00001527326,2020-10-30_08h38.39.778,swahili,2020.2.4,MacIntel,60,,,,,,,,,,,,,,,,,,,,,,,,,,,,,,,,,,,,,,,,,,,,,,,,,,,,,,,,,,,,,,,,,,,,,,,,,,,,,,0,10,10,10,1,Amy cooked a grilled ____ sandwich to go with her tomato soup.,JIBINI,,,,,,,,,,,,,,,,,,
,,,,,,,,,,00001527326,2020-10-30_08h38.39.778,swahili,2020.2.4,MacIntel,60,,,,,,,,,,,,,,,,,,,,,,,,,,,,,,,,,,,,,,,,,,,,,,,,,,,,,,,,,,,,,,,,,,,,,,,,,,,,,,0,11,11,11,1,Fermented _______ are used to make wine.,ZABIBU,,,,,,,,,,,,,,,,,,
,,,,,,,,,,00001527326,2020-10-30_08h38.39.778,swahili,2020.2.4,MacIntel,60,,,,,,,,,,,,,,,,,,,,,,,,,,,,,,,,,,,,,,,,,,,,,,,,,,,,,,,,,,,,,,,,,,,,,,,,,,,,,,0,12,12,12,1,She visited her father's ___ on the anniversary of his death. ,KABURI,,,,,,,,,,,,,,,,,,
,,,,,,,,,,00001527326,2020-10-30_08h38.39.778,swahili,2020.2.4,MacIntel,60,,,,,,,,,,,,,,,,,,,,,,,,,,,,,,,,,,,,,,,,,,,,,,,,,,,,,,,,,,,,,,,,,,,,,,,,,,,,,,0,13,13,13,1,"On a farm, there is a good chance you will step into a pile of ______.",SAMADI,,,,,,,,,,,,,,,,,,
,,,,,,,,,,00001527326,2020-10-30_08h38.39.778,swahili,2020.2.4,MacIntel,60,,,,,,,,,,,,,,,,,,,,,,,,,,,,,,,,,,,,,,,,,,,,,,,,,,,,,,,,,,,,,,,,,,,,,,,,,,,,,,0,14,14,14,1,"To buy a house, you may need to speak with a real estate ______.",WAKILI,,,,,,,,,,,,,,,,,,
,,,,,,,,,,00001527326,2020-10-30_08h38.39.778,swahili,2020.2.4,MacIntel,60,,,,,,,,,,,,,,,,,,,,,,,,,,,,,,,,,,,,,,,,,,,,,,,,,,,,,,,,,,,,,,,,,,,,,,,,,,,,,,0,15,15,15,1,The politician was arrested for taking a _____.,RUSHWA,,,,,,,,,,,,,,,,,,
,,,,,,,,,,00001527326,2020-10-30_08h38.39.778,swahili,2020.2.4,MacIntel,60,,,,,,,,,,,,,,,,,,,,,,,,,,,,,,,,,,,,,,,,,,,,,,,,,,,,,,,,,,,,,,,,,,,,,,,,,,,,,,0,16,16,16,1,The _____ is living with foster parents.,YATIMA,,,,,,,,,,,,,,,,,,
,,,,,,,,,,00001527326,2020-10-30_08h38.39.778,swahili,2020.2.4,MacIntel,60,,,,,,,,,,,,,,,,,,,,,,,,,,,,,,,,,,,,,,,,,,,,,,,,,,,,,,,,,,,,,,,,,,,,,,,,,,,,,,0,17,17,17,1,My aunt and uncle got a _________ after two years of marriage.,TALAKA,,,,,,,,,,,,,,,,,,
,,,,,,,,,,00001527326,2020-10-30_08h38.39.778,swahili,2020.2.4,MacIntel,60,,,,,,,,,,,,,,,,,,,,,,,,,,,,,,,,,,,,,,,,,,,,,,,,,,,,,,,,,,,,,,,,,,,,,,,,,,,,,,0,18,18,18,1,You need a ______ to go fishing in the middle of a lake.,MASHUA,,,,,,,,,,,,,,,,,,
,,,,,,,,,,00001527326,2020-10-30_08h38.39.778,swahili,2020.2.4,MacIntel,60,,,,,,,,,,,,,,,,,,,,,,,,,,,,,,,,,,,,,,,,,,,,,,,,,,,,,,,,,,,,,,,,,,,,,,,,,,,,,,0,19,19,19,1,Pirates looked for buried _________ at the bottom of the sea.,DAFINA,,,,,,,,,,,,,,,,,,
,,,,,,,,,,00001527326,2020-10-30_08h38.39.778,swahili,2020.2.4,MacIntel,60,,,,,,,,,,,,,,,,,,,,,,,,,,,,,,,,,,,,,,,,,,,,,,,,,,,,,,,,,,,,,,,,,,,,,,,,,,,,,,,,,,,The ____ is a bird that can learn to repeat words.,KASUKU,return,2.86546,KASUKU,correct,0.012890625,-0.572534722,1,0,0,2.54526,b,0,0,0,1,1,,
,,,,,,,,,,00001527326,2020-10-30_08h38.39.778,swahili,2020.2.4,MacIntel,60,,,,,,,,,,,,,,,,,,,,,,,,,,,,,,,,,,,,,,,,,,,,,,,,,,,,,,,,,,,,,,,,,,,,,,,,,,,,,,,,,,,Kate doesn't like ____ on the cob because it gets stuck between her teeth. ,NAFAKA,,,NAFAKA,correct,0.054709201,-0.526510417,1,0,0,9.35963,b,0,1,1,7,1,,
,,,,,,,,,,00001527326,2020-10-30_08h38.39.778,swahili,2020.2.4,MacIntel,60,,,,,,,,,,,,,,,,,,,,,,,,,,,,,,,,,,,,,,,,,,,,,,,,,,,,,,,,,,,,,,,,,,,,,,,,,,,,,,,,,,,_____ makes bread rise. ,HAMIRA,,,YATIMA,incorrect,0.531700304,-0.471171875,1,0,0,4.9757,c,0,2,2,4,1,,
,,,,,,,,,,00001527326,2020-10-30_08h38.39.778,swahili,2020.2.4,MacIntel,60,,,,,,,,,,,,,,,,,,,,,,,,,,,,,,,,,,,,,,,,,,,,,,,,,,,,,,,,,,,,,,,,,,,,,,,,,,,,,,,,,,,I filled my ____ with food at the buffet. ,SAHANI,,,SAHANI,correct,0.10500217,-0.550260417,1,0,0,8.11038,b,0,3,3,3,1,,
,,,,,,,,,,00001527326,2020-10-30_08h38.39.778,swahili,2020.2.4,MacIntel,60,,,,,,,,,,,,,,,,,,,,,,,,,,,,,,,,,,,,,,,,,,,,,,,,,,,,,,,,,,,,,,,,,,,,,,,,,,,,,,,,,,,"To buy a house, you may need to speak with a real estate ______.",WAKILI,,,WAKILI,correct,0.0683648,-0.489375,1,0,0,2.97516,b,0,4,4,14,1,,
,,,,,,,,,,00001527326,2020-10-30_08h38.39.778,swahili,2020.2.4,MacIntel,60,,,,,,,,,,,,,,,,,,,,,,,,,,,,,,,,,,,,,,,,,,,,,,,,,,,,,,,,,,,,,,,,,,,,,,,,,,,,,,,,,,,The politician was arrested for taking a _____.,RUSHWA,,,RUSHWA,correct,-0.38429362,-0.485381944,1,0,0,2.843075,a,0,5,5,15,1,,
,,,,,,,,,,00001527326,2020-10-30_08h38.39.778,swahili,2020.2.4,MacIntel,60,,,,,,,,,,,,,,,,,,,,,,,,,,,,,,,,,,,,,,,,,,,,,,,,,,,,,,,,,,,,,,,,,,,,,,,,,,,,,,,,,,,The ____ charged the matador's red cape. ,FAHILI,,,ZABIBU,incorrect,0.452880859,-0.476258681,1,0,0,9.042015,c,0,6,6,2,1,,
,,,,,,,,,,00001527326,2020-10-30_08h38.39.778,swahili,2020.2.4,MacIntel,60,,,,,,,,,,,,,,,,,,,,,,,,,,,,,,,,,,,,,,,,,,,,,,,,,,,,,,,,,,,,,,,,,,,,,,,,,,,,,,,,,,,The _____ is living with foster parents.,YATIMA,,,YATIMA,correct,-0.327170139,-0.559635417,1,0,0,4.85979,a,0,7,7,16,1,,
,,,,,,,,,,00001527326,2020-10-30_08h38.39.778,swahili,2020.2.4,MacIntel,60,,,,,,,,,,,,,,,,,,,,,,,,,,,,,,,,,,,,,,,,,,,,,,,,,,,,,,,,,,,,,,,,,,,,,,,,,,,,,,,,,,,Fermented _______ are used to make wine.,ZABIBU,,,JIBINI,incorrect,-0.411127387,-0.566241319,1,0,0,6.227905,a,0,8,8,11,1,,
,,,,,,,,,,00001527326,2020-10-30_08h38.39.778,swahili,2020.2.4,MacIntel,60,,,,,,,,,,,,,,,,,,,,,,,,,,,,,,,,,,,,,,,,,,,,,,,,,,,,,,,,,,,,,,,,,,,,,,,,,,,,,,,,,,,Charles went to the ____ to get his suit adjusted. ,MSHONI,,,MSHONI,correct,-0.068755425,-0.517743056,1,0,0,4.075965,b,0,9,9,9,1,,
,,,,,,,,,,00001527326,2020-10-30_08h38.39.778,swahili,2020.2.4,MacIntel,60,,,,,,,,,,,,,,,,,,,,,,,,,,,,,,,,,,,,,,,,,,,,,,,,,,,,,,,,,,,,,,,,,,,,,,,,,,,,,,,,,,,I bought all my goods from the ____ at the market. ,TAJIRI,,,TAJIRI,correct,-0.378325738,-0.477378472,1,0,0,3.70847,a,0,10,10,0,1,,
,,,,,,,,,,00001527326,2020-10-30_08h38.39.778,swahili,2020.2.4,MacIntel,60,,,,,,,,,,,,,,,,,,,,,,,,,,,,,,,,,,,,,,,,,,,,,,,,,,,,,,,,,,,,,,,,,,,,,,,,,,,,,,,,,,,You need a ______ to go fishing in the middle of a lake.,MASHUA,,,MASHUA,correct,-0.491357422,-0.6,1,0,0,5.342205,a,0,11,11,18,1,,
,,,,,,,,,,00001527326,2020-10-30_08h38.39.778,swahili,2020.2.4,MacIntel,60,,,,,,,,,,,,,,,,,,,,,,,,,,,,,,,,,,,,,,,,,,,,,,,,,,,,,,,,,,,,,,,,,,,,,,,,,,,,,,,,,,,"On a farm, there is a good chance you will step into a pile of ______.",SAMADI,,,LAWAMA,incorrect,-0.38156467,-0.487543403,1,0,0,6.988065,a,0,12,12,13,1,,
,,,,,,,,,,00001527326,2020-10-30_08h38.39.778,swahili,2020.2.4,MacIntel,60,,,,,,,,,,,,,,,,,,,,,,,,,,,,,,,,,,,,,,,,,,,,,,,,,,,,,,,,,,,,,,,,,,,,,,,,,,,,,,,,,,,She visited her father's ___ on the anniversary of his death. ,KABURI,,,KABURI,correct,-0.120247396,-0.511892361,1,0,0,6.69706,b,0,13,13,12,1,,
,,,,,,,,,,00001527326,2020-10-30_08h38.39.778,swahili,2020.2.4,MacIntel,60,,,,,,,,,,,,,,,,,,,,,,,,,,,,,,,,,,,,,,,,,,,,,,,,,,,,,,,,,,,,,,,,,,,,,,,,,,,,,,,,,,,The president takes the  ____ of office to uphold the Constitution.,YAMINI,,,TAJIRI,incorrect,-0.450168186,-0.521414931,1,0,0,5.325,a,0,14,14,6,1,,
,,,,,,,,,,00001527326,2020-10-30_08h38.39.778,swahili,2020.2.4,MacIntel,60,,,,,,,,,,,,,,,,,,,,,,,,,,,,,,,,,,,,,,,,,,,,,,,,,,,,,,,,,,,,,,,,,,,,,,,,,,,,,,,,,,,My aunt and uncle got a _________ after two years of marriage.,TALAKA,,,TALAKA,correct,-0.410346137,-0.434184028,1,0,0,1.59482,a,0,15,15,17,1,,
,,,,,,,,,,00001527326,2020-10-30_08h38.39.778,swahili,2020.2.4,MacIntel,60,,,,,,,,,,,,,,,,,,,,,,,,,,,,,,,,,,,,,,,,,,,,,,,,,,,,,,,,,,,,,,,,,,,,,,,,,,,,,,,,,,,David wrote Cynthia a romantic ____  but she thought it rhymed too much.,UTENZI,,,HAMIRA,incorrect,-0.4199273,-0.566223958,1,0,0,7.058775,a,0,16,16,8,1,,
,,,,,,,,,,00001527326,2020-10-30_08h38.39.778,swahili,2020.2.4,MacIntel,60,,,,,,,,,,,,,,,,,,,,,,,,,,,,,,,,,,,,,,,,,,,,,,,,,,,,,,,,,,,,,,,,,,,,,,,,,,,,,,,,,,,Pirates looked for buried _________ at the bottom of the sea.,DAFINA,,,RUSHWA,incorrect,0.17546658,-0.555026042,1,0,0,2.89412,b,0,17,17,19,1,,
,,,,,,,,,,00001527326,2020-10-30_08h38.39.778,swahili,2020.2.4,MacIntel,60,,,,,,,,,,,,,,,,,,,,,,,,,,,,,,,,,,,,,,,,,,,,,,,,,,,,,,,,,,,,,,,,,,,,,,,,,,,,,,,,,,,Amy cooked a grilled ____ sandwich to go with her tomato soup.,JIBINI,,,MSHONI,incorrect,0.451274957,-0.469809028,1,0,0,4.829435,c,0,18,18,10,1,,
,,,,,,,,,,00001527326,2020-10-30_08h38.39.778,swahili,2020.2.4,MacIntel,60,,,,,,,,,,,,,,,,,,,,,,,,,,,,,,,,,,,,,,,,,,,,,,,,,,,,,,,,,,,,,,,,,,,,,,,,,,,,,,,,,,,Shannon had no one else to  ____ for what happened.,LAWAMA,,,LAWAMA,correct,0.123101128,-0.513958333,1,0,0,9.1266,b,0,19,19,5,1,,
,,,,,,,,,,00001527326,2020-10-30_08h38.39.778,swahili,2020.2.4,MacIntel,60,,,,,,,,,,,,,,,,,,,,,,,,,,,,,,,,,,,,,,,,,,,,,,,,,,,,,,,,,,,,,,,,,,,,,,,,,,,,,,,,,,,,,,,,,,,,,,,,,,,,,return,5.288085
