condition,consent_key.keys,consent_key.rt,done_with_instructions.keys,done_with_instructions.rt,instr_loop.thisRepN,instr_loop.thisTrialN,instr_loop.thisN,instr_loop.thisIndex,instr_loop.ran,Student ID #,date,expName,psychopyVersion,OS,frameRate,instr_learning_key.keys,instr_learning_key.rt,card_gen_loop.thisRepN,card_gen_loop.thisTrialN,card_gen_loop.thisN,card_gen_loop.thisIndex,card_gen_loop.ran,swa,eng,choose_pile.x,choose_pile.y,choose_pile.leftButton,choose_pile.midButton,choose_pile.rightButton,choose_pile.time,choose_pile.clicked_name,choices.thisRepN,choices.thisTrialN,choices.thisN,choices.thisIndex,choices.ran,card_to_show,mouse_pick.x,mouse_pick.y,mouse_pick.leftButton,mouse_pick.midButton,mouse_pick.rightButton,mouse_pick.time,mouse_pick.clicked_name,key_instr_study.keys,key_instr_test.keys,learn_loop.thisRepN,learn_loop.thisTrialN,learn_loop.thisN,learn_loop.thisIndex,learn_loop.ran,instr_movie_key.keys,instr_movie_key.rt,return_to_exp.keys,return_to_exp.rt,instr_assess_key.keys,instr_assess_key.rt,test_response.resp,test_response.eval,duration,assess_loop.thisRepN,assess_loop.thisTrialN,assess_loop.thisN,assess_loop.thisIndex,assess_loop.ran,ans_gen_loop.thisRepN,ans_gen_loop.thisTrialN,ans_gen_loop.thisN,ans_gen_loop.thisIndex,ans_gen_loop.ran,sen,ans,instr_transfer_key.keys,instr_transfer_key.rt,transfer_response.resp,transfer_response.eval,select_word.x,select_word.y,select_word.leftButton,select_word.midButton,select_word.rightButton,select_word.time,select_word.clicked_name,transfers.thisRepN,transfers.thisTrialN,transfers.thisN,transfers.thisIndex,transfers.ran,end_experiment.keys,end_experiment.rt
1,return,5.2104,return,4.6735,0,0,0,0,1,1600837,2020-10-19_12h45.42.065,swahili,2020.2.4,MacIntel,60,,,,,,,,,,,,,,,,,,,,,,,,,,,,,,,,,,,,,,,,,,,,,,,,,,,,,,,,,,,,,,,,,,,,,,,,,,,
,,,,,,,,,,1600837,2020-10-19_12h45.42.065,swahili,2020.2.4,MacIntel,60,return,2.735835,0,0,0,0,1,TAJIRI,MERCHANT,,,,,,,,,,,,,,,,,,,,,,,,,,,,,,,,,,,,,,,,,,,,,,,,,,,,,,,,,,,,,,,,,,
,,,,,,,,,,1600837,2020-10-19_12h45.42.065,swahili,2020.2.4,MacIntel,60,,,0,1,1,1,1,KASUKU,PARROT,,,,,,,,,,,,,,,,,,,,,,,,,,,,,,,,,,,,,,,,,,,,,,,,,,,,,,,,,,,,,,,,,,
,,,,,,,,,,1600837,2020-10-19_12h45.42.065,swahili,2020.2.4,MacIntel,60,,,0,2,2,2,1,FAHILI,BULL,,,,,,,,,,,,,,,,,,,,,,,,,,,,,,,,,,,,,,,,,,,,,,,,,,,,,,,,,,,,,,,,,,
,,,,,,,,,,1600837,2020-10-19_12h45.42.065,swahili,2020.2.4,MacIntel,60,,,0,3,3,3,1,SAHANI,PLATE,,,,,,,,,,,,,,,,,,,,,,,,,,,,,,,,,,,,,,,,,,,,,,,,,,,,,,,,,,,,,,,,,,
,,,,,,,,,,1600837,2020-10-19_12h45.42.065,swahili,2020.2.4,MacIntel,60,,,0,4,4,4,1,HAMIRA,YEAST,,,,,,,,,,,,,,,,,,,,,,,,,,,,,,,,,,,,,,,,,,,,,,,,,,,,,,,,,,,,,,,,,,
,,,,,,,,,,1600837,2020-10-19_12h45.42.065,swahili,2020.2.4,MacIntel,60,,,0,5,5,5,1,LAWAMA,BLAME,,,,,,,,,,,,,,,,,,,,,,,,,,,,,,,,,,,,,,,,,,,,,,,,,,,,,,,,,,,,,,,,,,
,,,,,,,,,,1600837,2020-10-19_12h45.42.065,swahili,2020.2.4,MacIntel,60,,,0,6,6,6,1,YAMINI,OATH,,,,,,,,,,,,,,,,,,,,,,,,,,,,,,,,,,,,,,,,,,,,,,,,,,,,,,,,,,,,,,,,,,
,,,,,,,,,,1600837,2020-10-19_12h45.42.065,swahili,2020.2.4,MacIntel,60,,,0,7,7,7,1,NAFAKA,CORN,,,,,,,,,,,,,,,,,,,,,,,,,,,,,,,,,,,,,,,,,,,,,,,,,,,,,,,,,,,,,,,,,,
,,,,,,,,,,1600837,2020-10-19_12h45.42.065,swahili,2020.2.4,MacIntel,60,,,0,8,8,8,1,UTENZI,POEM,,,,,,,,,,,,,,,,,,,,,,,,,,,,,,,,,,,,,,,,,,,,,,,,,,,,,,,,,,,,,,,,,,
,,,,,,,,,,1600837,2020-10-19_12h45.42.065,swahili,2020.2.4,MacIntel,60,,,0,9,9,9,1,MSHONI,TAILOR,,,,,,,,,,,,,,,,,,,,,,,,,,,,,,,,,,,,,,,,,,,,,,,,,,,,,,,,,,,,,,,,,,
,,,,,,,,,,1600837,2020-10-19_12h45.42.065,swahili,2020.2.4,MacIntel,60,,,0,10,10,10,1,JIBINI,CHEESE,,,,,,,,,,,,,,,,,,,,,,,,,,,,,,,,,,,,,,,,,,,,,,,,,,,,,,,,,,,,,,,,,,
,,,,,,,,,,1600837,2020-10-19_12h45.42.065,swahili,2020.2.4,MacIntel,60,,,0,11,11,11,1,ZABIBU,GRAPES,,,,,,,,,,,,,,,,,,,,,,,,,,,,,,,,,,,,,,,,,,,,,,,,,,,,,,,,,,,,,,,,,,
,,,,,,,,,,1600837,2020-10-19_12h45.42.065,swahili,2020.2.4,MacIntel,60,,,0,12,12,12,1,KABURI,GRAVE,,,,,,,,,,,,,,,,,,,,,,,,,,,,,,,,,,,,,,,,,,,,,,,,,,,,,,,,,,,,,,,,,,
,,,,,,,,,,1600837,2020-10-19_12h45.42.065,swahili,2020.2.4,MacIntel,60,,,0,13,13,13,1,SAMADI,MANURE,,,,,,,,,,,,,,,,,,,,,,,,,,,,,,,,,,,,,,,,,,,,,,,,,,,,,,,,,,,,,,,,,,
,,,,,,,,,,1600837,2020-10-19_12h45.42.065,swahili,2020.2.4,MacIntel,60,,,0,14,14,14,1,WAKILI,AGENT,,,,,,,,,,,,,,,,,,,,,,,,,,,,,,,,,,,,,,,,,,,,,,,,,,,,,,,,,,,,,,,,,,
,,,,,,,,,,1600837,2020-10-19_12h45.42.065,swahili,2020.2.4,MacIntel,60,,,0,15,15,15,1,RUSHWA,BRIBE,,,,,,,,,,,,,,,,,,,,,,,,,,,,,,,,,,,,,,,,,,,,,,,,,,,,,,,,,,,,,,,,,,
,,,,,,,,,,1600837,2020-10-19_12h45.42.065,swahili,2020.2.4,MacIntel,60,,,0,16,16,16,1,YATIMA,ORPHAN,,,,,,,,,,,,,,,,,,,,,,,,,,,,,,,,,,,,,,,,,,,,,,,,,,,,,,,,,,,,,,,,,,
,,,,,,,,,,1600837,2020-10-19_12h45.42.065,swahili,2020.2.4,MacIntel,60,,,0,17,17,17,1,TALAKA,DIVORCE,,,,,,,,,,,,,,,,,,,,,,,,,,,,,,,,,,,,,,,,,,,,,,,,,,,,,,,,,,,,,,,,,,
,,,,,,,,,,1600837,2020-10-19_12h45.42.065,swahili,2020.2.4,MacIntel,60,,,0,18,18,18,1,MASHUA,BOAT,,,,,,,,,,,,,,,,,,,,,,,,,,,,,,,,,,,,,,,,,,,,,,,,,,,,,,,,,,,,,,,,,,
,,,,,,,,,,1600837,2020-10-19_12h45.42.065,swahili,2020.2.4,MacIntel,60,,,0,19,19,19,1,DAFINA,TREASURE,,,,,,,,,,,,,,,,,,,,,,,,,,,,,,,,,,,,,,,,,,,,,,,,,,,,,,,,,,,,,,,,,,
,,,,,,,,,,1600837,2020-10-19_12h45.42.065,swahili,2020.2.4,MacIntel,60,,,,,,,,,,-0.246047996,0.107330322,1,0,0,2.089135,unsorted_card,0,0,0,0,1,,,,,,,,,,,,,,,,,,,,,,,,,,,,,,,,,,,,,,,,,,,,,,,,,,,,,,
,,,,,,,,,,1600837,2020-10-19_12h45.42.065,swahili,2020.2.4,MacIntel,60,,,,,,,,,,0.403659178,-0.524719238,1,0,0,1.527235,done_pile,1,0,1,0,1,MERCHANT - TAJIRI,,,,,,,,,,,,,,,,,,,,,,,,,,,,,,,,,,,,,,,,,,,,,,,,,,,,,
,,,,,,,,,,1600837,2020-10-19_12h45.42.065,swahili,2020.2.4,MacIntel,60,,,,,,,,,,-0.370859261,-0.020019531,1,0,0,1.53763,unsorted_card,2,0,2,0,1,,,,,,,,,,,,,,,,,,,,,,,,,,,,,,,,,,,,,,,,,,,,,,,,,,,,,,
,,,,,,,,,,1600837,2020-10-19_12h45.42.065,swahili,2020.2.4,MacIntel,60,,,,,,,,,,0.415086246,-0.588775635,1,0,0,0.96007,done_pile,3,0,3,0,1,PARROT - KASUKU,,,,,,,,,,,,,,,,,,,,,,,,,,,,,,,,,,,,,,,,,,,,,,,,,,,,,
,,,,,,,,,,1600837,2020-10-19_12h45.42.065,swahili,2020.2.4,MacIntel,60,,,,,,,,,,-0.315674186,-0.149180094,1,0,0,0.63056,unsorted_card,4,0,4,0,1,,,,,,,,,,,,,,,,,,,,,,,,,,,,,,,,,,,,,,,,,,,,,,,,,,,,,,
,,,,,,,,,,1600837,2020-10-19_12h45.42.065,swahili,2020.2.4,MacIntel,60,,,,,,,,,,0.496202416,-0.447570801,1,0,0,0.581555,done_pile,5,0,5,0,1,BULL - FAHILI,,,,,,,,,,,,,,,,,,,,,,,,,,,,,,,,,,,,,,,,,,,,,,,,,,,,,
,,,,,,,,,,1600837,2020-10-19_12h45.42.065,swahili,2020.2.4,MacIntel,60,,,,,,,,,,-0.336029008,-0.012858073,1,0,0,0.598795,unsorted_card,6,0,6,0,1,,,,,,,,,,,,,,,,,,,,,,,,,,,,,,,,,,,,,,,,,,,,,,,,,,,,,,
,,,,,,,,,,1600837,2020-10-19_12h45.42.065,swahili,2020.2.4,MacIntel,60,,,,,,,,,,0.415355051,-0.482147217,1,0,0,0.712515,done_pile,7,0,7,0,1,PLATE - SAHANI,,,,,,,,,,,,,,,,,,,,,,,,,,,,,,,,,,,,,,,,,,,,,,,,,,,,,
,,,,,,,,,,1600837,2020-10-19_12h45.42.065,swahili,2020.2.4,MacIntel,60,,,,,,,,,,-0.297109489,-0.017700195,1,0,0,0.5643,unsorted_card,8,0,8,0,1,,,,,,,,,,,,,,,,,,,,,,,,,,,,,,,,,,,,,,,,,,,,,,,,,,,,,,
,,,,,,,,,,1600837,2020-10-19_12h45.42.065,swahili,2020.2.4,MacIntel,60,,,,,,,,,,0.417162335,-0.45715332,1,0,0,0.614955,done_pile,9,0,9,0,1,YEAST - HAMIRA,,,,,,,,,,,,,,,,,,,,,,,,,,,,,,,,,,,,,,,,,,,,,,,,,,,,,
,,,,,,,,,,1600837,2020-10-19_12h45.42.065,swahili,2020.2.4,MacIntel,60,,,,,,,,,,-0.142049094,-0.081247965,1,0,0,0.58205,unsorted_card,10,0,10,0,1,,,,,,,,,,,,,,,,,,,,,,,,,,,,,,,,,,,,,,,,,,,,,,,,,,,,,,
,,,,,,,,,,1600837,2020-10-19_12h45.42.065,swahili,2020.2.4,MacIntel,60,,,,,,,,,,0.547812958,-0.503519694,1,0,0,0.597715,done_pile,11,0,11,0,1,BLAME - LAWAMA,,,,,,,,,,,,,,,,,,,,,,,,,,,,,,,,,,,,,,,,,,,,,,,,,,,,,
,,,,,,,,,,1600837,2020-10-19_12h45.42.065,swahili,2020.2.4,MacIntel,60,,,,,,,,,,-0.225058336,-0.177998861,1,0,0,0.630395,unsorted_card,12,0,12,0,1,,,,,,,,,,,,,,,,,,,,,,,,,,,,,,,,,,,,,,,,,,,,,,,,,,,,,,
,,,,,,,,,,1600837,2020-10-19_12h45.42.065,swahili,2020.2.4,MacIntel,60,,,,,,,,,,0.406570278,-0.548624674,1,0,0,0.59813,done_pile,13,0,13,0,1,OATH - YAMINI,,,,,,,,,,,,,,,,,,,,,,,,,,,,,,,,,,,,,,,,,,,,,,,,,,,,,
,,,,,,,,,,1600837,2020-10-19_12h45.42.065,swahili,2020.2.4,MacIntel,60,,,,,,,,,,-0.195575586,-0.110117594,1,0,0,0.73039,unsorted_card,14,0,14,0,1,,,,,,,,,,,,,,,,,,,,,,,,,,,,,,,,,,,,,,,,,,,,,,,,,,,,,,
,,,,,,,,,,1600837,2020-10-19_12h45.42.065,swahili,2020.2.4,MacIntel,60,,,,,,,,,,0.533440474,-0.590260824,1,0,0,0.59661,done_pile,15,0,15,0,1,CORN - NAFAKA,,,,,,,,,,,,,,,,,,,,,,,,,,,,,,,,,,,,,,,,,,,,,,,,,,,,,
,,,,,,,,,,1600837,2020-10-19_12h45.42.065,swahili,2020.2.4,MacIntel,60,,,,,,,,,,-0.248381451,-0.00974528,1,0,0,0.58496,unsorted_card,16,0,16,0,1,,,,,,,,,,,,,,,,,,,,,,,,,,,,,,,,,,,,,,,,,,,,,,,,,,,,,,
,,,,,,,,,,1600837,2020-10-19_12h45.42.065,swahili,2020.2.4,MacIntel,60,,,,,,,,,,0.327095534,-0.380472819,1,0,0,0.644205,done_pile,17,0,17,0,1,POEM - UTENZI,,,,,,,,,,,,,,,,,,,,,,,,,,,,,,,,,,,,,,,,,,,,,,,,,,,,,
,,,,,,,,,,1600837,2020-10-19_12h45.42.065,swahili,2020.2.4,MacIntel,60,,,,,,,,,,-0.283789348,0.087585449,1,0,0,0.615245,unsorted_card,18,0,18,0,1,,,,,,,,,,,,,,,,,,,,,,,,,,,,,,,,,,,,,,,,,,,,,,,,,,,,,,
,,,,,,,,,,1600837,2020-10-19_12h45.42.065,swahili,2020.2.4,MacIntel,60,,,,,,,,,,0.477168741,-0.573872884,1,0,0,0.612815,done_pile,19,0,19,0,1,TAILOR - MSHONI,,,,,,,,,,,,,,,,,,,,,,,,,,,,,,,,,,,,,,,,,,,,,,,,,,,,,
,,,,,,,,,,1600837,2020-10-19_12h45.42.065,swahili,2020.2.4,MacIntel,60,,,,,,,,,,-0.136438507,-0.149902344,1,0,0,0.64707,unsorted_card,20,0,20,0,1,,,,,,,,,,,,,,,,,,,,,,,,,,,,,,,,,,,,,,,,,,,,,,,,,,,,,,
,,,,,,,,,,1600837,2020-10-19_12h45.42.065,swahili,2020.2.4,MacIntel,60,,,,,,,,,,0.343852947,-0.446380615,1,0,0,0.647135,done_pile,21,0,21,0,1,CHEESE - JIBINI,,,,,,,,,,,,,,,,,,,,,,,,,,,,,,,,,,,,,,,,,,,,,,,,,,,,,
,,,,,,,,,,1600837,2020-10-19_12h45.42.065,swahili,2020.2.4,MacIntel,60,,,,,,,,,,-0.301782119,-0.04490153,1,0,0,0.613845,unsorted_card,22,0,22,0,1,,,,,,,,,,,,,,,,,,,,,,,,,,,,,,,,,,,,,,,,,,,,,,,,,,,,,,
,,,,,,,,,,1600837,2020-10-19_12h45.42.065,swahili,2020.2.4,MacIntel,60,,,,,,,,,,0.280815337,-0.440948486,1,0,0,0.582125,done_pile,23,0,23,0,1,GRAPES - ZABIBU,,,,,,,,,,,,,,,,,,,,,,,,,,,,,,,,,,,,,,,,,,,,,,,,,,,,,
,,,,,,,,,,1600837,2020-10-19_12h45.42.065,swahili,2020.2.4,MacIntel,60,,,,,,,,,,-0.246597044,-0.089823405,1,0,1,1.62495,unsorted_card,24,0,24,0,1,,,,,,,,,,,,,,,,,,,,,,,,,,,,,,,,,,,,,,,,,,,,,,,,,,,,,,
,,,,,,,,,,1600837,2020-10-19_12h45.42.065,swahili,2020.2.4,MacIntel,60,,,,,,,,,,-0.246597044,-0.089823405,0,0,1,0.114475,unsorted_card,25,0,25,0,1,GRAVE - KABURI,,,,,,,,,,,,,,,,,,,,,,,,,,,,,,,,,,,,,,,,,,,,,,,,,,,,,
,,,,,,,,,,1600837,2020-10-19_12h45.42.065,swahili,2020.2.4,MacIntel,60,,,,,,,,,,0.595214129,-0.530069987,1,0,1,0.664975,done_pile,26,0,26,0,1,GRAVE - KABURI,,,,,,,,,,,,,,,,,,,,,,,,,,,,,,,,,,,,,,,,,,,,,,,,,,,,,
,,,,,,,,,,1600837,2020-10-19_12h45.42.065,swahili,2020.2.4,MacIntel,60,,,,,,,,,,0.595214129,-0.530069987,0,0,1,0.09742,done_pile,27,0,27,0,1,,,,,,,,,,,,,,,,,,,,,,,,,,,,,,,,,,,,,,,,,,,,,,,,,,,,,,
,,,,,,,,,,1600837,2020-10-19_12h45.42.065,swahili,2020.2.4,MacIntel,60,,,,,,,,,,-0.417997346,0.080383301,1,0,1,0.43066,unsorted_card,28,0,28,0,1,,,,,,,,,,,,,,,,,,,,,,,,,,,,,,,,,,,,,,,,,,,,,,,,,,,,,,
,,,,,,,,,,1600837,2020-10-19_12h45.42.065,swahili,2020.2.4,MacIntel,60,,,,,,,,,,-0.417997346,0.080383301,0,0,1,0.08123,unsorted_card,29,0,29,0,1,MANURE - SAMADI,,,,,,,,,,,,,,,,,,,,,,,,,,,,,,,,,,,,,,,,,,,,,,,,,,,,,
,,,,,,,,,,1600837,2020-10-19_12h45.42.065,swahili,2020.2.4,MacIntel,60,,,,,,,,,,0.436522008,-0.475708008,1,0,1,0.483035,done_pile,30,0,30,0,1,MANURE - SAMADI,,,,,,,,,,,,,,,,,,,,,,,,,,,,,,,,,,,,,,,,,,,,,,,,,,,,,
,,,,,,,,,,1600837,2020-10-19_12h45.42.065,swahili,2020.2.4,MacIntel,60,,,,,,,,,,0.436522008,-0.475708008,0,0,1,0.0973,done_pile,31,0,31,0,1,,,,,,,,,,,,,,,,,,,,,,,,,,,,,,,,,,,,,,,,,,,,,,,,,,,,,,
,,,,,,,,,,1600837,2020-10-19_12h45.42.065,swahili,2020.2.4,MacIntel,60,,,,,,,,,,-0.214849469,-0.076944987,1,0,1,0.41407,unsorted_card,32,0,32,0,1,,,,,,,,,,,,,,,,,,,,,,,,,,,,,,,,,,,,,,,,,,,,,,,,,,,,,,
,,,,,,,,,,1600837,2020-10-19_12h45.42.065,swahili,2020.2.4,MacIntel,60,,,,,,,,,,-0.214849469,-0.076944987,0,0,1,0.06465,unsorted_card,33,0,33,0,1,AGENT - WAKILI,,,,,,,,,,,,,,,,,,,,,,,,,,,,,,,,,,,,,,,,,,,,,,,,,,,,,
,,,,,,,,,,1600837,2020-10-19_12h45.42.065,swahili,2020.2.4,MacIntel,60,,,,,,,,,,0.532908583,-0.55166626,1,0,1,0.4489,done_pile,34,0,34,0,1,AGENT - WAKILI,,,,,,,,,,,,,,,,,,,,,,,,,,,,,,,,,,,,,,,,,,,,,,,,,,,,,
,,,,,,,,,,1600837,2020-10-19_12h45.42.065,swahili,2020.2.4,MacIntel,60,,,,,,,,,,0.532908583,-0.55166626,0,0,1,0.09622,done_pile,35,0,35,0,1,,,,,,,,,,,,,,,,,,,,,,,,,,,,,,,,,,,,,,,,,,,,,,,,,,,,,,
,,,,,,,,,,1600837,2020-10-19_12h45.42.065,swahili,2020.2.4,MacIntel,60,,,,,,,,,,-0.253488745,0.012674967,1,0,1,0.599685,unsorted_card,36,0,36,0,1,,,,,,,,,,,,,,,,,,,,,,,,,,,,,,,,,,,,,,,,,,,,,,,,,,,,,,
,,,,,,,,,,1600837,2020-10-19_12h45.42.065,swahili,2020.2.4,MacIntel,60,,,,,,,,,,-0.253488745,0.012674967,0,0,1,0.14552,unsorted_card,37,0,37,0,1,BRIBE - RUSHWA,,,,,,,,,,,,,,,,,,,,,,,,,,,,,,,,,,,,,,,,,,,,,,,,,,,,,
,,,,,,,,,,1600837,2020-10-19_12h45.42.065,swahili,2020.2.4,MacIntel,60,,,,,,,,,,0.433267753,-0.474700928,1,0,1,0.449455,done_pile,38,0,38,0,1,BRIBE - RUSHWA,,,,,,,,,,,,,,,,,,,,,,,,,,,,,,,,,,,,,,,,,,,,,,,,,,,,,
,,,,,,,,,,1600837,2020-10-19_12h45.42.065,swahili,2020.2.4,MacIntel,60,,,,,,,,,,0.433267753,-0.474700928,0,0,1,0.079635,done_pile,39,0,39,0,1,,,,,,,,,,,,,,,,,,,,,,,,,,,,,,,,,,,,,,,,,,,,,,,,,,,,,,
,,,,,,,,,,1600837,2020-10-19_12h45.42.065,swahili,2020.2.4,MacIntel,60,,,,,,,,,,-0.221786923,-0.045196533,1,0,1,0.58209,unsorted_card,40,0,40,0,1,,,,,,,,,,,,,,,,,,,,,,,,,,,,,,,,,,,,,,,,,,,,,,,,,,,,,,
,,,,,,,,,,1600837,2020-10-19_12h45.42.065,swahili,2020.2.4,MacIntel,60,,,,,,,,,,-0.221786923,-0.045196533,0,0,1,0.080885,unsorted_card,41,0,41,0,1,ORPHAN - YATIMA,,,,,,,,,,,,,,,,,,,,,,,,,,,,,,,,,,,,,,,,,,,,,,,,,,,,,
,,,,,,,,,,1600837,2020-10-19_12h45.42.065,swahili,2020.2.4,MacIntel,60,,,,,,,,,,0.400913937,-0.514485677,1,0,1,0.631025,done_pile,42,0,42,0,1,ORPHAN - YATIMA,,,,,,,,,,,,,,,,,,,,,,,,,,,,,,,,,,,,,,,,,,,,,,,,,,,,,
,,,,,,,,,,1600837,2020-10-19_12h45.42.065,swahili,2020.2.4,MacIntel,60,,,,,,,,,,0.400913937,-0.514485677,0,0,1,0.097035,done_pile,43,0,43,0,1,,,,,,,,,,,,,,,,,,,,,,,,,,,,,,,,,,,,,,,,,,,,,,,,,,,,,,
,,,,,,,,,,1600837,2020-10-19_12h45.42.065,swahili,2020.2.4,MacIntel,60,,,,,,,,,,-0.330641471,0.076873779,1,0,1,0.412705,unsorted_card,44,0,44,0,1,,,,,,,,,,,,,,,,,,,,,,,,,,,,,,,,,,,,,,,,,,,,,,,,,,,,,,
,,,,,,,,,,1600837,2020-10-19_12h45.42.065,swahili,2020.2.4,MacIntel,60,,,,,,,,,,-0.330641471,0.076873779,0,0,1,0.080895,unsorted_card,45,0,45,0,1,DIVORCE - TALAKA,,,,,,,,,,,,,,,,,,,,,,,,,,,,,,,,,,,,,,,,,,,,,,,,,,,,,
,,,,,,,,,,1600837,2020-10-19_12h45.42.065,swahili,2020.2.4,MacIntel,60,,,,,,,,,,0.368823206,-0.394907633,1,0,1,0.565635,done_pile,46,0,46,0,1,DIVORCE - TALAKA,,,,,,,,,,,,,,,,,,,,,,,,,,,,,,,,,,,,,,,,,,,,,,,,,,,,,
,,,,,,,,,,1600837,2020-10-19_12h45.42.065,swahili,2020.2.4,MacIntel,60,,,,,,,,,,0.368823206,-0.394907633,0,0,1,0.06233,done_pile,47,0,47,0,1,,,,,,,,,,,,,,,,,,,,,,,,,,,,,,,,,,,,,,,,,,,,,,,,,,,,,,
,,,,,,,,,,1600837,2020-10-19_12h45.42.065,swahili,2020.2.4,MacIntel,60,,,,,,,,,,-0.129992908,-0.11912028,1,0,1,0.39882,unsorted_card,48,0,48,0,1,,,,,,,,,,,,,,,,,,,,,,,,,,,,,,,,,,,,,,,,,,,,,,,,,,,,,,
,,,,,,,,,,1600837,2020-10-19_12h45.42.065,swahili,2020.2.4,MacIntel,60,,,,,,,,,,-0.129992908,-0.11912028,0,0,1,0.096895,unsorted_card,49,0,49,0,1,BOAT - MASHUA,,,,,,,,,,,,,,,,,,,,,,,,,,,,,,,,,,,,,,,,,,,,,,,,,,,,,
,,,,,,,,,,1600837,2020-10-19_12h45.42.065,swahili,2020.2.4,MacIntel,60,,,,,,,,,,0.430116444,-0.507029215,1,0,1,0.51452,done_pile,50,0,50,0,1,BOAT - MASHUA,,,,,,,,,,,,,,,,,,,,,,,,,,,,,,,,,,,,,,,,,,,,,,,,,,,,,
,,,,,,,,,,1600837,2020-10-19_12h45.42.065,swahili,2020.2.4,MacIntel,60,,,,,,,,,,0.430116444,-0.507029215,0,0,1,0.08105,done_pile,51,0,51,0,1,,,,,,,,,,,,,,,,,,,,,,,,,,,,,,,,,,,,,,,,,,,,,,,,,,,,,,
,,,,,,,,,,1600837,2020-10-19_12h45.42.065,swahili,2020.2.4,MacIntel,60,,,,,,,,,,-0.259505399,-0.090189616,1,0,1,0.68229,unsorted_card,52,0,52,0,1,,,,,,,,,,,,,,,,,,,,,,,,,,,,,,,,,,,,,,,,,,,,,,,,,,,,,,
,,,,,,,,,,1600837,2020-10-19_12h45.42.065,swahili,2020.2.4,MacIntel,60,,,,,,,,,,-0.259505399,-0.090189616,0,0,1,0.07851,unsorted_card,53,0,53,0,1,TREASURE - DAFINA,,,,,,,,,,,,,,,,,,,,,,,,,,,,,,,,,,,,,,,,,,,,,,,,,,,,,
,,,,,,,,,,1600837,2020-10-19_12h45.42.065,swahili,2020.2.4,MacIntel,60,,,,,,,,,,0.367908126,-0.503306071,1,0,1,0.748635,done_pile,54,0,54,0,1,TREASURE - DAFINA,,,,,,,,,,,,,,,,,,,,,,,,,,,,,,,,,,,,,,,,,,,,,,,,,,,,,
,,,,,,,,,,1600837,2020-10-19_12h45.42.065,swahili,2020.2.4,MacIntel,60,,,,,,,,,,,,,,,,,,,,,,,,,,,,,,,,0,0,0,0,1,,,,,,,,,,,,,,,,,,,,,,,,,,,,,,,,,,,,,,,
,,,,,,,,,,1600837,2020-10-19_12h45.42.065,swahili,2020.2.4,MacIntel,60,,,,,,,,,,,,,,,,,,,,,,,,,,,,,,,,1,0,1,0,1,,,,,,,,,,,,,,,,,,,,,,,,,,,,,,,,,,,,,,,
,,,,,,,,,,1600837,2020-10-19_12h45.42.065,swahili,2020.2.4,MacIntel,60,,,,,,,,HAMIRA,YEAST,,,,,,,,,,,,,,,,,,,,,,,,,,,,return,0.93021,return,0.90635,return,5.680395,YAHIRI,incorrect,19.99574,0,0,0,4,1,,,,,,,,,,,,,,,,,,,,,,,,,
,,,,,,,,,,1600837,2020-10-19_12h45.42.065,swahili,2020.2.4,MacIntel,60,,,,,,,,SAHANI,PLATE,,,,,,,,,,,,,,,,,,,,,,,,,,,,,,,,,,SAHANI,correct,6.807675,0,1,1,3,1,,,,,,,,,,,,,,,,,,,,,,,,,
,,,,,,,,,,1600837,2020-10-19_12h45.42.065,swahili,2020.2.4,MacIntel,60,,,,,,,,JIBINI,CHEESE,,,,,,,,,,,,,,,,,,,,,,,,,,,,,,,,,,JIBINI,correct,3.680695,0,2,2,10,1,,,,,,,,,,,,,,,,,,,,,,,,,
,,,,,,,,,,1600837,2020-10-19_12h45.42.065,swahili,2020.2.4,MacIntel,60,,,,,,,,NAFAKA,CORN,,,,,,,,,,,,,,,,,,,,,,,,,,,,,,,,,,NAFAKU,incorrect,5.932085,0,3,3,7,1,,,,,,,,,,,,,,,,,,,,,,,,,
,,,,,,,,,,1600837,2020-10-19_12h45.42.065,swahili,2020.2.4,MacIntel,60,,,,,,,,LAWAMA,BLAME,,,,,,,,,,,,,,,,,,,,,,,,,,,,,,,,,,LAWARA,incorrect,8.447805,0,4,4,5,1,,,,,,,,,,,,,,,,,,,,,,,,,
,,,,,,,,,,1600837,2020-10-19_12h45.42.065,swahili,2020.2.4,MacIntel,60,,,,,,,,TALAKA,DIVORCE,,,,,,,,,,,,,,,,,,,,,,,,,,,,,,,,,,TALAKA,correct,4.462345,0,5,5,17,1,,,,,,,,,,,,,,,,,,,,,,,,,
,,,,,,,,,,1600837,2020-10-19_12h45.42.065,swahili,2020.2.4,MacIntel,60,,,,,,,,WAKILI,AGENT,,,,,,,,,,,,,,,,,,,,,,,,,,,,,,,,,,JIKILI,incorrect,8.297015,0,6,6,14,1,,,,,,,,,,,,,,,,,,,,,,,,,
,,,,,,,,,,1600837,2020-10-19_12h45.42.065,swahili,2020.2.4,MacIntel,60,,,,,,,,YAMINI,OATH,,,,,,,,,,,,,,,,,,,,,,,,,,,,,,,,,,YAMINI,correct,3.846665,0,7,7,6,1,,,,,,,,,,,,,,,,,,,,,,,,,
,,,,,,,,,,1600837,2020-10-19_12h45.42.065,swahili,2020.2.4,MacIntel,60,,,,,,,,DAFINA,TREASURE,,,,,,,,,,,,,,,,,,,,,,,,,,,,,,,,,,TALAKI,incorrect,9.466485,0,8,8,19,1,,,,,,,,,,,,,,,,,,,,,,,,,
,,,,,,,,,,1600837,2020-10-19_12h45.42.065,swahili,2020.2.4,MacIntel,60,,,,,,,,KASUKU,PARROT,,,,,,,,,,,,,,,,,,,,,,,,,,,,,,,,,,SASUMI,incorrect,25.378275,0,9,9,1,1,,,,,,,,,,,,,,,,,,,,,,,,,
,,,,,,,,,,1600837,2020-10-19_12h45.42.065,swahili,2020.2.4,MacIntel,60,,,,,,,,TAJIRI,MERCHANT,,,,,,,,,,,,,,,,,,,,,,,,,,,,,,,,,,TAKILI,incorrect,5.6816,0,10,10,0,1,,,,,,,,,,,,,,,,,,,,,,,,,
,,,,,,,,,,1600837,2020-10-19_12h45.42.065,swahili,2020.2.4,MacIntel,60,,,,,,,,SAMADI,MANURE,,,,,,,,,,,,,,,,,,,,,,,,,,,,,,,,,,SAMADI,correct,3.34773,0,11,11,13,1,,,,,,,,,,,,,,,,,,,,,,,,,
,,,,,,,,,,1600837,2020-10-19_12h45.42.065,swahili,2020.2.4,MacIntel,60,,,,,,,,ZABIBU,GRAPES,,,,,,,,,,,,,,,,,,,,,,,,,,,,,,,,,,JABIBU,incorrect,3.98293,0,12,12,11,1,,,,,,,,,,,,,,,,,,,,,,,,,
,,,,,,,,,,1600837,2020-10-19_12h45.42.065,swahili,2020.2.4,MacIntel,60,,,,,,,,RUSHWA,BRIBE,,,,,,,,,,,,,,,,,,,,,,,,,,,,,,,,,,SHWARI,incorrect,16.23072,0,13,13,15,1,,,,,,,,,,,,,,,,,,,,,,,,,
,,,,,,,,,,1600837,2020-10-19_12h45.42.065,swahili,2020.2.4,MacIntel,60,,,,,,,,MASHUA,BOAT,,,,,,,,,,,,,,,,,,,,,,,,,,,,,,,,,,MASHUA,correct,16.32997,0,14,14,18,1,,,,,,,,,,,,,,,,,,,,,,,,,
,,,,,,,,,,1600837,2020-10-19_12h45.42.065,swahili,2020.2.4,MacIntel,60,,,,,,,,KABURI,GRAVE,,,,,,,,,,,,,,,,,,,,,,,,,,,,,,,,,,KATANI,incorrect,7.58106,0,15,15,12,1,,,,,,,,,,,,,,,,,,,,,,,,,
,,,,,,,,,,1600837,2020-10-19_12h45.42.065,swahili,2020.2.4,MacIntel,60,,,,,,,,FAHILI,BULL,,,,,,,,,,,,,,,,,,,,,,,,,,,,,,,,,,FAJITI,incorrect,9.31402,0,16,16,2,1,,,,,,,,,,,,,,,,,,,,,,,,,
,,,,,,,,,,1600837,2020-10-19_12h45.42.065,swahili,2020.2.4,MacIntel,60,,,,,,,,UTENZI,POEM,,,,,,,,,,,,,,,,,,,,,,,,,,,,,,,,,,OZANI,incorrect,16.61273,0,17,17,8,1,,,,,,,,,,,,,,,,,,,,,,,,,
,,,,,,,,,,1600837,2020-10-19_12h45.42.065,swahili,2020.2.4,MacIntel,60,,,,,,,,MSHONI,TAILOR,,,,,,,,,,,,,,,,,,,,,,,,,,,,,,,,,,MSHONA,incorrect,64.66184,0,18,18,9,1,,,,,,,,,,,,,,,,,,,,,,,,,
,,,,,,,,,,1600837,2020-10-19_12h45.42.065,swahili,2020.2.4,MacIntel,60,,,,,,,,YATIMA,ORPHAN,,,,,,,,,,,,,,,,,,,,,,,,,,,,,,,,,,YATIMA,correct,4.04601,0,19,19,16,1,,,,,,,,,,,,,,,,,,,,,,,,,
,,,,,,,,,,1600837,2020-10-19_12h45.42.065,swahili,2020.2.4,MacIntel,60,,,,,,,,,,,,,,,,,,,,,,,,,,,,,,,,,,,,,,,,,,,,,,,,,,,0,0,0,0,1,I bought all my goods from the ____ at the market. ,TAJIRI,,,,,,,,,,,,,,,,,,
,,,,,,,,,,1600837,2020-10-19_12h45.42.065,swahili,2020.2.4,MacIntel,60,,,,,,,,,,,,,,,,,,,,,,,,,,,,,,,,,,,,,,,,,,,,,,,,,,,0,1,1,1,1,The ____ is a bird that can learn to repeat words.,KASUKU,,,,,,,,,,,,,,,,,,
,,,,,,,,,,1600837,2020-10-19_12h45.42.065,swahili,2020.2.4,MacIntel,60,,,,,,,,,,,,,,,,,,,,,,,,,,,,,,,,,,,,,,,,,,,,,,,,,,,0,2,2,2,1,The ____ charged the matador's red cape. ,FAHILI,,,,,,,,,,,,,,,,,,
,,,,,,,,,,1600837,2020-10-19_12h45.42.065,swahili,2020.2.4,MacIntel,60,,,,,,,,,,,,,,,,,,,,,,,,,,,,,,,,,,,,,,,,,,,,,,,,,,,0,3,3,3,1,I filled my ____ with food at the buffet. ,SAHANI,,,,,,,,,,,,,,,,,,
,,,,,,,,,,1600837,2020-10-19_12h45.42.065,swahili,2020.2.4,MacIntel,60,,,,,,,,,,,,,,,,,,,,,,,,,,,,,,,,,,,,,,,,,,,,,,,,,,,0,4,4,4,1,_____ makes bread rise. ,HAMIRA,,,,,,,,,,,,,,,,,,
,,,,,,,,,,1600837,2020-10-19_12h45.42.065,swahili,2020.2.4,MacIntel,60,,,,,,,,,,,,,,,,,,,,,,,,,,,,,,,,,,,,,,,,,,,,,,,,,,,0,5,5,5,1,Shannon had no one else to  ____ for what happened.,LAWAMA,,,,,,,,,,,,,,,,,,
,,,,,,,,,,1600837,2020-10-19_12h45.42.065,swahili,2020.2.4,MacIntel,60,,,,,,,,,,,,,,,,,,,,,,,,,,,,,,,,,,,,,,,,,,,,,,,,,,,0,6,6,6,1,The president takes the  ____ of office to uphold the Constitution.,YAMINI,,,,,,,,,,,,,,,,,,
,,,,,,,,,,1600837,2020-10-19_12h45.42.065,swahili,2020.2.4,MacIntel,60,,,,,,,,,,,,,,,,,,,,,,,,,,,,,,,,,,,,,,,,,,,,,,,,,,,0,7,7,7,1,Kate doesn't like ____ on the cob because it gets stuck between her teeth. ,NAFAKA,,,,,,,,,,,,,,,,,,
,,,,,,,,,,1600837,2020-10-19_12h45.42.065,swahili,2020.2.4,MacIntel,60,,,,,,,,,,,,,,,,,,,,,,,,,,,,,,,,,,,,,,,,,,,,,,,,,,,0,8,8,8,1,David wrote Cynthia a romantic ____  but she thought it rhymed too much.,UTENZI,,,,,,,,,,,,,,,,,,
,,,,,,,,,,1600837,2020-10-19_12h45.42.065,swahili,2020.2.4,MacIntel,60,,,,,,,,,,,,,,,,,,,,,,,,,,,,,,,,,,,,,,,,,,,,,,,,,,,0,9,9,9,1,Charles went to the ____ to get his suit adjusted. ,MSHONI,,,,,,,,,,,,,,,,,,
,,,,,,,,,,1600837,2020-10-19_12h45.42.065,swahili,2020.2.4,MacIntel,60,,,,,,,,,,,,,,,,,,,,,,,,,,,,,,,,,,,,,,,,,,,,,,,,,,,0,10,10,10,1,Amy cooked a grilled ____ sandwich to go with her tomato soup.,JIBINI,,,,,,,,,,,,,,,,,,
,,,,,,,,,,1600837,2020-10-19_12h45.42.065,swahili,2020.2.4,MacIntel,60,,,,,,,,,,,,,,,,,,,,,,,,,,,,,,,,,,,,,,,,,,,,,,,,,,,0,11,11,11,1,Fermented _______ are used to make wine.,ZABIBU,,,,,,,,,,,,,,,,,,
,,,,,,,,,,1600837,2020-10-19_12h45.42.065,swahili,2020.2.4,MacIntel,60,,,,,,,,,,,,,,,,,,,,,,,,,,,,,,,,,,,,,,,,,,,,,,,,,,,0,12,12,12,1,She visited her father's ___ on the anniversary of his death. ,KABURI,,,,,,,,,,,,,,,,,,
,,,,,,,,,,1600837,2020-10-19_12h45.42.065,swahili,2020.2.4,MacIntel,60,,,,,,,,,,,,,,,,,,,,,,,,,,,,,,,,,,,,,,,,,,,,,,,,,,,0,13,13,13,1,"On a farm, there is a good chance you will step into a pile of ______.",SAMADI,,,,,,,,,,,,,,,,,,
,,,,,,,,,,1600837,2020-10-19_12h45.42.065,swahili,2020.2.4,MacIntel,60,,,,,,,,,,,,,,,,,,,,,,,,,,,,,,,,,,,,,,,,,,,,,,,,,,,0,14,14,14,1,"To buy a house, you may need to speak with a real estate ______.",WAKILI,,,,,,,,,,,,,,,,,,
,,,,,,,,,,1600837,2020-10-19_12h45.42.065,swahili,2020.2.4,MacIntel,60,,,,,,,,,,,,,,,,,,,,,,,,,,,,,,,,,,,,,,,,,,,,,,,,,,,0,15,15,15,1,The politician was arrested for taking a _____.,RUSHWA,,,,,,,,,,,,,,,,,,
,,,,,,,,,,1600837,2020-10-19_12h45.42.065,swahili,2020.2.4,MacIntel,60,,,,,,,,,,,,,,,,,,,,,,,,,,,,,,,,,,,,,,,,,,,,,,,,,,,0,16,16,16,1,The _____ is living with foster parents.,YATIMA,,,,,,,,,,,,,,,,,,
,,,,,,,,,,1600837,2020-10-19_12h45.42.065,swahili,2020.2.4,MacIntel,60,,,,,,,,,,,,,,,,,,,,,,,,,,,,,,,,,,,,,,,,,,,,,,,,,,,0,17,17,17,1,My aunt and uncle got a _________ after two years of marriage.,TALAKA,,,,,,,,,,,,,,,,,,
,,,,,,,,,,1600837,2020-10-19_12h45.42.065,swahili,2020.2.4,MacIntel,60,,,,,,,,,,,,,,,,,,,,,,,,,,,,,,,,,,,,,,,,,,,,,,,,,,,0,18,18,18,1,You need a ______ to go fishing in the middle of a lake.,MASHUA,,,,,,,,,,,,,,,,,,
,,,,,,,,,,1600837,2020-10-19_12h45.42.065,swahili,2020.2.4,MacIntel,60,,,,,,,,,,,,,,,,,,,,,,,,,,,,,,,,,,,,,,,,,,,,,,,,,,,0,19,19,19,1,Pirates looked for buried _________ at the bottom of the sea.,DAFINA,,,,,,,,,,,,,,,,,,
,,,,,,,,,,1600837,2020-10-19_12h45.42.065,swahili,2020.2.4,MacIntel,60,,,,,,,,,,,,,,,,,,,,,,,,,,,,,,,,,,,,,,,,,,,,,,,,,,,,,,,,The politician was arrested for taking a _____.,RUSHWA,return,0.769695,RUSHWA,correct,0.0674014,-0.479797363,1,0,1,4.06756,b,0,0,0,15,1,,
,,,,,,,,,,1600837,2020-10-19_12h45.42.065,swahili,2020.2.4,MacIntel,60,,,,,,,,,,,,,,,,,,,,,,,,,,,,,,,,,,,,,,,,,,,,,,,,,,,,,,,,Kate doesn't like ____ on the cob because it gets stuck between her teeth. ,NAFAKA,,,FAHILI,incorrect,0.0674014,-0.479797363,0,0,1,0.05635,b,0,1,1,7,1,,
,,,,,,,,,,1600837,2020-10-19_12h45.42.065,swahili,2020.2.4,MacIntel,60,,,,,,,,,,,,,,,,,,,,,,,,,,,,,,,,,,,,,,,,,,,,,,,,,,,,,,,,The president takes the  ____ of office to uphold the Constitution.,YAMINI,,,YAMINI,correct,-0.445672813,-0.537668864,1,0,1,6.96581,a,0,2,2,6,1,,
,,,,,,,,,,1600837,2020-10-19_12h45.42.065,swahili,2020.2.4,MacIntel,60,,,,,,,,,,,,,,,,,,,,,,,,,,,,,,,,,,,,,,,,,,,,,,,,,,,,,,,,Shannon had no one else to  ____ for what happened.,LAWAMA,,,LAWAMA,correct,-0.445672813,-0.537668864,0,0,1,0.116815,a,0,3,3,5,1,,
,,,,,,,,,,1600837,2020-10-19_12h45.42.065,swahili,2020.2.4,MacIntel,60,,,,,,,,,,,,,,,,,,,,,,,,,,,,,,,,,,,,,,,,,,,,,,,,,,,,,,,,The ____ charged the matador's red cape. ,FAHILI,,,FAHILI,correct,0.364167734,-0.536295573,1,0,1,3.184835,c,0,4,4,2,1,,
,,,,,,,,,,1600837,2020-10-19_12h45.42.065,swahili,2020.2.4,MacIntel,60,,,,,,,,,,,,,,,,,,,,,,,,,,,,,,,,,,,,,,,,,,,,,,,,,,,,,,,,My aunt and uncle got a _________ after two years of marriage.,TALAKA,,,FAHILI,incorrect,0.364167734,-0.536295573,0,0,1,0.07178,c,0,5,5,17,1,,
,,,,,,,,,,1600837,2020-10-19_12h45.42.065,swahili,2020.2.4,MacIntel,60,,,,,,,,,,,,,,,,,,,,,,,,,,,,,,,,,,,,,,,,,,,,,,,,,,,,,,,,I bought all my goods from the ____ at the market. ,TAJIRI,,,TAJIRI,correct,0.126429813,-0.54703776,1,0,1,2.212735,b,0,6,6,0,1,,
,,,,,,,,,,1600837,2020-10-19_12h45.42.065,swahili,2020.2.4,MacIntel,60,,,,,,,,,,,,,,,,,,,,,,,,,,,,,,,,,,,,,,,,,,,,,,,,,,,,,,,,"On a farm, there is a good chance you will step into a pile of ______.",SAMADI,,,SAMADI,correct,0.126429813,-0.54703776,0,0,1,0.085935,b,0,7,7,13,1,,
,,,,,,,,,,1600837,2020-10-19_12h45.42.065,swahili,2020.2.4,MacIntel,60,,,,,,,,,,,,,,,,,,,,,,,,,,,,,,,,,,,,,,,,,,,,,,,,,,,,,,,,You need a ______ to go fishing in the middle of a lake.,MASHUA,,,MASHUA,correct,0.42218384,-0.47639974,1,0,1,2.597115,c,0,8,8,18,1,,
,,,,,,,,,,1600837,2020-10-19_12h45.42.065,swahili,2020.2.4,MacIntel,60,,,,,,,,,,,,,,,,,,,,,,,,,,,,,,,,,,,,,,,,,,,,,,,,,,,,,,,,I filled my ____ with food at the buffet. ,SAHANI,,,LAWAMA,incorrect,0.42218384,-0.47639974,0,0,1,0.083075,c,0,9,9,3,1,,
,,,,,,,,,,1600837,2020-10-19_12h45.42.065,swahili,2020.2.4,MacIntel,60,,,,,,,,,,,,,,,,,,,,,,,,,,,,,,,,,,,,,,,,,,,,,,,,,,,,,,,,Pirates looked for buried _________ at the bottom of the sea.,DAFINA,,,DAFINA,correct,0.041979319,-0.468149821,1,0,1,1.838245,b,0,10,10,19,1,,
,,,,,,,,,,1600837,2020-10-19_12h45.42.065,swahili,2020.2.4,MacIntel,60,,,,,,,,,,,,,,,,,,,,,,,,,,,,,,,,,,,,,,,,,,,,,,,,,,,,,,,,"To buy a house, you may need to speak with a real estate ______.",WAKILI,,,SAMADI,incorrect,0.041979319,-0.468149821,0,0,1,0.06441,b,0,11,11,14,1,,
,,,,,,,,,,1600837,2020-10-19_12h45.42.065,swahili,2020.2.4,MacIntel,60,,,,,,,,,,,,,,,,,,,,,,,,,,,,,,,,,,,,,,,,,,,,,,,,,,,,,,,,Amy cooked a grilled ____ sandwich to go with her tomato soup.,JIBINI,,,JIBINI,correct,0.449739202,-0.600056966,1,0,1,1.951205,c,0,12,12,10,1,,
,,,,,,,,,,1600837,2020-10-19_12h45.42.065,swahili,2020.2.4,MacIntel,60,,,,,,,,,,,,,,,,,,,,,,,,,,,,,,,,,,,,,,,,,,,,,,,,,,,,,,,,David wrote Cynthia a romantic ____  but she thought it rhymed too much.,UTENZI,,,UTENZI,correct,0.449739202,-0.600056966,0,0,1,0.084325,c,0,13,13,8,1,,
,,,,,,,,,,1600837,2020-10-19_12h45.42.065,swahili,2020.2.4,MacIntel,60,,,,,,,,,,,,,,,,,,,,,,,,,,,,,,,,,,,,,,,,,,,,,,,,,,,,,,,,_____ makes bread rise. ,HAMIRA,,,HAMIRA,correct,0.031587436,-0.450429281,1,0,1,6.70129,b,0,14,14,4,1,,
,,,,,,,,,,1600837,2020-10-19_12h45.42.065,swahili,2020.2.4,MacIntel,60,,,,,,,,,,,,,,,,,,,,,,,,,,,,,,,,,,,,,,,,,,,,,,,,,,,,,,,,Fermented _______ are used to make wine.,ZABIBU,,,SAHANI,incorrect,0.031587436,-0.450429281,0,0,1,0.05531,b,0,15,15,11,1,,
,,,,,,,,,,1600837,2020-10-19_12h45.42.065,swahili,2020.2.4,MacIntel,60,,,,,,,,,,,,,,,,,,,,,,,,,,,,,,,,,,,,,,,,,,,,,,,,,,,,,,,,The _____ is living with foster parents.,YATIMA,,,YATIMA,correct,0.004644034,-0.46568807,1,0,1,1.948085,b,0,16,16,16,1,,
,,,,,,,,,,1600837,2020-10-19_12h45.42.065,swahili,2020.2.4,MacIntel,60,,,,,,,,,,,,,,,,,,,,,,,,,,,,,,,,,,,,,,,,,,,,,,,,,,,,,,,,Charles went to the ____ to get his suit adjusted. ,MSHONI,,,MSHONI,correct,0.004644034,-0.46568807,0,0,1,0.06635,b,0,17,17,9,1,,
,,,,,,,,,,1600837,2020-10-19_12h45.42.065,swahili,2020.2.4,MacIntel,60,,,,,,,,,,,,,,,,,,,,,,,,,,,,,,,,,,,,,,,,,,,,,,,,,,,,,,,,She visited her father's ___ on the anniversary of his death. ,KABURI,,,KABURI,correct,0.550072063,-0.589202881,1,0,1,3.584185,c,0,18,18,12,1,,
,,,,,,,,,,1600837,2020-10-19_12h45.42.065,swahili,2020.2.4,MacIntel,60,,,,,,,,,,,,,,,,,,,,,,,,,,,,,,,,,,,,,,,,,,,,,,,,,,,,,,,,The ____ is a bird that can learn to repeat words.,KASUKU,,,MASHUA,incorrect,0.550072063,-0.589202881,0,0,1,0.078555,c,0,19,19,1,1,,
,,,,,,,,,,1600837,2020-10-19_12h45.42.065,swahili,2020.2.4,MacIntel,60,,,,,,,,,,,,,,,,,,,,,,,,,,,,,,,,,,,,,,,,,,,,,,,,,,,,,,,,,,,,,,,,,,,,,,,,,,return,1.79222
