condition,consent_key.keys,consent_key.rt,done_with_instructions.keys,done_with_instructions.rt,instr_loop.thisRepN,instr_loop.thisTrialN,instr_loop.thisN,instr_loop.thisIndex,instr_loop.ran,Student ID #,date,expName,psychopyVersion,OS,frameRate,instr_learning_key.keys,instr_learning_key.rt,card_gen_loop.thisRepN,card_gen_loop.thisTrialN,card_gen_loop.thisN,card_gen_loop.thisIndex,card_gen_loop.ran,swa,eng,choose_pile.x,choose_pile.y,choose_pile.leftButton,choose_pile.midButton,choose_pile.rightButton,choose_pile.time,choose_pile.clicked_name,choices.thisRepN,choices.thisTrialN,choices.thisN,choices.thisIndex,choices.ran,card_to_show,mouse_pick.x,mouse_pick.y,mouse_pick.leftButton,mouse_pick.midButton,mouse_pick.rightButton,mouse_pick.time,mouse_pick.clicked_name,key_instr_study.keys,key_instr_study.rt,next_study.keys,next_study.rt,study_loop.thisRepN,study_loop.thisTrialN,study_loop.thisN,study_loop.thisIndex,study_loop.ran,key_instr_test.keys,learn_loop.thisRepN,learn_loop.thisTrialN,learn_loop.thisN,learn_loop.thisIndex,learn_loop.ran,trials.thisRepN,trials.thisTrialN,trials.thisN,trials.thisIndex,trials.ran,key_instr_test.rt,duration,yes_or_no.x,yes_or_no.y,yes_or_no.leftButton,yes_or_no.midButton,yes_or_no.rightButton,yes_or_no.time,yes_or_no.clicked_name,test_response.stim,test_response.resp,test_response.eval,test_loop.thisRepN,test_loop.thisTrialN,test_loop.thisN,test_loop.thisIndex,test_loop.ran,instr_movie_key.keys,instr_movie_key.rt,return_to_exp.keys,return_to_exp.rt,instr_assess_key.keys,instr_assess_key.rt,assess_loop.thisRepN,assess_loop.thisTrialN,assess_loop.thisN,assess_loop.thisIndex,assess_loop.ran,ans_gen_loop.thisRepN,ans_gen_loop.thisTrialN,ans_gen_loop.thisN,ans_gen_loop.thisIndex,ans_gen_loop.ran,sen,ans,instr_transfer_key.keys,instr_transfer_key.rt,transfer_response.resp,transfer_response.eval,select_word.x,select_word.y,select_word.leftButton,select_word.midButton,select_word.rightButton,select_word.time,select_word.clicked_name,transfers.thisRepN,transfers.thisTrialN,transfers.thisN,transfers.thisIndex,transfers.ran,end_experiment.keys,end_experiment.rt
1,return,9.80337,return,17.269575,0,0,0,0,1,1602883,2020-10-29_11h25.06.658,swahili,2020.2.4,Win32,60,,,,,,,,,,,,,,,,,,,,,,,,,,,,,,,,,,,,,,,,,,,,,,,,,,,,,,,,,,,,,,,,,,,,,,,,,,,,,,,,,,,,,,,,,,,,,,,,,,,,,,
,,,,,,,,,,1602883,2020-10-29_11h25.06.658,swahili,2020.2.4,Win32,60,return,8.477605,0,0,0,0,1,TAJIRI,MERCHANT,,,,,,,,,,,,,,,,,,,,,,,,,,,,,,,,,,,,,,,,,,,,,,,,,,,,,,,,,,,,,,,,,,,,,,,,,,,,,,,,,,,,,,,,,,,,,
,,,,,,,,,,1602883,2020-10-29_11h25.06.658,swahili,2020.2.4,Win32,60,,,0,1,1,1,1,KASUKU,PARROT,,,,,,,,,,,,,,,,,,,,,,,,,,,,,,,,,,,,,,,,,,,,,,,,,,,,,,,,,,,,,,,,,,,,,,,,,,,,,,,,,,,,,,,,,,,,,
,,,,,,,,,,1602883,2020-10-29_11h25.06.658,swahili,2020.2.4,Win32,60,,,0,2,2,2,1,FAHILI,BULL,,,,,,,,,,,,,,,,,,,,,,,,,,,,,,,,,,,,,,,,,,,,,,,,,,,,,,,,,,,,,,,,,,,,,,,,,,,,,,,,,,,,,,,,,,,,,
,,,,,,,,,,1602883,2020-10-29_11h25.06.658,swahili,2020.2.4,Win32,60,,,0,3,3,3,1,SAHANI,PLATE,,,,,,,,,,,,,,,,,,,,,,,,,,,,,,,,,,,,,,,,,,,,,,,,,,,,,,,,,,,,,,,,,,,,,,,,,,,,,,,,,,,,,,,,,,,,,
,,,,,,,,,,1602883,2020-10-29_11h25.06.658,swahili,2020.2.4,Win32,60,,,0,4,4,4,1,HAMIRA,YEAST,,,,,,,,,,,,,,,,,,,,,,,,,,,,,,,,,,,,,,,,,,,,,,,,,,,,,,,,,,,,,,,,,,,,,,,,,,,,,,,,,,,,,,,,,,,,,
,,,,,,,,,,1602883,2020-10-29_11h25.06.658,swahili,2020.2.4,Win32,60,,,0,5,5,5,1,LAWAMA,BLAME,,,,,,,,,,,,,,,,,,,,,,,,,,,,,,,,,,,,,,,,,,,,,,,,,,,,,,,,,,,,,,,,,,,,,,,,,,,,,,,,,,,,,,,,,,,,,
,,,,,,,,,,1602883,2020-10-29_11h25.06.658,swahili,2020.2.4,Win32,60,,,0,6,6,6,1,YAMINI,OATH,,,,,,,,,,,,,,,,,,,,,,,,,,,,,,,,,,,,,,,,,,,,,,,,,,,,,,,,,,,,,,,,,,,,,,,,,,,,,,,,,,,,,,,,,,,,,
,,,,,,,,,,1602883,2020-10-29_11h25.06.658,swahili,2020.2.4,Win32,60,,,0,7,7,7,1,NAFAKA,CORN,,,,,,,,,,,,,,,,,,,,,,,,,,,,,,,,,,,,,,,,,,,,,,,,,,,,,,,,,,,,,,,,,,,,,,,,,,,,,,,,,,,,,,,,,,,,,
,,,,,,,,,,1602883,2020-10-29_11h25.06.658,swahili,2020.2.4,Win32,60,,,0,8,8,8,1,UTENZI,POEM,,,,,,,,,,,,,,,,,,,,,,,,,,,,,,,,,,,,,,,,,,,,,,,,,,,,,,,,,,,,,,,,,,,,,,,,,,,,,,,,,,,,,,,,,,,,,
,,,,,,,,,,1602883,2020-10-29_11h25.06.658,swahili,2020.2.4,Win32,60,,,0,9,9,9,1,MSHONI,TAILOR,,,,,,,,,,,,,,,,,,,,,,,,,,,,,,,,,,,,,,,,,,,,,,,,,,,,,,,,,,,,,,,,,,,,,,,,,,,,,,,,,,,,,,,,,,,,,
,,,,,,,,,,1602883,2020-10-29_11h25.06.658,swahili,2020.2.4,Win32,60,,,0,10,10,10,1,JIBINI,CHEESE,,,,,,,,,,,,,,,,,,,,,,,,,,,,,,,,,,,,,,,,,,,,,,,,,,,,,,,,,,,,,,,,,,,,,,,,,,,,,,,,,,,,,,,,,,,,,
,,,,,,,,,,1602883,2020-10-29_11h25.06.658,swahili,2020.2.4,Win32,60,,,0,11,11,11,1,ZABIBU,GRAPES,,,,,,,,,,,,,,,,,,,,,,,,,,,,,,,,,,,,,,,,,,,,,,,,,,,,,,,,,,,,,,,,,,,,,,,,,,,,,,,,,,,,,,,,,,,,,
,,,,,,,,,,1602883,2020-10-29_11h25.06.658,swahili,2020.2.4,Win32,60,,,0,12,12,12,1,KABURI,GRAVE,,,,,,,,,,,,,,,,,,,,,,,,,,,,,,,,,,,,,,,,,,,,,,,,,,,,,,,,,,,,,,,,,,,,,,,,,,,,,,,,,,,,,,,,,,,,,
,,,,,,,,,,1602883,2020-10-29_11h25.06.658,swahili,2020.2.4,Win32,60,,,0,13,13,13,1,SAMADI,MANURE,,,,,,,,,,,,,,,,,,,,,,,,,,,,,,,,,,,,,,,,,,,,,,,,,,,,,,,,,,,,,,,,,,,,,,,,,,,,,,,,,,,,,,,,,,,,,
,,,,,,,,,,1602883,2020-10-29_11h25.06.658,swahili,2020.2.4,Win32,60,,,0,14,14,14,1,WAKILI,AGENT,,,,,,,,,,,,,,,,,,,,,,,,,,,,,,,,,,,,,,,,,,,,,,,,,,,,,,,,,,,,,,,,,,,,,,,,,,,,,,,,,,,,,,,,,,,,,
,,,,,,,,,,1602883,2020-10-29_11h25.06.658,swahili,2020.2.4,Win32,60,,,0,15,15,15,1,RUSHWA,BRIBE,,,,,,,,,,,,,,,,,,,,,,,,,,,,,,,,,,,,,,,,,,,,,,,,,,,,,,,,,,,,,,,,,,,,,,,,,,,,,,,,,,,,,,,,,,,,,
,,,,,,,,,,1602883,2020-10-29_11h25.06.658,swahili,2020.2.4,Win32,60,,,0,16,16,16,1,YATIMA,ORPHAN,,,,,,,,,,,,,,,,,,,,,,,,,,,,,,,,,,,,,,,,,,,,,,,,,,,,,,,,,,,,,,,,,,,,,,,,,,,,,,,,,,,,,,,,,,,,,
,,,,,,,,,,1602883,2020-10-29_11h25.06.658,swahili,2020.2.4,Win32,60,,,0,17,17,17,1,TALAKA,DIVORCE,,,,,,,,,,,,,,,,,,,,,,,,,,,,,,,,,,,,,,,,,,,,,,,,,,,,,,,,,,,,,,,,,,,,,,,,,,,,,,,,,,,,,,,,,,,,,
,,,,,,,,,,1602883,2020-10-29_11h25.06.658,swahili,2020.2.4,Win32,60,,,0,18,18,18,1,MASHUA,BOAT,,,,,,,,,,,,,,,,,,,,,,,,,,,,,,,,,,,,,,,,,,,,,,,,,,,,,,,,,,,,,,,,,,,,,,,,,,,,,,,,,,,,,,,,,,,,,
,,,,,,,,,,1602883,2020-10-29_11h25.06.658,swahili,2020.2.4,Win32,60,,,0,19,19,19,1,DAFINA,TREASURE,,,,,,,,,,,,,,,,,,,,,,,,,,,,,,,,,,,,,,,,,,,,,,,,,,,,,,,,,,,,,,,,,,,,,,,,,,,,,,,,,,,,,,,,,,,,,
,,,,,,,,,,1602883,2020-10-29_11h25.06.658,swahili,2020.2.4,Win32,60,,,,,,,,,,-0.361458324,-0.04444446,1,0,0,6.321945,unsorted_card,0,0,0,0,1,,,,,,,,,,,,,,,,,,,,,,,,,,,,,,,,,,,,,,,,,,,,,,,,,,,,,,,,,,,,,,,,,,,,,,,,,,,,,,,,,
,,,,,,,,,,1602883,2020-10-29_11h25.06.658,swahili,2020.2.4,Win32,60,,,,,,,,,,0.480208355,0.594444438,1,0,0,4.32113,study_pile,1,0,1,0,1,MERCHANT - TAJIRI,,,,,,,,,,,,,,,,,,,,,,,,,,,,,,,,,,,,,,,,,,,,,,,,,,,,,,,,,,,,,,,,,,,,,,,,,,,,,,,,
,,,,,,,,,,1602883,2020-10-29_11h25.06.658,swahili,2020.2.4,Win32,60,,,,,,,,,,-0.35937499,-0.035185201,1,0,0,1.01028,unsorted_card,2,0,2,0,1,,,,,,,,,,,,,,,,,,,,,,,,,,,,,,,,,,,,,,,,,,,,,,,,,,,,,,,,,,,,,,,,,,,,,,,,,,,,,,,,,
,,,,,,,,,,1602883,2020-10-29_11h25.06.658,swahili,2020.2.4,Win32,60,,,,,,,,,,0.423958355,0.468518511,1,0,0,1.828405,study_pile,3,0,3,0,1,PARROT - KASUKU,,,,,,,,,,,,,,,,,,,,,,,,,,,,,,,,,,,,,,,,,,,,,,,,,,,,,,,,,,,,,,,,,,,,,,,,,,,,,,,,
,,,,,,,,,,1602883,2020-10-29_11h25.06.658,swahili,2020.2.4,Win32,60,,,,,,,,,,-0.441666658,-0.138888906,1,0,0,0.581025,unsorted_card,4,0,4,0,1,,,,,,,,,,,,,,,,,,,,,,,,,,,,,,,,,,,,,,,,,,,,,,,,,,,,,,,,,,,,,,,,,,,,,,,,,,,,,,,,,
,,,,,,,,,,1602883,2020-10-29_11h25.06.658,swahili,2020.2.4,Win32,60,,,,,,,,,,0.377083354,0.396296231,1,0,0,1.49587,study_pile,5,0,5,0,1,BULL - FAHILI,,,,,,,,,,,,,,,,,,,,,,,,,,,,,,,,,,,,,,,,,,,,,,,,,,,,,,,,,,,,,,,,,,,,,,,,,,,,,,,,
,,,,,,,,,,1602883,2020-10-29_11h25.06.658,swahili,2020.2.4,Win32,60,,,,,,,,,,-0.411458325,-0.355555689,1,0,0,0.62975,unsorted_card,6,0,6,0,1,,,,,,,,,,,,,,,,,,,,,,,,,,,,,,,,,,,,,,,,,,,,,,,,,,,,,,,,,,,,,,,,,,,,,,,,,,,,,,,,,
,,,,,,,,,,1602883,2020-10-29_11h25.06.658,swahili,2020.2.4,Win32,60,,,,,,,,,,0.442708355,0.503703696,1,0,0,1.313775,study_pile,7,0,7,0,1,PLATE - SAHANI,,,,,,,,,,,,,,,,,,,,,,,,,,,,,,,,,,,,,,,,,,,,,,,,,,,,,,,,,,,,,,,,,,,,,,,,,,,,,,,,
,,,,,,,,,,1602883,2020-10-29_11h25.06.658,swahili,2020.2.4,Win32,60,,,,,,,,,,-0.382291657,-0.064814831,1,0,0,0.546525,unsorted_card,8,0,8,0,1,,,,,,,,,,,,,,,,,,,,,,,,,,,,,,,,,,,,,,,,,,,,,,,,,,,,,,,,,,,,,,,,,,,,,,,,,,,,,,,,,
,,,,,,,,,,1602883,2020-10-29_11h25.06.658,swahili,2020.2.4,Win32,60,,,,,,,,,,0.426041815,0.542592586,1,0,0,0.980075,study_pile,9,0,9,0,1,YEAST - HAMIRA,,,,,,,,,,,,,,,,,,,,,,,,,,,,,,,,,,,,,,,,,,,,,,,,,,,,,,,,,,,,,,,,,,,,,,,,,,,,,,,,
,,,,,,,,,,1602883,2020-10-29_11h25.06.658,swahili,2020.2.4,Win32,60,,,,,,,,,,-0.466666659,-0.085185201,1,0,0,0.513015,unsorted_card,10,0,10,0,1,,,,,,,,,,,,,,,,,,,,,,,,,,,,,,,,,,,,,,,,,,,,,,,,,,,,,,,,,,,,,,,,,,,,,,,,,,,,,,,,,
,,,,,,,,,,1602883,2020-10-29_11h25.06.658,swahili,2020.2.4,Win32,60,,,,,,,,,,0.390625021,0.437037029,1,0,0,1.129715,study_pile,11,0,11,0,1,BLAME - LAWAMA,,,,,,,,,,,,,,,,,,,,,,,,,,,,,,,,,,,,,,,,,,,,,,,,,,,,,,,,,,,,,,,,,,,,,,,,,,,,,,,,
,,,,,,,,,,1602883,2020-10-29_11h25.06.658,swahili,2020.2.4,Win32,60,,,,,,,,,,-0.316666656,-0.031481497,1,0,0,0.513575,unsorted_card,12,0,12,0,1,,,,,,,,,,,,,,,,,,,,,,,,,,,,,,,,,,,,,,,,,,,,,,,,,,,,,,,,,,,,,,,,,,,,,,,,,,,,,,,,,
,,,,,,,,,,1602883,2020-10-29_11h25.06.658,swahili,2020.2.4,Win32,60,,,,,,,,,,0.485416689,0.483333326,1,0,0,1.0807,study_pile,13,0,13,0,1,OATH - YAMINI,,,,,,,,,,,,,,,,,,,,,,,,,,,,,,,,,,,,,,,,,,,,,,,,,,,,,,,,,,,,,,,,,,,,,,,,,,,,,,,,
,,,,,,,,,,1602883,2020-10-29_11h25.06.658,swahili,2020.2.4,Win32,60,,,,,,,,,,-0.32812499,-0.005555571,1,0,0,0.563865,unsorted_card,14,0,14,0,1,,,,,,,,,,,,,,,,,,,,,,,,,,,,,,,,,,,,,,,,,,,,,,,,,,,,,,,,,,,,,,,,,,,,,,,,,,,,,,,,,
,,,,,,,,,,1602883,2020-10-29_11h25.06.658,swahili,2020.2.4,Win32,60,,,,,,,,,,0.363541814,0.385185176,1,0,0,0.963785,study_pile,15,0,15,0,1,CORN - NAFAKA,,,,,,,,,,,,,,,,,,,,,,,,,,,,,,,,,,,,,,,,,,,,,,,,,,,,,,,,,,,,,,,,,,,,,,,,,,,,,,,,
,,,,,,,,,,1602883,2020-10-29_11h25.06.658,swahili,2020.2.4,Win32,60,,,,,,,,,,-0.297916656,0.027777763,1,0,0,0.44669,unsorted_card,16,0,16,0,1,,,,,,,,,,,,,,,,,,,,,,,,,,,,,,,,,,,,,,,,,,,,,,,,,,,,,,,,,,,,,,,,,,,,,,,,,,,,,,,,,
,,,,,,,,,,1602883,2020-10-29_11h25.06.658,swahili,2020.2.4,Win32,60,,,,,,,,,,0.405208481,0.535185178,1,0,0,0.93015,study_pile,17,0,17,0,1,POEM - UTENZI,,,,,,,,,,,,,,,,,,,,,,,,,,,,,,,,,,,,,,,,,,,,,,,,,,,,,,,,,,,,,,,,,,,,,,,,,,,,,,,,
,,,,,,,,,,1602883,2020-10-29_11h25.06.658,swahili,2020.2.4,Win32,60,,,,,,,,,,-0.372916657,0.007407393,1,0,0,0.480045,unsorted_card,18,0,18,0,1,,,,,,,,,,,,,,,,,,,,,,,,,,,,,,,,,,,,,,,,,,,,,,,,,,,,,,,,,,,,,,,,,,,,,,,,,,,,,,,,,
,,,,,,,,,,1602883,2020-10-29_11h25.06.658,swahili,2020.2.4,Win32,60,,,,,,,,,,0.426041815,0.522222215,1,0,0,1.263945,study_pile,19,0,19,0,1,TAILOR - MSHONI,,,,,,,,,,,,,,,,,,,,,,,,,,,,,,,,,,,,,,,,,,,,,,,,,,,,,,,,,,,,,,,,,,,,,,,,,,,,,,,,
,,,,,,,,,,1602883,2020-10-29_11h25.06.658,swahili,2020.2.4,Win32,60,,,,,,,,,,-0.368749991,-0.109259276,1,0,0,0.54707,unsorted_card,20,0,20,0,1,,,,,,,,,,,,,,,,,,,,,,,,,,,,,,,,,,,,,,,,,,,,,,,,,,,,,,,,,,,,,,,,,,,,,,,,,,,,,,,,,
,,,,,,,,,,1602883,2020-10-29_11h25.06.658,swahili,2020.2.4,Win32,60,,,,,,,,,,0.381250021,0.487037029,1,0,0,1.04749,study_pile,21,0,21,0,1,CHEESE - JIBINI,,,,,,,,,,,,,,,,,,,,,,,,,,,,,,,,,,,,,,,,,,,,,,,,,,,,,,,,,,,,,,,,,,,,,,,,,,,,,,,,
,,,,,,,,,,1602883,2020-10-29_11h25.06.658,swahili,2020.2.4,Win32,60,,,,,,,,,,-0.305208259,-0.062962979,1,0,0,0.446625,unsorted_card,22,0,22,0,1,,,,,,,,,,,,,,,,,,,,,,,,,,,,,,,,,,,,,,,,,,,,,,,,,,,,,,,,,,,,,,,,,,,,,,,,,,,,,,,,,
,,,,,,,,,,1602883,2020-10-29_11h25.06.658,swahili,2020.2.4,Win32,60,,,,,,,,,,0.487500022,0.47777777,1,0,0,0.912845,study_pile,23,0,23,0,1,GRAPES - ZABIBU,,,,,,,,,,,,,,,,,,,,,,,,,,,,,,,,,,,,,,,,,,,,,,,,,,,,,,,,,,,,,,,,,,,,,,,,,,,,,,,,
,,,,,,,,,,1602883,2020-10-29_11h25.06.658,swahili,2020.2.4,Win32,60,,,,,,,,,,-0.33749999,-0.146296313,1,0,0,0.53057,unsorted_card,24,0,24,0,1,,,,,,,,,,,,,,,,,,,,,,,,,,,,,,,,,,,,,,,,,,,,,,,,,,,,,,,,,,,,,,,,,,,,,,,,,,,,,,,,,
,,,,,,,,,,1602883,2020-10-29_11h25.06.658,swahili,2020.2.4,Win32,60,,,,,,,,,,0.435416688,0.520370363,1,0,0,1.112965,study_pile,25,0,25,0,1,GRAVE - KABURI,,,,,,,,,,,,,,,,,,,,,,,,,,,,,,,,,,,,,,,,,,,,,,,,,,,,,,,,,,,,,,,,,,,,,,,,,,,,,,,,
,,,,,,,,,,1602883,2020-10-29_11h25.06.658,swahili,2020.2.4,Win32,60,,,,,,,,,,-0.336458323,0.059259245,1,0,0,0.547595,unsorted_card,26,0,26,0,1,,,,,,,,,,,,,,,,,,,,,,,,,,,,,,,,,,,,,,,,,,,,,,,,,,,,,,,,,,,,,,,,,,,,,,,,,,,,,,,,,
,,,,,,,,,,1602883,2020-10-29_11h25.06.658,swahili,2020.2.4,Win32,60,,,,,,,,,,0.506250022,0.520370363,1,0,0,1.09712,study_pile,27,0,27,0,1,MANURE - SAMADI,,,,,,,,,,,,,,,,,,,,,,,,,,,,,,,,,,,,,,,,,,,,,,,,,,,,,,,,,,,,,,,,,,,,,,,,,,,,,,,,
,,,,,,,,,,1602883,2020-10-29_11h25.06.658,swahili,2020.2.4,Win32,60,,,,,,,,,,-0.314583323,-1.4912E-08,1,0,0,0.54806,unsorted_card,28,0,28,0,1,,,,,,,,,,,,,,,,,,,,,,,,,,,,,,,,,,,,,,,,,,,,,,,,,,,,,,,,,,,,,,,,,,,,,,,,,,,,,,,,,
,,,,,,,,,,1602883,2020-10-29_11h25.06.658,swahili,2020.2.4,Win32,60,,,,,,,,,,0.412500021,0.512962956,1,0,0,1.01507,study_pile,29,0,29,0,1,AGENT - WAKILI,,,,,,,,,,,,,,,,,,,,,,,,,,,,,,,,,,,,,,,,,,,,,,,,,,,,,,,,,,,,,,,,,,,,,,,,,,,,,,,,
,,,,,,,,,,1602883,2020-10-29_11h25.06.658,swahili,2020.2.4,Win32,60,,,,,,,,,,-0.362499991,-0.011111126,1,0,0,0.4795,unsorted_card,30,0,30,0,1,,,,,,,,,,,,,,,,,,,,,,,,,,,,,,,,,,,,,,,,,,,,,,,,,,,,,,,,,,,,,,,,,,,,,,,,,,,,,,,,,
,,,,,,,,,,1602883,2020-10-29_11h25.06.658,swahili,2020.2.4,Win32,60,,,,,,,,,,0.386458354,0.472222214,1,0,0,1.16308,study_pile,31,0,31,0,1,BRIBE - RUSHWA,,,,,,,,,,,,,,,,,,,,,,,,,,,,,,,,,,,,,,,,,,,,,,,,,,,,,,,,,,,,,,,,,,,,,,,,,,,,,,,,
,,,,,,,,,,1602883,2020-10-29_11h25.06.658,swahili,2020.2.4,Win32,60,,,,,,,,,,-0.298958323,-0.092592609,1,0,0,0.481195,unsorted_card,32,0,32,0,1,,,,,,,,,,,,,,,,,,,,,,,,,,,,,,,,,,,,,,,,,,,,,,,,,,,,,,,,,,,,,,,,,,,,,,,,,,,,,,,,,
,,,,,,,,,,1602883,2020-10-29_11h25.06.658,swahili,2020.2.4,Win32,60,,,,,,,,,,0.372916687,0.370370361,1,0,0,1.16372,study_pile,33,0,33,0,1,ORPHAN - YATIMA,,,,,,,,,,,,,,,,,,,,,,,,,,,,,,,,,,,,,,,,,,,,,,,,,,,,,,,,,,,,,,,,,,,,,,,,,,,,,,,,
,,,,,,,,,,1602883,2020-10-29_11h25.06.658,swahili,2020.2.4,Win32,60,,,,,,,,,,-0.269791656,-0.059259275,1,0,0,0.546725,unsorted_card,34,0,34,0,1,,,,,,,,,,,,,,,,,,,,,,,,,,,,,,,,,,,,,,,,,,,,,,,,,,,,,,,,,,,,,,,,,,,,,,,,,,,,,,,,,
,,,,,,,,,,1602883,2020-10-29_11h25.06.658,swahili,2020.2.4,Win32,60,,,,,,,,,,0.378125021,0.438888881,1,0,0,1.01443,study_pile,35,0,35,0,1,DIVORCE - TALAKA,,,,,,,,,,,,,,,,,,,,,,,,,,,,,,,,,,,,,,,,,,,,,,,,,,,,,,,,,,,,,,,,,,,,,,,,,,,,,,,,
,,,,,,,,,,1602883,2020-10-29_11h25.06.658,swahili,2020.2.4,Win32,60,,,,,,,,,,-0.269791656,0.001851837,1,0,0,0.545775,unsorted_card,36,0,36,0,1,,,,,,,,,,,,,,,,,,,,,,,,,,,,,,,,,,,,,,,,,,,,,,,,,,,,,,,,,,,,,,,,,,,,,,,,,,,,,,,,,
,,,,,,,,,,1602883,2020-10-29_11h25.06.658,swahili,2020.2.4,Win32,60,,,,,,,,,,0.465625022,0.44814814,1,0,0,0.93583,study_pile,37,0,37,0,1,BOAT - MASHUA,,,,,,,,,,,,,,,,,,,,,,,,,,,,,,,,,,,,,,,,,,,,,,,,,,,,,,,,,,,,,,,,,,,,,,,,,,,,,,,,
,,,,,,,,,,1602883,2020-10-29_11h25.06.658,swahili,2020.2.4,Win32,60,,,,,,,,,,-0.283333323,0.033333319,1,0,0,0.47479,unsorted_card,38,0,38,0,1,,,,,,,,,,,,,,,,,,,,,,,,,,,,,,,,,,,,,,,,,,,,,,,,,,,,,,,,,,,,,,,,,,,,,,,,,,,,,,,,,
,,,,,,,,,,1602883,2020-10-29_11h25.06.658,swahili,2020.2.4,Win32,60,,,,,,,,,,0.413541688,0.420370362,1,0,0,0.99716,study_pile,39,0,39,0,1,TREASURE - DAFINA,,,,,,,,,,,,,,,,,,,,,,,,,,,,,,,,,,,,,,,,,,,,,,,,,,,,,,,,,,,,,,,,,,,,,,,,,,,,,,,,
,,,,,,,,,,1602883,2020-10-29_11h25.06.658,swahili,2020.2.4,Win32,60,,,,,,,,,,,,,,,,,,,,,,BULL - FAHILI,,,,,,,,return,2.82237,return,2.61641,0,0,0,0,1,,,,,,,,,,,,,,,,,,,,,,,,,,,,,,,,,,,,,,,,,,,,,,,,,,,,,,,,,,,,,,,,
,,,,,,,,,,1602883,2020-10-29_11h25.06.658,swahili,2020.2.4,Win32,60,,,,,,,,,,,,,,,,,,,,,,BRIBE - RUSHWA,,,,,,,,,,return,2.952515,1,0,1,0,1,,,,,,,,,,,,,,,,,,,,,,,,,,,,,,,,,,,,,,,,,,,,,,,,,,,,,,,,,,,,,,,,
,,,,,,,,,,1602883,2020-10-29_11h25.06.658,swahili,2020.2.4,Win32,60,,,,,,,,,,,,,,,,,,,,,,AGENT - WAKILI,,,,,,,,,,return,1.684645,2,0,2,0,1,,,,,,,,,,,,,,,,,,,,,,,,,,,,,,,,,,,,,,,,,,,,,,,,,,,,,,,,,,,,,,,,
,,,,,,,,,,1602883,2020-10-29_11h25.06.658,swahili,2020.2.4,Win32,60,,,,,,,,,,,,,,,,,,,,,,PARROT - KASUKU,,,,,,,,,,return,1.11765,3,0,3,0,1,,,,,,,,,,,,,,,,,,,,,,,,,,,,,,,,,,,,,,,,,,,,,,,,,,,,,,,,,,,,,,,,
,,,,,,,,,,1602883,2020-10-29_11h25.06.658,swahili,2020.2.4,Win32,60,,,,,,,,,,,,,,,,,,,,,,POEM - UTENZI,,,,,,,,,,return,1.25164,4,0,4,0,1,,,,,,,,,,,,,,,,,,,,,,,,,,,,,,,,,,,,,,,,,,,,,,,,,,,,,,,,,,,,,,,,
,,,,,,,,,,1602883,2020-10-29_11h25.06.658,swahili,2020.2.4,Win32,60,,,,,,,,,,,,,,,,,,,,,,BOAT - MASHUA,,,,,,,,,,return,0.97112,5,0,5,0,1,,,,,,,,,,,,,,,,,,,,,,,,,,,,,,,,,,,,,,,,,,,,,,,,,,,,,,,,,,,,,,,,
,,,,,,,,,,1602883,2020-10-29_11h25.06.658,swahili,2020.2.4,Win32,60,,,,,,,,,,,,,,,,,,,,,,DIVORCE - TALAKA,,,,,,,,,,return,1.36221,6,0,6,0,1,,,,,,,,,,,,,,,,,,,,,,,,,,,,,,,,,,,,,,,,,,,,,,,,,,,,,,,,,,,,,,,,
,,,,,,,,,,1602883,2020-10-29_11h25.06.658,swahili,2020.2.4,Win32,60,,,,,,,,,,,,,,,,,,,,,,ORPHAN - YATIMA,,,,,,,,,,return,1.06887,7,0,7,0,1,,,,,,,,,,,,,,,,,,,,,,,,,,,,,,,,,,,,,,,,,,,,,,,,,,,,,,,,,,,,,,,,
,,,,,,,,,,1602883,2020-10-29_11h25.06.658,swahili,2020.2.4,Win32,60,,,,,,,,,,,,,,,,,,,,,,GRAVE - KABURI,,,,,,,,,,return,0.851055,8,0,8,0,1,,,,,,,,,,,,,,,,,,,,,,,,,,,,,,,,,,,,,,,,,,,,,,,,,,,,,,,,,,,,,,,,
,,,,,,,,,,1602883,2020-10-29_11h25.06.658,swahili,2020.2.4,Win32,60,,,,,,,,,,,,,,,,,,,,,,MANURE - SAMADI,,,,,,,,,,return,1.71741,9,0,9,0,1,,,,,,,,,,,,,,,,,,,,,,,,,,,,,,,,,,,,,,,,,,,,,,,,,,,,,,,,,,,,,,,,
,,,,,,,,,,1602883,2020-10-29_11h25.06.658,swahili,2020.2.4,Win32,60,,,,,,,,,,,,,,,,,,,,,,TAILOR - MSHONI,,,,,,,,,,return,1.50047,10,0,10,0,1,,,,,,,,,,,,,,,,,,,,,,,,,,,,,,,,,,,,,,,,,,,,,,,,,,,,,,,,,,,,,,,,
,,,,,,,,,,1602883,2020-10-29_11h25.06.658,swahili,2020.2.4,Win32,60,,,,,,,,,,,,,,,,,,,,,,CORN - NAFAKA,,,,,,,,,,return,1.25139,11,0,11,0,1,,,,,,,,,,,,,,,,,,,,,,,,,,,,,,,,,,,,,,,,,,,,,,,,,,,,,,,,,,,,,,,,
,,,,,,,,,,1602883,2020-10-29_11h25.06.658,swahili,2020.2.4,Win32,60,,,,,,,,,,,,,,,,,,,,,,YEAST - HAMIRA,,,,,,,,,,return,1.059775,12,0,12,0,1,,,,,,,,,,,,,,,,,,,,,,,,,,,,,,,,,,,,,,,,,,,,,,,,,,,,,,,,,,,,,,,,
,,,,,,,,,,1602883,2020-10-29_11h25.06.658,swahili,2020.2.4,Win32,60,,,,,,,,,,,,,,,,,,,,,,CHEESE - JIBINI,,,,,,,,,,return,1.41734,13,0,13,0,1,,,,,,,,,,,,,,,,,,,,,,,,,,,,,,,,,,,,,,,,,,,,,,,,,,,,,,,,,,,,,,,,
,,,,,,,,,,1602883,2020-10-29_11h25.06.658,swahili,2020.2.4,Win32,60,,,,,,,,,,,,,,,,,,,,,,OATH - YAMINI,,,,,,,,,,return,1.042185,14,0,14,0,1,,,,,,,,,,,,,,,,,,,,,,,,,,,,,,,,,,,,,,,,,,,,,,,,,,,,,,,,,,,,,,,,
,,,,,,,,,,1602883,2020-10-29_11h25.06.658,swahili,2020.2.4,Win32,60,,,,,,,,,,,,,,,,,,,,,,GRAPES - ZABIBU,,,,,,,,,,return,0.983825,15,0,15,0,1,,,,,,,,,,,,,,,,,,,,,,,,,,,,,,,,,,,,,,,,,,,,,,,,,,,,,,,,,,,,,,,,
,,,,,,,,,,1602883,2020-10-29_11h25.06.658,swahili,2020.2.4,Win32,60,,,,,,,,,,,,,,,,,,,,,,PLATE - SAHANI,,,,,,,,,,return,0.65832,16,0,16,0,1,,,,,,,,,,,,,,,,,,,,,,,,,,,,,,,,,,,,,,,,,,,,,,,,,,,,,,,,,,,,,,,,
,,,,,,,,,,1602883,2020-10-29_11h25.06.658,swahili,2020.2.4,Win32,60,,,,,,,,,,,,,,,,,,,,,,MERCHANT - TAJIRI,,,,,,,,,,return,0.734935,17,0,17,0,1,,,,,,,,,,,,,,,,,,,,,,,,,,,,,,,,,,,,,,,,,,,,,,,,,,,,,,,,,,,,,,,,
,,,,,,,,,,1602883,2020-10-29_11h25.06.658,swahili,2020.2.4,Win32,60,,,,,,,,,,,,,,,,,,,,,,BLAME - LAWAMA,,,,,,,,,,return,0.636185,18,0,18,0,1,,,,,,,,,,,,,,,,,,,,,,,,,,,,,,,,,,,,,,,,,,,,,,,,,,,,,,,,,,,,,,,,
,,,,,,,,,,1602883,2020-10-29_11h25.06.658,swahili,2020.2.4,Win32,60,,,,,,,,,,,,,,,,,,,,,,TREASURE - DAFINA,,,,,,,,,,return,0.545835,19,0,19,0,1,,,,,,,,,,,,,,,,,,,,,,,,,,,,,,,,,,,,,,,,,,,,,,,,,,,,,,,,,,,,,,,,
,,,,,,,,,,1602883,2020-10-29_11h25.06.658,swahili,2020.2.4,Win32,60,,,,,,,,,,,,,,,,,,,,,,,,,,,,,,,,,,,,,,,,0,0,0,0,1,,,,,,,,,,,,,,,,,,,,,,,,,,,,,,,,,,,,,,,,,,,,,,,,,,,,,,,,,,
,,,,,,,,,,1602883,2020-10-29_11h25.06.658,swahili,2020.2.4,Win32,60,,,,,,,,,,,,,,,,,,,,,,,,,,,,,,,,,,,,,,,,1,0,1,0,1,,,,,,,,,,,,,,,,,,,,,,,,,,,,,,,,,,,,,,,,,,,,,,,,,,,,,,,,,,
,,,,,,,,,,1602883,2020-10-29_11h25.06.658,swahili,2020.2.4,Win32,60,,,,,,,,,,,,,,,,,,,,,,,,,,,,,,,,,,,,,,,,,,,,,0,0,0,0,1,,,,,,,,,,,,,,,,,,,,,,,,,,,,,,,,,,,,,,,,,,,,,,,,,,,,,
,,,,,,,,,,1602883,2020-10-29_11h25.06.658,swahili,2020.2.4,Win32,60,,,,,,,,,,-0.187499988,0.120370357,1,0,0,2.585915,unsorted_card,0,0,0,0,1,,,,,,,,,,,,,,,,,,,,,,,,,,,,,,,,,,,,,,,,,,,,,,,,,,,,,,,,,,,,,,,,,,,,,,,,,,,,,,,,,
,,,,,,,,,,1602883,2020-10-29_11h25.06.658,swahili,2020.2.4,Win32,60,,,,,,,,,,0.461458355,0.033333319,1,0,0,1.179965,test_pile,1,0,1,0,1,MERCHANT - TAJIRI,,,,,,,,,,,,,,,,,,,,,,,,,,,,,,,,,,,,,,,,,,,,,,,,,,,,,,,,,,,,,,,,,,,,,,,,,,,,,,,,
,,,,,,,,,,1602883,2020-10-29_11h25.06.658,swahili,2020.2.4,Win32,60,,,,,,,,,,-0.271874989,-0.01481483,1,0,0,0.47964,unsorted_card,2,0,2,0,1,,,,,,,,,,,,,,,,,,,,,,,,,,,,,,,,,,,,,,,,,,,,,,,,,,,,,,,,,,,,,,,,,,,,,,,,,,,,,,,,,
,,,,,,,,,,1602883,2020-10-29_11h25.06.658,swahili,2020.2.4,Win32,60,,,,,,,,,,0.526041689,0.020370356,1,0,0,2.913225,test_pile,3,0,3,0,1,PARROT - KASUKU,,,,,,,,,,,,,,,,,,,,,,,,,,,,,,,,,,,,,,,,,,,,,,,,,,,,,,,,,,,,,,,,,,,,,,,,,,,,,,,,
,,,,,,,,,,1602883,2020-10-29_11h25.06.658,swahili,2020.2.4,Win32,60,,,,,,,,,,-0.516666659,0.061111097,1,0,0,0.4861,unsorted_card,4,0,4,0,1,,,,,,,,,,,,,,,,,,,,,,,,,,,,,,,,,,,,,,,,,,,,,,,,,,,,,,,,,,,,,,,,,,,,,,,,,,,,,,,,,
,,,,,,,,,,1602883,2020-10-29_11h25.06.658,swahili,2020.2.4,Win32,60,,,,,,,,,,0.473958355,0.007407393,1,0,0,0.876165,test_pile,5,0,5,0,1,BULL - FAHILI,,,,,,,,,,,,,,,,,,,,,,,,,,,,,,,,,,,,,,,,,,,,,,,,,,,,,,,,,,,,,,,,,,,,,,,,,,,,,,,,
,,,,,,,,,,1602883,2020-10-29_11h25.06.658,swahili,2020.2.4,Win32,60,,,,,,,,,,-0.277083323,0.129629617,1,0,0,0.4641,unsorted_card,6,0,6,0,1,,,,,,,,,,,,,,,,,,,,,,,,,,,,,,,,,,,,,,,,,,,,,,,,,,,,,,,,,,,,,,,,,,,,,,,,,,,,,,,,,
,,,,,,,,,,1602883,2020-10-29_11h25.06.658,swahili,2020.2.4,Win32,60,,,,,,,,,,0.427083355,0.018518504,1,0,0,0.630435,test_pile,7,0,7,0,1,PLATE - SAHANI,,,,,,,,,,,,,,,,,,,,,,,,,,,,,,,,,,,,,,,,,,,,,,,,,,,,,,,,,,,,,,,,,,,,,,,,,,,,,,,,
,,,,,,,,,,1602883,2020-10-29_11h25.06.658,swahili,2020.2.4,Win32,60,,,,,,,,,,-0.253124925,0.046296282,1,0,0,0.38092,unsorted_card,8,0,8,0,1,,,,,,,,,,,,,,,,,,,,,,,,,,,,,,,,,,,,,,,,,,,,,,,,,,,,,,,,,,,,,,,,,,,,,,,,,,,,,,,,,
,,,,,,,,,,1602883,2020-10-29_11h25.06.658,swahili,2020.2.4,Win32,60,,,,,,,,,,0.460416688,-0.038888904,1,0,0,0.631165,test_pile,9,0,9,0,1,YEAST - HAMIRA,,,,,,,,,,,,,,,,,,,,,,,,,,,,,,,,,,,,,,,,,,,,,,,,,,,,,,,,,,,,,,,,,,,,,,,,,,,,,,,,
,,,,,,,,,,1602883,2020-10-29_11h25.06.658,swahili,2020.2.4,Win32,60,,,,,,,,,,-0.405208324,-0.04444446,1,0,0,0.43042,unsorted_card,10,0,10,0,1,,,,,,,,,,,,,,,,,,,,,,,,,,,,,,,,,,,,,,,,,,,,,,,,,,,,,,,,,,,,,,,,,,,,,,,,,,,,,,,,,
,,,,,,,,,,1602883,2020-10-29_11h25.06.658,swahili,2020.2.4,Win32,60,,,,,,,,,,0.466666689,0.018518504,1,0,0,0.697835,test_pile,11,0,11,0,1,BLAME - LAWAMA,,,,,,,,,,,,,,,,,,,,,,,,,,,,,,,,,,,,,,,,,,,,,,,,,,,,,,,,,,,,,,,,,,,,,,,,,,,,,,,,
,,,,,,,,,,1602883,2020-10-29_11h25.06.658,swahili,2020.2.4,Win32,60,,,,,,,,,,-0.330208323,0.066666653,1,0,0,0.44612,unsorted_card,12,0,12,0,1,,,,,,,,,,,,,,,,,,,,,,,,,,,,,,,,,,,,,,,,,,,,,,,,,,,,,,,,,,,,,,,,,,,,,,,,,,,,,,,,,
,,,,,,,,,,1602883,2020-10-29_11h25.06.658,swahili,2020.2.4,Win32,60,,,,,,,,,,0.432291688,-0.046296312,1,0,0,0.68086,test_pile,13,0,13,0,1,OATH - YAMINI,,,,,,,,,,,,,,,,,,,,,,,,,,,,,,,,,,,,,,,,,,,,,,,,,,,,,,,,,,,,,,,,,,,,,,,,,,,,,,,,
,,,,,,,,,,1602883,2020-10-29_11h25.06.658,swahili,2020.2.4,Win32,60,,,,,,,,,,-0.301041656,0.0148148,1,0,0,0.51566,unsorted_card,14,0,14,0,1,,,,,,,,,,,,,,,,,,,,,,,,,,,,,,,,,,,,,,,,,,,,,,,,,,,,,,,,,,,,,,,,,,,,,,,,,,,,,,,,,
,,,,,,,,,,1602883,2020-10-29_11h25.06.658,swahili,2020.2.4,Win32,60,,,,,,,,,,0.397916687,-0.01481483,1,0,0,1.229415,test_pile,15,0,15,0,1,CORN - NAFAKA,,,,,,,,,,,,,,,,,,,,,,,,,,,,,,,,,,,,,,,,,,,,,,,,,,,,,,,,,,,,,,,,,,,,,,,,,,,,,,,,
,,,,,,,,,,1602883,2020-10-29_11h25.06.658,swahili,2020.2.4,Win32,60,,,,,,,,,,-0.355208324,-0.029629645,1,0,0,0.447825,unsorted_card,16,0,16,0,1,,,,,,,,,,,,,,,,,,,,,,,,,,,,,,,,,,,,,,,,,,,,,,,,,,,,,,,,,,,,,,,,,,,,,,,,,,,,,,,,,
,,,,,,,,,,1602883,2020-10-29_11h25.06.658,swahili,2020.2.4,Win32,60,,,,,,,,,,0.471875022,-0.057407423,1,0,0,0.8132,test_pile,17,0,17,0,1,POEM - UTENZI,,,,,,,,,,,,,,,,,,,,,,,,,,,,,,,,,,,,,,,,,,,,,,,,,,,,,,,,,,,,,,,,,,,,,,,,,,,,,,,,
,,,,,,,,,,1602883,2020-10-29_11h25.06.658,swahili,2020.2.4,Win32,60,,,,,,,,,,-0.315624926,0.0148148,1,0,0,0.480635,unsorted_card,18,0,18,0,1,,,,,,,,,,,,,,,,,,,,,,,,,,,,,,,,,,,,,,,,,,,,,,,,,,,,,,,,,,,,,,,,,,,,,,,,,,,,,,,,,
,,,,,,,,,,1602883,2020-10-29_11h25.06.658,swahili,2020.2.4,Win32,60,,,,,,,,,,0.447916688,0.040740726,1,0,0,1.36396,test_pile,19,0,19,0,1,TAILOR - MSHONI,,,,,,,,,,,,,,,,,,,,,,,,,,,,,,,,,,,,,,,,,,,,,,,,,,,,,,,,,,,,,,,,,,,,,,,,,,,,,,,,
,,,,,,,,,,1602883,2020-10-29_11h25.06.658,swahili,2020.2.4,Win32,60,,,,,,,,,,-0.407291658,0.011111096,1,0,0,0.45314,unsorted_card,20,0,20,0,1,,,,,,,,,,,,,,,,,,,,,,,,,,,,,,,,,,,,,,,,,,,,,,,,,,,,,,,,,,,,,,,,,,,,,,,,,,,,,,,,,
,,,,,,,,,,1602883,2020-10-29_11h25.06.658,swahili,2020.2.4,Win32,60,,,,,,,,,,0.400000148,0.049999986,1,0,0,0.9915,test_pile,21,0,21,0,1,CHEESE - JIBINI,,,,,,,,,,,,,,,,,,,,,,,,,,,,,,,,,,,,,,,,,,,,,,,,,,,,,,,,,,,,,,,,,,,,,,,,,,,,,,,,
,,,,,,,,,,1602883,2020-10-29_11h25.06.658,swahili,2020.2.4,Win32,60,,,,,,,,,,-0.365624991,0.146296227,1,0,0,0.45395,unsorted_card,22,0,22,0,1,,,,,,,,,,,,,,,,,,,,,,,,,,,,,,,,,,,,,,,,,,,,,,,,,,,,,,,,,,,,,,,,,,,,,,,,,,,,,,,,,
,,,,,,,,,,1602883,2020-10-29_11h25.06.658,swahili,2020.2.4,Win32,60,,,,,,,,,,0.452083482,-0.024074089,1,0,0,1.357875,test_pile,23,0,23,0,1,GRAPES - ZABIBU,,,,,,,,,,,,,,,,,,,,,,,,,,,,,,,,,,,,,,,,,,,,,,,,,,,,,,,,,,,,,,,,,,,,,,,,,,,,,,,,
,,,,,,,,,,1602883,2020-10-29_11h25.06.658,swahili,2020.2.4,Win32,60,,,,,,,,,,-0.270833322,-0.088888905,1,0,0,0.580405,unsorted_card,24,0,24,0,1,,,,,,,,,,,,,,,,,,,,,,,,,,,,,,,,,,,,,,,,,,,,,,,,,,,,,,,,,,,,,,,,,,,,,,,,,,,,,,,,,
,,,,,,,,,,1602883,2020-10-29_11h25.06.658,swahili,2020.2.4,Win32,60,,,,,,,,,,0.440625021,0.025925911,1,0,0,0.83104,test_pile,25,0,25,0,1,GRAVE - KABURI,,,,,,,,,,,,,,,,,,,,,,,,,,,,,,,,,,,,,,,,,,,,,,,,,,,,,,,,,,,,,,,,,,,,,,,,,,,,,,,,
,,,,,,,,,,1602883,2020-10-29_11h25.06.658,swahili,2020.2.4,Win32,60,,,,,,,,,,-0.269791656,0.068518505,1,0,0,0.530575,unsorted_card,26,0,26,0,1,,,,,,,,,,,,,,,,,,,,,,,,,,,,,,,,,,,,,,,,,,,,,,,,,,,,,,,,,,,,,,,,,,,,,,,,,,,,,,,,,
,,,,,,,,,,1602883,2020-10-29_11h25.06.658,swahili,2020.2.4,Win32,60,,,,,,,,,,0.513541689,0.022222208,1,0,0,1.24678,test_pile,27,0,27,0,1,MANURE - SAMADI,,,,,,,,,,,,,,,,,,,,,,,,,,,,,,,,,,,,,,,,,,,,,,,,,,,,,,,,,,,,,,,,,,,,,,,,,,,,,,,,
,,,,,,,,,,1602883,2020-10-29_11h25.06.658,swahili,2020.2.4,Win32,60,,,,,,,,,,-0.231249989,0.003703689,1,0,0,0.580515,unsorted_card,28,0,28,0,1,,,,,,,,,,,,,,,,,,,,,,,,,,,,,,,,,,,,,,,,,,,,,,,,,,,,,,,,,,,,,,,,,,,,,,,,,,,,,,,,,
,,,,,,,,,,1602883,2020-10-29_11h25.06.658,swahili,2020.2.4,Win32,60,,,,,,,,,,0.466666689,-0.038888904,1,0,0,1.06404,test_pile,29,0,29,0,1,AGENT - WAKILI,,,,,,,,,,,,,,,,,,,,,,,,,,,,,,,,,,,,,,,,,,,,,,,,,,,,,,,,,,,,,,,,,,,,,,,,,,,,,,,,
,,,,,,,,,,1602883,2020-10-29_11h25.06.658,swahili,2020.2.4,Win32,60,,,,,,,,,,-0.34374999,-0.048148164,1,0,0,0.52998,unsorted_card,30,0,30,0,1,,,,,,,,,,,,,,,,,,,,,,,,,,,,,,,,,,,,,,,,,,,,,,,,,,,,,,,,,,,,,,,,,,,,,,,,,,,,,,,,,
,,,,,,,,,,1602883,2020-10-29_11h25.06.658,swahili,2020.2.4,Win32,60,,,,,,,,,,0.465625022,0.012962948,1,0,0,0.802485,test_pile,31,0,31,0,1,BRIBE - RUSHWA,,,,,,,,,,,,,,,,,,,,,,,,,,,,,,,,,,,,,,,,,,,,,,,,,,,,,,,,,,,,,,,,,,,,,,,,,,,,,,,,
,,,,,,,,,,1602883,2020-10-29_11h25.06.658,swahili,2020.2.4,Win32,60,,,,,,,,,,-0.386458324,0.135185172,1,0,0,0.4751,unsorted_card,32,0,32,0,1,,,,,,,,,,,,,,,,,,,,,,,,,,,,,,,,,,,,,,,,,,,,,,,,,,,,,,,,,,,,,,,,,,,,,,,,,,,,,,,,,
,,,,,,,,,,1602883,2020-10-29_11h25.06.658,swahili,2020.2.4,Win32,60,,,,,,,,,,0.484375022,0.018518504,1,0,0,0.787005,test_pile,33,0,33,0,1,ORPHAN - YATIMA,,,,,,,,,,,,,,,,,,,,,,,,,,,,,,,,,,,,,,,,,,,,,,,,,,,,,,,,,,,,,,,,,,,,,,,,,,,,,,,,
,,,,,,,,,,1602883,2020-10-29_11h25.06.658,swahili,2020.2.4,Win32,60,,,,,,,,,,-0.414583325,0.02407406,1,0,0,0.50869,unsorted_card,34,0,34,0,1,,,,,,,,,,,,,,,,,,,,,,,,,,,,,,,,,,,,,,,,,,,,,,,,,,,,,,,,,,,,,,,,,,,,,,,,,,,,,,,,,
,,,,,,,,,,1602883,2020-10-29_11h25.06.658,swahili,2020.2.4,Win32,60,,,,,,,,,,0.491666689,0.005555541,1,0,0,0.98126,test_pile,35,0,35,0,1,DIVORCE - TALAKA,,,,,,,,,,,,,,,,,,,,,,,,,,,,,,,,,,,,,,,,,,,,,,,,,,,,,,,,,,,,,,,,,,,,,,,,,,,,,,,,
,,,,,,,,,,1602883,2020-10-29_11h25.06.658,swahili,2020.2.4,Win32,60,,,,,,,,,,-0.402083324,0.087037023,1,0,0,0.74647,unsorted_card,36,0,36,0,1,,,,,,,,,,,,,,,,,,,,,,,,,,,,,,,,,,,,,,,,,,,,,,,,,,,,,,,,,,,,,,,,,,,,,,,,,,,,,,,,,
,,,,,,,,,,1602883,2020-10-29_11h25.06.658,swahili,2020.2.4,Win32,60,,,,,,,,,,0.475000022,0.08333332,1,0,0,0.814565,test_pile,37,0,37,0,1,BOAT - MASHUA,,,,,,,,,,,,,,,,,,,,,,,,,,,,,,,,,,,,,,,,,,,,,,,,,,,,,,,,,,,,,,,,,,,,,,,,,,,,,,,,
,,,,,,,,,,1602883,2020-10-29_11h25.06.658,swahili,2020.2.4,Win32,60,,,,,,,,,,-0.256249989,0.011111096,1,0,0,0.435945,unsorted_card,38,0,38,0,1,,,,,,,,,,,,,,,,,,,,,,,,,,,,,,,,,,,,,,,,,,,,,,,,,,,,,,,,,,,,,,,,,,,,,,,,,,,,,,,,,
,,,,,,,,,,1602883,2020-10-29_11h25.06.658,swahili,2020.2.4,Win32,60,,,,,,,,,,0.397916687,-0.009259274,1,0,0,0.74213,test_pile,39,0,39,0,1,TREASURE - DAFINA,,,,,,,,,,,,,,,,,,,,,,,,,,,,,,,,,,,,,,,,,,,,,,,,,,,,,,,,,,,,,,,,,,,,,,,,,,,,,,,,
,,,,,,,,,,1602883,2020-10-29_11h25.06.658,swahili,2020.2.4,Win32,60,,,,,,,,,,,,,,,,,,,,,,,,,,,,,,,,,,0,0,0,0,1,,,,,,,,,,,,,,,,,,,,,,,,,,,,,,,,,,,,,,,,,,,,,,,,,,,,,,,,,,,,,,,,
,,,,,,,,,,1602883,2020-10-29_11h25.06.658,swahili,2020.2.4,Win32,60,,,,,,,,,,,,,,,,,,,,,,,,,,,,,,,,,,,,,,,return,,,,,,,,,,,1.50711,13.107535,0.253125019,0.049999986,1,0,0,1.346655,yes,ORPHAN,JAWINI,incorrect,0,0,0,0,1,,,,,,,,,,,,,,,,,,,,,,,,,,,,,,,,,,,,
,,,,,,,,,,1602883,2020-10-29_11h25.06.658,swahili,2020.2.4,Win32,60,,,,,,,,,,,,,,,,,,,,,,,,,,,,,,,,,,,,,,,,,,,,,,,,,,,3.34513,0.495833356,-0.062962979,1,0,0,0.88317,yes,PARROT,KABUKI,incorrect,1,0,1,0,1,,,,,,,,,,,,,,,,,,,,,,,,,,,,,,,,,,,,
,,,,,,,,,,1602883,2020-10-29_11h25.06.658,swahili,2020.2.4,Win32,60,,,,,,,,,,,,,,,,,,,,,,,,,,,,,,,,,,,,,,,,,,,,,,,,,,,4.262835,0.463541688,-0.033333349,1,0,0,0.83157,yes,MANURE,UOWT,incorrect,2,0,2,0,1,,,,,,,,,,,,,,,,,,,,,,,,,,,,,,,,,,,,
,,,,,,,,,,1602883,2020-10-29_11h25.06.658,swahili,2020.2.4,Win32,60,,,,,,,,,,,,,,,,,,,,,,,,,,,,,,,,,,,,,,,,,,,,,,,,,,,3.462035,0.471875022,0.062962892,1,0,0,0.78431,yes,BOAT,WETWT,incorrect,3,0,3,0,1,,,,,,,,,,,,,,,,,,,,,,,,,,,,,,,,,,,,
,,,,,,,,,,1602883,2020-10-29_11h25.06.658,swahili,2020.2.4,Win32,60,,,,,,,,,,,,,,,,,,,,,,,,,,,,,,,,,,,,,,,,,,,,,,,,,,,2.812395,0.367708354,0.038888875,1,0,0,0.79938,yes,CHEESE,JIBINI,incorrect,4,0,4,0,1,,,,,,,,,,,,,,,,,,,,,,,,,,,,,,,,,,,,
,,,,,,,,,,1602883,2020-10-29_11h25.06.658,swahili,2020.2.4,Win32,60,,,,,,,,,,,,,,,,,,,,,,,,,,,,,,,,,,,,,,,,,,,,,,,,,,,3.628085,0.415625148,0.055555541,1,0,0,0.78308,yes,BRIBE,MATWE,incorrect,5,0,5,0,1,,,,,,,,,,,,,,,,,,,,,,,,,,,,,,,,,,,,
,,,,,,,,,,1602883,2020-10-29_11h25.06.658,swahili,2020.2.4,Win32,60,,,,,,,,,,,,,,,,,,,,,,,,,,,,,,,,,,,,,,,,,,,,,,,,,,,2.345875,0.010416682,-0.277777797,1,0,0,0.699615,yes,TAILOR,JAIUWET,incorrect,6,0,6,0,1,,,,,,,,,,,,,,,,,,,,,,,,,,,,,,,,,,,,
,,,,,,,,,,1602883,2020-10-29_11h25.06.658,swahili,2020.2.4,Win32,60,,,,,,,,,,,,,,,,,,,,,,,,,,,,,,,,,,,,,,,,,,,,,,,,,,,1.962225,0.370833354,-0.087037053,1,0,0,1.01619,yes,POEM,WKJETT,incorrect,7,0,7,0,1,,,,,,,,,,,,,,,,,,,,,,,,,,,,,,,,,,,,
,,,,,,,,,,1602883,2020-10-29_11h25.06.658,swahili,2020.2.4,Win32,60,,,,,,,,,,,,,,,,,,,,,,,,,,,,,,,,,,,,,,,,,,,,,,,,,,,1.82942,0.406250021,-0.01481483,1,0,0,0.932745,yes,AGENT,WETT,incorrect,8,0,8,0,1,,,,,,,,,,,,,,,,,,,,,,,,,,,,,,,,,,,,
,,,,,,,,,,1602883,2020-10-29_11h25.06.658,swahili,2020.2.4,Win32,60,,,,,,,,,,,,,,,,,,,,,,,,,,,,,,,,,,,,,,,,,,,,,,,,,,,2.145935,0.414583354,-0.025925941,1,0,0,0.96624,yes,OATH,WETET,incorrect,9,0,9,0,1,,,,,,,,,,,,,,,,,,,,,,,,,,,,,,,,,,,,
,,,,,,,,,,1602883,2020-10-29_11h25.06.658,swahili,2020.2.4,Win32,60,,,,,,,,,,,,,,,,,,,,,,,,,,,,,,,,,,,,,,,,,,,,,,,,,,,1.445915,0.177083351,0.061111097,1,0,0,0.816315,yes,TREASURE,WET,incorrect,10,0,10,0,1,,,,,,,,,,,,,,,,,,,,,,,,,,,,,,,,,,,,
,,,,,,,,,,1602883,2020-10-29_11h25.06.658,swahili,2020.2.4,Win32,60,,,,,,,,,,,,,,,,,,,,,,,,,,,,,,,,,,,,,,,,,,,,,,,,,,,1.26301,0.409375021,0.124074061,1,0,0,0.94971,yes,YEAST,WETT,incorrect,11,0,11,0,1,,,,,,,,,,,,,,,,,,,,,,,,,,,,,,,,,,,,
,,,,,,,,,,1602883,2020-10-29_11h25.06.658,swahili,2020.2.4,Win32,60,,,,,,,,,,,,,,,,,,,,,,,,,,,,,,,,,,,,,,,,,,,,,,,,,,,1.413165,0.373958481,0.075925912,1,0,0,0.99918,yes,MERCHANT,WETT,incorrect,12,0,12,0,1,,,,,,,,,,,,,,,,,,,,,,,,,,,,,,,,,,,,
,,,,,,,,,,1602883,2020-10-29_11h25.06.658,swahili,2020.2.4,Win32,60,,,,,,,,,,,,,,,,,,,,,,,,,,,,,,,,,,,,,,,,,,,,,,,,,,,1.213305,0.387500021,0.001851837,1,0,0,0.833055,yes,DIVORCE,WETET,incorrect,13,0,13,0,1,,,,,,,,,,,,,,,,,,,,,,,,,,,,,,,,,,,,
,,,,,,,,,,1602883,2020-10-29_11h25.06.658,swahili,2020.2.4,Win32,60,,,,,,,,,,,,,,,,,,,,,,,,,,,,,,,,,,,,,,,,,,,,,,,,,,,2.86196,0.387500021,0.001851837,1,0,0,0.56599,yes,GRAVE,HAHT,incorrect,14,0,14,0,1,,,,,,,,,,,,,,,,,,,,,,,,,,,,,,,,,,,,
,,,,,,,,,,1602883,2020-10-29_11h25.06.658,swahili,2020.2.4,Win32,60,,,,,,,,,,,,,,,,,,,,,,,,,,,,,,,,,,,,,,,,,,,,,,,,,,,1.398515,0.387500021,0.001851837,1,0,0,0.66625,yes,CORN,WTJT,incorrect,15,0,15,0,1,,,,,,,,,,,,,,,,,,,,,,,,,,,,,,,,,,,,
,,,,,,,,,,1602883,2020-10-29_11h25.06.658,swahili,2020.2.4,Win32,60,,,,,,,,,,,,,,,,,,,,,,,,,,,,,,,,,,,,,,,,,,,,,,,,,,,1.29564,0.567708357,-0.033333349,1,0,0,0.83257,yes,BULL,WTT,incorrect,16,0,16,0,1,,,,,,,,,,,,,,,,,,,,,,,,,,,,,,,,,,,,
,,,,,,,,,,1602883,2020-10-29_11h25.06.658,swahili,2020.2.4,Win32,60,,,,,,,,,,,,,,,,,,,,,,,,,,,,,,,,,,,,,,,,,,,,,,,,,,,1.646495,0.316666686,0.149999987,1,0,0,0.932715,yes,GRAPES,PWEJRR,incorrect,17,0,17,0,1,,,,,,,,,,,,,,,,,,,,,,,,,,,,,,,,,,,,
,,,,,,,,,,1602883,2020-10-29_11h25.06.658,swahili,2020.2.4,Win32,60,,,,,,,,,,,,,,,,,,,,,,,,,,,,,,,,,,,,,,,,,,,,,,,,,,,1.096615,0.332291687,0.096296283,1,0,0,1.049345,yes,PLATE,WRT,incorrect,18,0,18,0,1,,,,,,,,,,,,,,,,,,,,,,,,,,,,,,,,,,,,
,,,,,,,,,,1602883,2020-10-29_11h25.06.658,swahili,2020.2.4,Win32,60,,,,,,,,,,,,,,,,,,,,,,,,,,,,,,,,,,,,,,,,,,,,,,,,,,,1.59685,0.329166686,0.081481411,1,0,0,0.900285,yes,BLAME,TTWT,incorrect,19,0,19,0,1,,,,,,,,,,,,,,,,,,,,,,,,,,,,,,,,,,,,
,,,,,,,,,,1602883,2020-10-29_11h25.06.658,swahili,2020.2.4,Win32,60,,,,,,,,,,,,,,,,,,,,,,,,,,,,,,,,,,,,,,,,0,0,0,0,1,,,,,,,,,,,,,,,,,,,,,,,,,,,,,,,,,,,,,,,,,,,,,,,,,,,,,,,,,,
,,,,,,,,,,1602883,2020-10-29_11h25.06.658,swahili,2020.2.4,Win32,60,,,,,,,,,,,,,,,,,,,,,,,,,,,,,,,,,,,,,,,,1,0,1,0,1,,,,,,,,,,,,,,,,,,,,,,,,,,,,,,,,,,,,,,,,,,,,,,,,,,,,,,,,,,
,,,,,,,,,,1602883,2020-10-29_11h25.06.658,swahili,2020.2.4,Win32,60,,,,,,,,,,,,,,,,,,,,,,,,,,,,,,,,,,,,,,,,,,,,,1,0,1,0,1,,,,,,,,,,,,,,,,,,,,,,,,,,,,,,,,,,,,,,,,,,,,,,,,,,,,,
,,,,,,,,,,1602883,2020-10-29_11h25.06.658,swahili,2020.2.4,Win32,60,,,,,,,,,,-0.206249925,-0.016666682,1,0,0,2.560955,unsorted_card,0,0,0,0,1,,,,,,,,,,,,,,,,,,,,,,,,,,,,,,,,,,,,,,,,,,,,,,,,,,,,,,,,,,,,,,,,,,,,,,,,,,,,,,,,,
,,,,,,,,,,1602883,2020-10-29_11h25.06.658,swahili,2020.2.4,Win32,60,,,,,,,,,,0.416666688,0.0148148,1,0,0,4.496735,test_pile,1,0,1,0,1,MERCHANT - TAJIRI,,,,,,,,,,,,,,,,,,,,,,,,,,,,,,,,,,,,,,,,,,,,,,,,,,,,,,,,,,,,,,,,,,,,,,,,,,,,,,,,
,,,,,,,,,,1602883,2020-10-29_11h25.06.658,swahili,2020.2.4,Win32,60,,,,,,,,,,-0.365624991,0.14259258,1,0,0,0.6788,unsorted_card,2,0,2,0,1,,,,,,,,,,,,,,,,,,,,,,,,,,,,,,,,,,,,,,,,,,,,,,,,,,,,,,,,,,,,,,,,,,,,,,,,,,,,,,,,,
,,,,,,,,,,1602883,2020-10-29_11h25.06.658,swahili,2020.2.4,Win32,60,,,,,,,,,,0.485416689,0.005555541,1,0,0,1.19772,test_pile,3,0,3,0,1,PARROT - KASUKU,,,,,,,,,,,,,,,,,,,,,,,,,,,,,,,,,,,,,,,,,,,,,,,,,,,,,,,,,,,,,,,,,,,,,,,,,,,,,,,,
,,,,,,,,,,1602883,2020-10-29_11h25.06.658,swahili,2020.2.4,Win32,60,,,,,,,,,,-0.336458323,0.046296282,1,0,0,2.22945,unsorted_card,4,0,4,0,1,,,,,,,,,,,,,,,,,,,,,,,,,,,,,,,,,,,,,,,,,,,,,,,,,,,,,,,,,,,,,,,,,,,,,,,,,,,,,,,,,
,,,,,,,,,,1602883,2020-10-29_11h25.06.658,swahili,2020.2.4,Win32,60,,,,,,,,,,0.469791689,0.031481467,1,0,0,0.913925,test_pile,5,0,5,0,1,BULL - FAHILI,,,,,,,,,,,,,,,,,,,,,,,,,,,,,,,,,,,,,,,,,,,,,,,,,,,,,,,,,,,,,,,,,,,,,,,,,,,,,,,,
,,,,,,,,,,1602883,2020-10-29_11h25.06.658,swahili,2020.2.4,Win32,60,,,,,,,,,,-0.32812499,0.020370356,1,0,0,1.996685,unsorted_card,6,0,6,0,1,,,,,,,,,,,,,,,,,,,,,,,,,,,,,,,,,,,,,,,,,,,,,,,,,,,,,,,,,,,,,,,,,,,,,,,,,,,,,,,,,
,,,,,,,,,,1602883,2020-10-29_11h25.06.658,swahili,2020.2.4,Win32,60,,,,,,,,,,0.582291817,0.038888875,1,0,0,1.29741,test_pile,7,0,7,0,1,PLATE - SAHANI,,,,,,,,,,,,,,,,,,,,,,,,,,,,,,,,,,,,,,,,,,,,,,,,,,,,,,,,,,,,,,,,,,,,,,,,,,,,,,,,
,,,,,,,,,,1602883,2020-10-29_11h25.06.658,swahili,2020.2.4,Win32,60,,,,,,,,,,-0.381249991,-1.4912E-08,1,0,0,0.63105,unsorted_card,8,0,8,0,1,,,,,,,,,,,,,,,,,,,,,,,,,,,,,,,,,,,,,,,,,,,,,,,,,,,,,,,,,,,,,,,,,,,,,,,,,,,,,,,,,
,,,,,,,,,,1602883,2020-10-29_11h25.06.658,swahili,2020.2.4,Win32,60,,,,,,,,,,0.503125022,0.07407406,1,0,0,0.897625,test_pile,9,0,9,0,1,YEAST - HAMIRA,,,,,,,,,,,,,,,,,,,,,,,,,,,,,,,,,,,,,,,,,,,,,,,,,,,,,,,,,,,,,,,,,,,,,,,,,,,,,,,,
,,,,,,,,,,1602883,2020-10-29_11h25.06.658,swahili,2020.2.4,Win32,60,,,,,,,,,,-0.216666591,0.11296295,1,0,0,0.68153,unsorted_card,10,0,10,0,1,,,,,,,,,,,,,,,,,,,,,,,,,,,,,,,,,,,,,,,,,,,,,,,,,,,,,,,,,,,,,,,,,,,,,,,,,,,,,,,,,
,,,,,,,,,,1602883,2020-10-29_11h25.06.658,swahili,2020.2.4,Win32,60,,,,,,,,,,0.462500149,-0.061111127,1,0,0,2.31332,test_pile,11,0,11,0,1,BLAME - LAWAMA,,,,,,,,,,,,,,,,,,,,,,,,,,,,,,,,,,,,,,,,,,,,,,,,,,,,,,,,,,,,,,,,,,,,,,,,,,,,,,,,
,,,,,,,,,,1602883,2020-10-29_11h25.06.658,swahili,2020.2.4,Win32,60,,,,,,,,,,-0.292708323,-0.081481498,1,0,0,0.531195,unsorted_card,12,0,12,0,1,,,,,,,,,,,,,,,,,,,,,,,,,,,,,,,,,,,,,,,,,,,,,,,,,,,,,,,,,,,,,,,,,,,,,,,,,,,,,,,,,
,,,,,,,,,,1602883,2020-10-29_11h25.06.658,swahili,2020.2.4,Win32,60,,,,,,,,,,0.535416817,0.087037023,1,0,0,0.914385,test_pile,13,0,13,0,1,OATH - YAMINI,,,,,,,,,,,,,,,,,,,,,,,,,,,,,,,,,,,,,,,,,,,,,,,,,,,,,,,,,,,,,,,,,,,,,,,,,,,,,,,,
,,,,,,,,,,1602883,2020-10-29_11h25.06.658,swahili,2020.2.4,Win32,60,,,,,,,,,,-0.215624988,0.020370356,1,0,0,0.730805,unsorted_card,14,0,14,0,1,,,,,,,,,,,,,,,,,,,,,,,,,,,,,,,,,,,,,,,,,,,,,,,,,,,,,,,,,,,,,,,,,,,,,,,,,,,,,,,,,
,,,,,,,,,,1602883,2020-10-29_11h25.06.658,swahili,2020.2.4,Win32,60,,,,,,,,,,0.404166688,-1.4912E-08,1,0,0,1.414345,test_pile,15,0,15,0,1,CORN - NAFAKA,,,,,,,,,,,,,,,,,,,,,,,,,,,,,,,,,,,,,,,,,,,,,,,,,,,,,,,,,,,,,,,,,,,,,,,,,,,,,,,,
,,,,,,,,,,1602883,2020-10-29_11h25.06.658,swahili,2020.2.4,Win32,60,,,,,,,,,,-0.34374999,-0.075925942,1,0,0,0.648385,unsorted_card,16,0,16,0,1,,,,,,,,,,,,,,,,,,,,,,,,,,,,,,,,,,,,,,,,,,,,,,,,,,,,,,,,,,,,,,,,,,,,,,,,,,,,,,,,,
,,,,,,,,,,1602883,2020-10-29_11h25.06.658,swahili,2020.2.4,Win32,60,,,,,,,,,,0.433333355,0.003703689,1,0,0,1.197045,test_pile,17,0,17,0,1,POEM - UTENZI,,,,,,,,,,,,,,,,,,,,,,,,,,,,,,,,,,,,,,,,,,,,,,,,,,,,,,,,,,,,,,,,,,,,,,,,,,,,,,,,
,,,,,,,,,,1602883,2020-10-29_11h25.06.658,swahili,2020.2.4,Win32,60,,,,,,,,,,-0.229166655,-0.025925941,1,0,0,0.84731,unsorted_card,18,0,18,0,1,,,,,,,,,,,,,,,,,,,,,,,,,,,,,,,,,,,,,,,,,,,,,,,,,,,,,,,,,,,,,,,,,,,,,,,,,,,,,,,,,
,,,,,,,,,,1602883,2020-10-29_11h25.06.658,swahili,2020.2.4,Win32,60,,,,,,,,,,0.389583481,0.001851837,1,0,0,1.663885,test_pile,19,0,19,0,1,TAILOR - MSHONI,,,,,,,,,,,,,,,,,,,,,,,,,,,,,,,,,,,,,,,,,,,,,,,,,,,,,,,,,,,,,,,,,,,,,,,,,,,,,,,,
,,,,,,,,,,1602883,2020-10-29_11h25.06.658,swahili,2020.2.4,Win32,60,,,,,,,,,,-0.326041593,0.025925911,1,0,0,0.482035,unsorted_card,20,0,20,0,1,,,,,,,,,,,,,,,,,,,,,,,,,,,,,,,,,,,,,,,,,,,,,,,,,,,,,,,,,,,,,,,,,,,,,,,,,,,,,,,,,
,,,,,,,,,,1602883,2020-10-29_11h25.06.658,swahili,2020.2.4,Win32,60,,,,,,,,,,0.50937515,-0.466666802,1,0,0,0.94738,done_pile,21,0,21,0,1,CHEESE - JIBINI,,,,,,,,,,,,,,,,,,,,,,,,,,,,,,,,,,,,,,,,,,,,,,,,,,,,,,,,,,,,,,,,,,,,,,,,,,,,,,,,
,,,,,,,,,,1602883,2020-10-29_11h25.06.658,swahili,2020.2.4,Win32,60,,,,,,,,,,-0.286458323,0.072222152,1,0,0,0.780645,unsorted_card,22,0,22,0,1,,,,,,,,,,,,,,,,,,,,,,,,,,,,,,,,,,,,,,,,,,,,,,,,,,,,,,,,,,,,,,,,,,,,,,,,,,,,,,,,,
,,,,,,,,,,1602883,2020-10-29_11h25.06.658,swahili,2020.2.4,Win32,60,,,,,,,,,,0.456250022,0.087037023,1,0,0,1.19801,test_pile,23,0,23,0,1,GRAPES - ZABIBU,,,,,,,,,,,,,,,,,,,,,,,,,,,,,,,,,,,,,,,,,,,,,,,,,,,,,,,,,,,,,,,,,,,,,,,,,,,,,,,,
,,,,,,,,,,1602883,2020-10-29_11h25.06.658,swahili,2020.2.4,Win32,60,,,,,,,,,,-0.315624926,0.101851838,1,0,0,0.53197,unsorted_card,24,0,24,0,1,,,,,,,,,,,,,,,,,,,,,,,,,,,,,,,,,,,,,,,,,,,,,,,,,,,,,,,,,,,,,,,,,,,,,,,,,,,,,,,,,
,,,,,,,,,,1602883,2020-10-29_11h25.06.658,swahili,2020.2.4,Win32,60,,,,,,,,,,0.479166689,-0.027777793,1,0,0,2.03025,test_pile,25,0,25,0,1,GRAVE - KABURI,,,,,,,,,,,,,,,,,,,,,,,,,,,,,,,,,,,,,,,,,,,,,,,,,,,,,,,,,,,,,,,,,,,,,,,,,,,,,,,,
,,,,,,,,,,1602883,2020-10-29_11h25.06.658,swahili,2020.2.4,Win32,60,,,,,,,,,,-0.393749991,-0.194444462,1,0,0,0.68099,unsorted_card,26,0,26,0,1,,,,,,,,,,,,,,,,,,,,,,,,,,,,,,,,,,,,,,,,,,,,,,,,,,,,,,,,,,,,,,,,,,,,,,,,,,,,,,,,,
,,,,,,,,,,1602883,2020-10-29_11h25.06.658,swahili,2020.2.4,Win32,60,,,,,,,,,,0.385416687,-0.10370372,1,0,0,2.513405,test_pile,27,0,27,0,1,MANURE - SAMADI,,,,,,,,,,,,,,,,,,,,,,,,,,,,,,,,,,,,,,,,,,,,,,,,,,,,,,,,,,,,,,,,,,,,,,,,,,,,,,,,
,,,,,,,,,,1602883,2020-10-29_11h25.06.658,swahili,2020.2.4,Win32,60,,,,,,,,,,-0.268749926,-0.109259276,1,0,0,0.53057,unsorted_card,28,0,28,0,1,,,,,,,,,,,,,,,,,,,,,,,,,,,,,,,,,,,,,,,,,,,,,,,,,,,,,,,,,,,,,,,,,,,,,,,,,,,,,,,,,
,,,,,,,,,,1602883,2020-10-29_11h25.06.658,swahili,2020.2.4,Win32,60,,,,,,,,,,0.418750021,-0.49814817,1,0,0,2.46345,done_pile,29,0,29,0,1,AGENT - WAKILI,,,,,,,,,,,,,,,,,,,,,,,,,,,,,,,,,,,,,,,,,,,,,,,,,,,,,,,,,,,,,,,,,,,,,,,,,,,,,,,,
,,,,,,,,,,1602883,2020-10-29_11h25.06.658,swahili,2020.2.4,Win32,60,,,,,,,,,,-0.32812499,0.061111097,1,0,0,0.630275,unsorted_card,30,0,30,0,1,,,,,,,,,,,,,,,,,,,,,,,,,,,,,,,,,,,,,,,,,,,,,,,,,,,,,,,,,,,,,,,,,,,,,,,,,,,,,,,,,
,,,,,,,,,,1602883,2020-10-29_11h25.06.658,swahili,2020.2.4,Win32,60,,,,,,,,,,0.470833355,-0.003703719,1,0,0,1.098195,test_pile,31,0,31,0,1,BRIBE - RUSHWA,,,,,,,,,,,,,,,,,,,,,,,,,,,,,,,,,,,,,,,,,,,,,,,,,,,,,,,,,,,,,,,,,,,,,,,,,,,,,,,,
,,,,,,,,,,1602883,2020-10-29_11h25.06.658,swahili,2020.2.4,Win32,60,,,,,,,,,,-0.155208321,-0.048148164,1,0,0,0.597235,unsorted_card,32,0,32,0,1,,,,,,,,,,,,,,,,,,,,,,,,,,,,,,,,,,,,,,,,,,,,,,,,,,,,,,,,,,,,,,,,,,,,,,,,,,,,,,,,,
,,,,,,,,,,1602883,2020-10-29_11h25.06.658,swahili,2020.2.4,Win32,60,,,,,,,,,,0.434375021,0.096296283,1,0,0,0.981405,test_pile,33,0,33,0,1,ORPHAN - YATIMA,,,,,,,,,,,,,,,,,,,,,,,,,,,,,,,,,,,,,,,,,,,,,,,,,,,,,,,,,,,,,,,,,,,,,,,,,,,,,,,,
,,,,,,,,,,1602883,2020-10-29_11h25.06.658,swahili,2020.2.4,Win32,60,,,,,,,,,,-0.331249926,-0.125925943,1,0,0,0.5785,unsorted_card,34,0,34,0,1,,,,,,,,,,,,,,,,,,,,,,,,,,,,,,,,,,,,,,,,,,,,,,,,,,,,,,,,,,,,,,,,,,,,,,,,,,,,,,,,,
,,,,,,,,,,1602883,2020-10-29_11h25.06.658,swahili,2020.2.4,Win32,60,,,,,,,,,,0.439583355,-0.070370386,1,0,0,0.9481,test_pile,35,0,35,0,1,DIVORCE - TALAKA,,,,,,,,,,,,,,,,,,,,,,,,,,,,,,,,,,,,,,,,,,,,,,,,,,,,,,,,,,,,,,,,,,,,,,,,,,,,,,,,
,,,,,,,,,,1602883,2020-10-29_11h25.06.658,swahili,2020.2.4,Win32,60,,,,,,,,,,-0.162499988,-0.061111127,1,0,0,0.46359,unsorted_card,36,0,36,0,1,,,,,,,,,,,,,,,,,,,,,,,,,,,,,,,,,,,,,,,,,,,,,,,,,,,,,,,,,,,,,,,,,,,,,,,,,,,,,,,,,
,,,,,,,,,,1602883,2020-10-29_11h25.06.658,swahili,2020.2.4,Win32,60,,,,,,,,,,0.487500022,0.048148134,1,0,0,0.6818,test_pile,37,0,37,0,1,BOAT - MASHUA,,,,,,,,,,,,,,,,,,,,,,,,,,,,,,,,,,,,,,,,,,,,,,,,,,,,,,,,,,,,,,,,,,,,,,,,,,,,,,,,
,,,,,,,,,,1602883,2020-10-29_11h25.06.658,swahili,2020.2.4,Win32,60,,,,,,,,,,-0.32187499,0.092592579,1,0,0,0.3976,unsorted_card,38,0,38,0,1,,,,,,,,,,,,,,,,,,,,,,,,,,,,,,,,,,,,,,,,,,,,,,,,,,,,,,,,,,,,,,,,,,,,,,,,,,,,,,,,,
,,,,,,,,,,1602883,2020-10-29_11h25.06.658,swahili,2020.2.4,Win32,60,,,,,,,,,,0.393750021,0.0148148,1,0,0,0.747935,test_pile,39,0,39,0,1,TREASURE - DAFINA,,,,,,,,,,,,,,,,,,,,,,,,,,,,,,,,,,,,,,,,,,,,,,,,,,,,,,,,,,,,,,,,,,,,,,,,,,,,,,,,
,,,,,,,,,,1602883,2020-10-29_11h25.06.658,swahili,2020.2.4,Win32,60,,,,,,,,,,,,,,,,,,,,,,,,,,,,,,,,,,0,0,0,0,1,,,,,,,,,,,,,,,,,,,,,,,,,,,,,,,,,,,,,,,,,,,,,,,,,,,,,,,,,,,,,,,,
,,,,,,,,,,1602883,2020-10-29_11h25.06.658,swahili,2020.2.4,Win32,60,,,,,,,,,,,,,,,,,,,,,,,,,,,,,,,,,,,,,,,return,,,,,,,,,,,0.722095,1.81073,0.514583483,0.187037025,1,0,0,1.116835,yes,YEAST,WITJT,incorrect,0,0,0,0,1,,,,,,,,,,,,,,,,,,,,,,,,,,,,,,,,,,,,
,,,,,,,,,,1602883,2020-10-29_11h25.06.658,swahili,2020.2.4,Win32,60,,,,,,,,,,,,,,,,,,,,,,,,,,,,,,,,,,,,,,,,,,,,,,,,,,,2.99512,0.368750148,0.057407393,1,0,0,0.91631,yes,BULL,KALAKA,incorrect,1,0,1,0,1,,,,,,,,,,,,,,,,,,,,,,,,,,,,,,,,,,,,
,,,,,,,,,,1602883,2020-10-29_11h25.06.658,swahili,2020.2.4,Win32,60,,,,,,,,,,,,,,,,,,,,,,,,,,,,,,,,,,,,,,,,,,,,,,,,,,,2.362,0.431250148,0.005555541,1,0,0,1.232735,yes,PLATE,TAHU,incorrect,2,0,2,0,1,,,,,,,,,,,,,,,,,,,,,,,,,,,,,,,,,,,,
,,,,,,,,,,1602883,2020-10-29_11h25.06.658,swahili,2020.2.4,Win32,60,,,,,,,,,,,,,,,,,,,,,,,,,,,,,,,,,,,,,,,,,,,,,,,,,,,2.529815,0.260416685,0.011111096,1,0,0,1.01595,yes,GRAPES,JABIRU,incorrect,3,0,3,0,1,,,,,,,,,,,,,,,,,,,,,,,,,,,,,,,,,,,,
,,,,,,,,,,1602883,2020-10-29_11h25.06.658,swahili,2020.2.4,Win32,60,,,,,,,,,,,,,,,,,,,,,,,,,,,,,,,,,,,,,,,,,,,,,,,,,,,2.61231,0.475000022,0.018518504,1,0,0,1.23282,yes,TAILOR,MASHA,incorrect,4,0,4,0,1,,,,,,,,,,,,,,,,,,,,,,,,,,,,,,,,,,,,
,,,,,,,,,,1602883,2020-10-29_11h25.06.658,swahili,2020.2.4,Win32,60,,,,,,,,,,,,,,,,,,,,,,,,,,,,,,,,,,,,,,,,,,,,,,,,,,,1.962155,0.327083353,0.02407406,1,0,0,1.08295,yes,ORPHAN,OUHGR,incorrect,5,0,5,0,1,,,,,,,,,,,,,,,,,,,,,,,,,,,,,,,,,,,,
,,,,,,,,,,1602883,2020-10-29_11h25.06.658,swahili,2020.2.4,Win32,60,,,,,,,,,,,,,,,,,,,,,,,,,,,,,,,,,,,,,,,,,,,,,,,,,,,1.363145,0.404166688,-0.061111127,1,0,0,0.86597,yes,CORN,WTT,incorrect,6,0,6,0,1,,,,,,,,,,,,,,,,,,,,,,,,,,,,,,,,,,,,
,,,,,,,,,,1602883,2020-10-29_11h25.06.658,swahili,2020.2.4,Win32,60,,,,,,,,,,,,,,,,,,,,,,,,,,,,,,,,,,,,,,,,,,,,,,,,,,,1.34614,0.568750023,0.072222152,1,0,0,0.88341,yes,PARROT,WET,incorrect,7,0,7,0,1,,,,,,,,,,,,,,,,,,,,,,,,,,,,,,,,,,,,
,,,,,,,,,,1602883,2020-10-29_11h25.06.658,swahili,2020.2.4,Win32,60,,,,,,,,,,,,,,,,,,,,,,,,,,,,,,,,,,,,,,,,,,,,,,,,,,,3.1959,0.515625023,0.11296295,1,0,0,0.93277,yes,BOAT,MSHONI,incorrect,8,0,8,0,1,,,,,,,,,,,,,,,,,,,,,,,,,,,,,,,,,,,,
,,,,,,,,,,1602883,2020-10-29_11h25.06.658,swahili,2020.2.4,Win32,60,,,,,,,,,,,,,,,,,,,,,,,,,,,,,,,,,,,,,,,,,,,,,,,,,,,1.81267,0.632291691,0.188888877,1,0,0,0.816325,yes,MERCHANT,MSHONI,incorrect,9,0,9,0,1,,,,,,,,,,,,,,,,,,,,,,,,,,,,,,,,,,,,
,,,,,,,,,,1602883,2020-10-29_11h25.06.658,swahili,2020.2.4,Win32,60,,,,,,,,,,,,,,,,,,,,,,,,,,,,,,,,,,,,,,,,,,,,,,,,,,,2.71183,0.32812502,-0.075925942,1,0,0,0.89966,yes,MANURE,KALAKA,incorrect,10,0,10,0,1,,,,,,,,,,,,,,,,,,,,,,,,,,,,,,,,,,,,
,,,,,,,,,,1602883,2020-10-29_11h25.06.658,swahili,2020.2.4,Win32,60,,,,,,,,,,,,,,,,,,,,,,,,,,,,,,,,,,,,,,,,,,,,,,,,,,,1.59709,0.240625018,-0.124074091,1,0,0,0.84942,yes,BLAME,RGGH,incorrect,11,0,11,0,1,,,,,,,,,,,,,,,,,,,,,,,,,,,,,,,,,,,,
,,,,,,,,,,1602883,2020-10-29_11h25.06.658,swahili,2020.2.4,Win32,60,,,,,,,,,,,,,,,,,,,,,,,,,,,,,,,,,,,,,,,,,,,,,,,,,,,1.397035,0.341666687,-0.061111127,1,0,0,0.749215,yes,TREASURE,RGG,incorrect,12,0,12,0,1,,,,,,,,,,,,,,,,,,,,,,,,,,,,,,,,,,,,
,,,,,,,,,,1602883,2020-10-29_11h25.06.658,swahili,2020.2.4,Win32,60,,,,,,,,,,,,,,,,,,,,,,,,,,,,,,,,,,,,,,,,,,,,,,,,,,,1.712775,0.369791687,0.066666653,1,0,0,1.133065,yes,DIVORCE,KALAK,incorrect,13,0,13,0,1,,,,,,,,,,,,,,,,,,,,,,,,,,,,,,,,,,,,
,,,,,,,,,,1602883,2020-10-29_11h25.06.658,swahili,2020.2.4,Win32,60,,,,,,,,,,,,,,,,,,,,,,,,,,,,,,,,,,,,,,,,,,,,,,,,,,,2.54584,0.415625148,-0.062962979,1,0,0,0.90006,yes,POEM,OEN,incorrect,14,0,14,0,1,,,,,,,,,,,,,,,,,,,,,,,,,,,,,,,,,,,,
,,,,,,,,,,1602883,2020-10-29_11h25.06.658,swahili,2020.2.4,Win32,60,,,,,,,,,,,,,,,,,,,,,,,,,,,,,,,,,,,,,,,,,,,,,,,,,,,1.6968,0.648958358,0.235185174,1,0,0,1.19929,yes,OATH,OJAWT,incorrect,15,0,15,0,1,,,,,,,,,,,,,,,,,,,,,,,,,,,,,,,,,,,,
,,,,,,,,,,1602883,2020-10-29_11h25.06.658,swahili,2020.2.4,Win32,60,,,,,,,,,,,,,,,,,,,,,,,,,,,,,,,,,,,,,,,,,,,,,,,,,,,2.89559,0.581250024,-0.009259274,1,0,0,0.866525,yes,GRAVE,MSHONI,incorrect,16,0,16,0,1,,,,,,,,,,,,,,,,,,,,,,,,,,,,,,,,,,,,
,,,,,,,,,,1602883,2020-10-29_11h25.06.658,swahili,2020.2.4,Win32,60,,,,,,,,,,,,,,,,,,,,,,,,,,,,,,,,,,,,,,,,,,,,,,,,,,,1.97935,0.54479169,0.220370302,1,0,0,1.01605,yes,BRIBE,MSHONI,incorrect,17,0,17,0,1,,,,,,,,,,,,,,,,,,,,,,,,,,,,,,,,,,,,
,,,,,,,,,,1602883,2020-10-29_11h25.06.658,swahili,2020.2.4,Win32,60,,,,,,,,,,,,,,,,,,,,,,,,,,,,,,,,,,,,,,,,0,0,0,0,1,,,,,,,,,,,,,,,,,,,,,,,,,,,,,,,,,,,,,,,,,,,,,,,,,,,,,,,,,,
,,,,,,,,,,1602883,2020-10-29_11h25.06.658,swahili,2020.2.4,Win32,60,,,,,,,,,,,,,,,,,,,,,,,,,,,,,,,,,,,,,,,,1,0,1,0,1,,,,,,,,,,,,,,,,,,,,,,,,,,,,,,,,,,,,,,,,,,,,,,,,,,,,,,,,,,
,,,,,,,,,,1602883,2020-10-29_11h25.06.658,swahili,2020.2.4,Win32,60,,,,,,,,,,,,,,,,,,,,,,,,,,,,,,,,,,,,,,,,,,,,,2,0,2,0,1,,,,,,,,,,,,,,,,,,,,,,,,,,,,,,,,,,,,,,,,,,,,,,,,,,,,,
,,,,,,,,,,1602883,2020-10-29_11h25.06.658,swahili,2020.2.4,Win32,60,,,,,,,,,,-0.151041654,0.046296282,1,0,0,1.32933,unsorted_card,0,0,0,0,1,,,,,,,,,,,,,,,,,,,,,,,,,,,,,,,,,,,,,,,,,,,,,,,,,,,,,,,,,,,,,,,,,,,,,,,,,,,,,,,,,
,,,,,,,,,,1602883,2020-10-29_11h25.06.658,swahili,2020.2.4,Win32,60,,,,,,,,,,0.57291669,-0.561111134,1,0,0,0.614925,done_pile,1,0,1,0,1,MERCHANT - TAJIRI,,,,,,,,,,,,,,,,,,,,,,,,,,,,,,,,,,,,,,,,,,,,,,,,,,,,,,,,,,,,,,,,,,,,,,,,,,,,,,,,
,,,,,,,,,,1602883,2020-10-29_11h25.06.658,swahili,2020.2.4,Win32,60,,,,,,,,,,-0.223958322,-0.268518537,1,0,0,0.830605,unsorted_card,2,0,2,0,1,,,,,,,,,,,,,,,,,,,,,,,,,,,,,,,,,,,,,,,,,,,,,,,,,,,,,,,,,,,,,,,,,,,,,,,,,,,,,,,,,
,,,,,,,,,,1602883,2020-10-29_11h25.06.658,swahili,2020.2.4,Win32,60,,,,,,,,,,0.56354169,-0.49444458,1,0,0,0.61508,done_pile,3,0,3,0,1,PARROT - KASUKU,,,,,,,,,,,,,,,,,,,,,,,,,,,,,,,,,,,,,,,,,,,,,,,,,,,,,,,,,,,,,,,,,,,,,,,,,,,,,,,,
,,,,,,,,,,1602883,2020-10-29_11h25.06.658,swahili,2020.2.4,Win32,60,,,,,,,,,,-0.247916592,-0.148148165,1,0,0,0.54783,unsorted_card,4,0,4,0,1,,,,,,,,,,,,,,,,,,,,,,,,,,,,,,,,,,,,,,,,,,,,,,,,,,,,,,,,,,,,,,,,,,,,,,,,,,,,,,,,,
,,,,,,,,,,1602883,2020-10-29_11h25.06.658,swahili,2020.2.4,Win32,60,,,,,,,,,,0.459375022,-0.49444458,1,0,0,0.564885,done_pile,5,0,5,0,1,BULL - FAHILI,,,,,,,,,,,,,,,,,,,,,,,,,,,,,,,,,,,,,,,,,,,,,,,,,,,,,,,,,,,,,,,,,,,,,,,,,,,,,,,,
,,,,,,,,,,1602883,2020-10-29_11h25.06.658,swahili,2020.2.4,Win32,60,,,,,,,,,,-0.32812499,0.059259245,1,0,0,0.581225,unsorted_card,6,0,6,0,1,,,,,,,,,,,,,,,,,,,,,,,,,,,,,,,,,,,,,,,,,,,,,,,,,,,,,,,,,,,,,,,,,,,,,,,,,,,,,,,,,
,,,,,,,,,,1602883,2020-10-29_11h25.06.658,swahili,2020.2.4,Win32,60,,,,,,,,,,0.35937502,-0.577777914,1,0,0,0.53134,done_pile,7,0,7,0,1,PLATE - SAHANI,,,,,,,,,,,,,,,,,,,,,,,,,,,,,,,,,,,,,,,,,,,,,,,,,,,,,,,,,,,,,,,,,,,,,,,,,,,,,,,,
,,,,,,,,,,1602883,2020-10-29_11h25.06.658,swahili,2020.2.4,Win32,60,,,,,,,,,,-0.35937499,-0.022222237,1,0,0,0.46368,unsorted_card,8,0,8,0,1,,,,,,,,,,,,,,,,,,,,,,,,,,,,,,,,,,,,,,,,,,,,,,,,,,,,,,,,,,,,,,,,,,,,,,,,,,,,,,,,,
,,,,,,,,,,1602883,2020-10-29_11h25.06.658,swahili,2020.2.4,Win32,60,,,,,,,,,,0.427083355,-0.542592616,1,0,0,0.59843,done_pile,9,0,9,0,1,YEAST - HAMIRA,,,,,,,,,,,,,,,,,,,,,,,,,,,,,,,,,,,,,,,,,,,,,,,,,,,,,,,,,,,,,,,,,,,,,,,,,,,,,,,,
,,,,,,,,,,1602883,2020-10-29_11h25.06.658,swahili,2020.2.4,Win32,60,,,,,,,,,,-0.326041593,-0.007407422,1,0,0,0.464535,unsorted_card,10,0,10,0,1,,,,,,,,,,,,,,,,,,,,,,,,,,,,,,,,,,,,,,,,,,,,,,,,,,,,,,,,,,,,,,,,,,,,,,,,,,,,,,,,,
,,,,,,,,,,1602883,2020-10-29_11h25.06.658,swahili,2020.2.4,Win32,60,,,,,,,,,,0.475000022,-0.525925949,1,0,0,0.631855,done_pile,11,0,11,0,1,BLAME - LAWAMA,,,,,,,,,,,,,,,,,,,,,,,,,,,,,,,,,,,,,,,,,,,,,,,,,,,,,,,,,,,,,,,,,,,,,,,,,,,,,,,,
,,,,,,,,,,1602883,2020-10-29_11h25.06.658,swahili,2020.2.4,Win32,60,,,,,,,,,,-0.295833323,-0.096296313,1,0,0,0.46432,unsorted_card,12,0,12,0,1,,,,,,,,,,,,,,,,,,,,,,,,,,,,,,,,,,,,,,,,,,,,,,,,,,,,,,,,,,,,,,,,,,,,,,,,,,,,,,,,,
,,,,,,,,,,1602883,2020-10-29_11h25.06.658,swahili,2020.2.4,Win32,60,,,,,,,,,,0.34375002,-0.514814837,1,0,0,0.680925,done_pile,13,0,13,0,1,OATH - YAMINI,,,,,,,,,,,,,,,,,,,,,,,,,,,,,,,,,,,,,,,,,,,,,,,,,,,,,,,,,,,,,,,,,,,,,,,,,,,,,,,,
,,,,,,,,,,1602883,2020-10-29_11h25.06.658,swahili,2020.2.4,Win32,60,,,,,,,,,,-0.288541656,-0.105555572,1,0,0,0.49811,unsorted_card,14,0,14,0,1,,,,,,,,,,,,,,,,,,,,,,,,,,,,,,,,,,,,,,,,,,,,,,,,,,,,,,,,,,,,,,,,,,,,,,,,,,,,,,,,,
,,,,,,,,,,1602883,2020-10-29_11h25.06.658,swahili,2020.2.4,Win32,60,,,,,,,,,,0.529166689,-0.56666669,1,0,0,0.698065,done_pile,15,0,15,0,1,CORN - NAFAKA,,,,,,,,,,,,,,,,,,,,,,,,,,,,,,,,,,,,,,,,,,,,,,,,,,,,,,,,,,,,,,,,,,,,,,,,,,,,,,,,
,,,,,,,,,,1602883,2020-10-29_11h25.06.658,swahili,2020.2.4,Win32,60,,,,,,,,,,-0.201041591,-0.081481498,1,0,0,0.630005,unsorted_card,16,0,16,0,1,,,,,,,,,,,,,,,,,,,,,,,,,,,,,,,,,,,,,,,,,,,,,,,,,,,,,,,,,,,,,,,,,,,,,,,,,,,,,,,,,
,,,,,,,,,,1602883,2020-10-29_11h25.06.658,swahili,2020.2.4,Win32,60,,,,,,,,,,0.384375148,-0.535185208,1,0,0,0.59753,done_pile,17,0,17,0,1,POEM - UTENZI,,,,,,,,,,,,,,,,,,,,,,,,,,,,,,,,,,,,,,,,,,,,,,,,,,,,,,,,,,,,,,,,,,,,,,,,,,,,,,,,
,,,,,,,,,,1602883,2020-10-29_11h25.06.658,swahili,2020.2.4,Win32,60,,,,,,,,,,-0.255208322,-0.040740756,1,0,0,0.71455,unsorted_card,18,0,18,0,1,,,,,,,,,,,,,,,,,,,,,,,,,,,,,,,,,,,,,,,,,,,,,,,,,,,,,,,,,,,,,,,,,,,,,,,,,,,,,,,,,
,,,,,,,,,,1602883,2020-10-29_11h25.06.658,swahili,2020.2.4,Win32,60,,,,,,,,,,0.469791689,-0.49444458,1,0,0,0.747545,done_pile,19,0,19,0,1,TAILOR - MSHONI,,,,,,,,,,,,,,,,,,,,,,,,,,,,,,,,,,,,,,,,,,,,,,,,,,,,,,,,,,,,,,,,,,,,,,,,,,,,,,,,
,,,,,,,,,,1602883,2020-10-29_11h25.06.658,swahili,2020.2.4,Win32,60,,,,,,,,,,-0.211458258,-0.111111128,1,0,0,0.548235,unsorted_card,20,0,20,0,1,,,,,,,,,,,,,,,,,,,,,,,,,,,,,,,,,,,,,,,,,,,,,,,,,,,,,,,,,,,,,,,,,,,,,,,,,,,,,,,,,
,,,,,,,,,,1602883,2020-10-29_11h25.06.658,swahili,2020.2.4,Win32,60,,,,,,,,,,0.391666687,-0.524074097,1,0,0,0.614205,done_pile,21,0,21,0,1,GRAPES - ZABIBU,,,,,,,,,,,,,,,,,,,,,,,,,,,,,,,,,,,,,,,,,,,,,,,,,,,,,,,,,,,,,,,,,,,,,,,,,,,,,,,,
,,,,,,,,,,1602883,2020-10-29_11h25.06.658,swahili,2020.2.4,Win32,60,,,,,,,,,,-0.299999926,-0.051851868,1,0,0,0.51445,unsorted_card,22,0,22,0,1,,,,,,,,,,,,,,,,,,,,,,,,,,,,,,,,,,,,,,,,,,,,,,,,,,,,,,,,,,,,,,,,,,,,,,,,,,,,,,,,,
,,,,,,,,,,1602883,2020-10-29_11h25.06.658,swahili,2020.2.4,Win32,60,,,,,,,,,,0.387500021,-0.503703839,1,0,0,0.630935,done_pile,23,0,23,0,1,GRAVE - KABURI,,,,,,,,,,,,,,,,,,,,,,,,,,,,,,,,,,,,,,,,,,,,,,,,,,,,,,,,,,,,,,,,,,,,,,,,,,,,,,,,
,,,,,,,,,,1602883,2020-10-29_11h25.06.658,swahili,2020.2.4,Win32,60,,,,,,,,,,-0.279166592,0.042592578,1,0,0,0.548265,unsorted_card,24,0,24,0,1,,,,,,,,,,,,,,,,,,,,,,,,,,,,,,,,,,,,,,,,,,,,,,,,,,,,,,,,,,,,,,,,,,,,,,,,,,,,,,,,,
,,,,,,,,,,1602883,2020-10-29_11h25.06.658,swahili,2020.2.4,Win32,60,,,,,,,,,,0.337500147,-0.446296318,1,0,0,0.730935,done_pile,25,0,25,0,1,MANURE - SAMADI,,,,,,,,,,,,,,,,,,,,,,,,,,,,,,,,,,,,,,,,,,,,,,,,,,,,,,,,,,,,,,,,,,,,,,,,,,,,,,,,
,,,,,,,,,,1602883,2020-10-29_11h25.06.658,swahili,2020.2.4,Win32,60,,,,,,,,,,-0.271874989,-0.018518534,1,0,0,0.447845,unsorted_card,26,0,26,0,1,,,,,,,,,,,,,,,,,,,,,,,,,,,,,,,,,,,,,,,,,,,,,,,,,,,,,,,,,,,,,,,,,,,,,,,,,,,,,,,,,
,,,,,,,,,,1602883,2020-10-29_11h25.06.658,swahili,2020.2.4,Win32,60,,,,,,,,,,0.401041688,-0.427777799,1,0,0,0.597595,done_pile,27,0,27,0,1,BRIBE - RUSHWA,,,,,,,,,,,,,,,,,,,,,,,,,,,,,,,,,,,,,,,,,,,,,,,,,,,,,,,,,,,,,,,,,,,,,,,,,,,,,,,,
,,,,,,,,,,1602883,2020-10-29_11h25.06.658,swahili,2020.2.4,Win32,60,,,,,,,,,,-0.256249989,-0.012962978,1,0,0,0.531335,unsorted_card,28,0,28,0,1,,,,,,,,,,,,,,,,,,,,,,,,,,,,,,,,,,,,,,,,,,,,,,,,,,,,,,,,,,,,,,,,,,,,,,,,,,,,,,,,,
,,,,,,,,,,1602883,2020-10-29_11h25.06.658,swahili,2020.2.4,Win32,60,,,,,,,,,,0.344791687,-0.551851875,1,0,0,0.764765,done_pile,29,0,29,0,1,ORPHAN - YATIMA,,,,,,,,,,,,,,,,,,,,,,,,,,,,,,,,,,,,,,,,,,,,,,,,,,,,,,,,,,,,,,,,,,,,,,,,,,,,,,,,
,,,,,,,,,,1602883,2020-10-29_11h25.06.658,swahili,2020.2.4,Win32,60,,,,,,,,,,-0.264583322,-0.037037052,1,0,0,0.44714,unsorted_card,30,0,30,0,1,,,,,,,,,,,,,,,,,,,,,,,,,,,,,,,,,,,,,,,,,,,,,,,,,,,,,,,,,,,,,,,,,,,,,,,,,,,,,,,,,
,,,,,,,,,,1602883,2020-10-29_11h25.06.658,swahili,2020.2.4,Win32,60,,,,,,,,,,0.422916688,-0.472222244,1,0,0,0.632005,done_pile,31,0,31,0,1,DIVORCE - TALAKA,,,,,,,,,,,,,,,,,,,,,,,,,,,,,,,,,,,,,,,,,,,,,,,,,,,,,,,,,,,,,,,,,,,,,,,,,,,,,,,,
,,,,,,,,,,1602883,2020-10-29_11h25.06.658,swahili,2020.2.4,Win32,60,,,,,,,,,,-0.290624989,0.022222208,1,0,0,0.530635,unsorted_card,32,0,32,0,1,,,,,,,,,,,,,,,,,,,,,,,,,,,,,,,,,,,,,,,,,,,,,,,,,,,,,,,,,,,,,,,,,,,,,,,,,,,,,,,,,
,,,,,,,,,,1602883,2020-10-29_11h25.06.658,swahili,2020.2.4,Win32,60,,,,,,,,,,0.401041688,-0.555555579,1,0,0,0.56464,done_pile,33,0,33,0,1,BOAT - MASHUA,,,,,,,,,,,,,,,,,,,,,,,,,,,,,,,,,,,,,,,,,,,,,,,,,,,,,,,,,,,,,,,,,,,,,,,,,,,,,,,,
,,,,,,,,,,1602883,2020-10-29_11h25.06.658,swahili,2020.2.4,Win32,60,,,,,,,,,,-0.237499925,-0.003703719,1,0,0,0.447385,unsorted_card,34,0,34,0,1,,,,,,,,,,,,,,,,,,,,,,,,,,,,,,,,,,,,,,,,,,,,,,,,,,,,,,,,,,,,,,,,,,,,,,,,,,,,,,,,,
,,,,,,,,,,1602883,2020-10-29_11h25.06.658,swahili,2020.2.4,Win32,60,,,,,,,,,,0.488541816,-0.559259396,1,0,0,0.48102,done_pile,35,0,35,0,1,TREASURE - DAFINA,,,,,,,,,,,,,,,,,,,,,,,,,,,,,,,,,,,,,,,,,,,,,,,,,,,,,,,,,,,,,,,,,,,,,,,,,,,,,,,,
,,,,,,,,,,1602883,2020-10-29_11h25.06.658,swahili,2020.2.4,Win32,60,,,,,,,,,,,,,,,,,,,,,,,,,,,,,,,,,,,,,,,,0,0,0,0,1,,,,,,,,,,,,,,,,,,,,,,,,,,,,,,,,,,,,,,,,,,,,,,,,,,,,,,,,,,
,,,,,,,,,,1602883,2020-10-29_11h25.06.658,swahili,2020.2.4,Win32,60,,,,,,,,,,,,,,,,,,,,,,,,,,,,,,,,,,,,,,,,1,0,1,0,1,,,,,,,,,,,,,,,,,,,,,,,,,,,,,,,,,,,,,,,,,,,,,,,,,,,,,,,,,,
,,,,,,,,,,1602883,2020-10-29_11h25.06.658,swahili,2020.2.4,Win32,60,,,,,,,,TAJIRI,MERCHANT,,,,,,,,,,,,,,,,,,,,,,,,,,,,,,,,,,,,,,,,,,5.866865,,,,,,,,,JABINI,incorrect,,,,,,return,2.058555,return,0.650995,return,2.360925,0,0,0,0,1,,,,,,,,,,,,,,,,,,,,,,,,,
,,,,,,,,,,1602883,2020-10-29_11h25.06.658,swahili,2020.2.4,Win32,60,,,,,,,,MASHUA,BOAT,,,,,,,,,,,,,,,,,,,,,,,,,,,,,,,,,,,,,,,,,,2.945685,,,,,,,,,TWAHA,incorrect,,,,,,,,,,,,0,1,1,18,1,,,,,,,,,,,,,,,,,,,,,,,,,
,,,,,,,,,,1602883,2020-10-29_11h25.06.658,swahili,2020.2.4,Win32,60,,,,,,,,KABURI,GRAVE,,,,,,,,,,,,,,,,,,,,,,,,,,,,,,,,,,,,,,,,,,3.079935,,,,,,,,,KABUKI,incorrect,,,,,,,,,,,,0,2,2,12,1,,,,,,,,,,,,,,,,,,,,,,,,,
,,,,,,,,,,1602883,2020-10-29_11h25.06.658,swahili,2020.2.4,Win32,60,,,,,,,,SAMADI,MANURE,,,,,,,,,,,,,,,,,,,,,,,,,,,,,,,,,,,,,,,,,,3.447005,,,,,,,,,KAHWE,incorrect,,,,,,,,,,,,0,3,3,13,1,,,,,,,,,,,,,,,,,,,,,,,,,
,,,,,,,,,,1602883,2020-10-29_11h25.06.658,swahili,2020.2.4,Win32,60,,,,,,,,UTENZI,POEM,,,,,,,,,,,,,,,,,,,,,,,,,,,,,,,,,,,,,,,,,,4.36272,,,,,,,,,JAJEB,incorrect,,,,,,,,,,,,0,4,4,8,1,,,,,,,,,,,,,,,,,,,,,,,,,
,,,,,,,,,,1602883,2020-10-29_11h25.06.658,swahili,2020.2.4,Win32,60,,,,,,,,MSHONI,TAILOR,,,,,,,,,,,,,,,,,,,,,,,,,,,,,,,,,,,,,,,,,,1.847135,,,,,,,,,OEJR,incorrect,,,,,,,,,,,,0,5,5,9,1,,,,,,,,,,,,,,,,,,,,,,,,,
,,,,,,,,,,1602883,2020-10-29_11h25.06.658,swahili,2020.2.4,Win32,60,,,,,,,,YAMINI,OATH,,,,,,,,,,,,,,,,,,,,,,,,,,,,,,,,,,,,,,,,,,1.314885,,,,,,,,,EOJG,incorrect,,,,,,,,,,,,0,6,6,6,1,,,,,,,,,,,,,,,,,,,,,,,,,
,,,,,,,,,,1602883,2020-10-29_11h25.06.658,swahili,2020.2.4,Win32,60,,,,,,,,HAMIRA,YEAST,,,,,,,,,,,,,,,,,,,,,,,,,,,,,,,,,,,,,,,,,,1.74831,,,,,,,,,JGJRG,incorrect,,,,,,,,,,,,0,7,7,4,1,,,,,,,,,,,,,,,,,,,,,,,,,
,,,,,,,,,,1602883,2020-10-29_11h25.06.658,swahili,2020.2.4,Win32,60,,,,,,,,SAHANI,PLATE,,,,,,,,,,,,,,,,,,,,,,,,,,,,,,,,,,,,,,,,,,1.648085,,,,,,,,,JEOJ,incorrect,,,,,,,,,,,,0,8,8,3,1,,,,,,,,,,,,,,,,,,,,,,,,,
,,,,,,,,,,1602883,2020-10-29_11h25.06.658,swahili,2020.2.4,Win32,60,,,,,,,,YATIMA,ORPHAN,,,,,,,,,,,,,,,,,,,,,,,,,,,,,,,,,,,,,,,,,,3.94726,,,,,,,,,MWONI,incorrect,,,,,,,,,,,,0,9,9,16,1,,,,,,,,,,,,,,,,,,,,,,,,,
,,,,,,,,,,1602883,2020-10-29_11h25.06.658,swahili,2020.2.4,Win32,60,,,,,,,,LAWAMA,BLAME,,,,,,,,,,,,,,,,,,,,,,,,,,,,,,,,,,,,,,,,,,3.213335,,,,,,,,,MALAW,incorrect,,,,,,,,,,,,0,10,10,5,1,,,,,,,,,,,,,,,,,,,,,,,,,
,,,,,,,,,,1602883,2020-10-29_11h25.06.658,swahili,2020.2.4,Win32,60,,,,,,,,RUSHWA,BRIBE,,,,,,,,,,,,,,,,,,,,,,,,,,,,,,,,,,,,,,,,,,1.96461,,,,,,,,,MALWA,incorrect,,,,,,,,,,,,0,11,11,15,1,,,,,,,,,,,,,,,,,,,,,,,,,
,,,,,,,,,,1602883,2020-10-29_11h25.06.658,swahili,2020.2.4,Win32,60,,,,,,,,TALAKA,DIVORCE,,,,,,,,,,,,,,,,,,,,,,,,,,,,,,,,,,,,,,,,,,3.597135,,,,,,,,,MALAWA,incorrect,,,,,,,,,,,,0,12,12,17,1,,,,,,,,,,,,,,,,,,,,,,,,,
,,,,,,,,,,1602883,2020-10-29_11h25.06.658,swahili,2020.2.4,Win32,60,,,,,,,,WAKILI,AGENT,,,,,,,,,,,,,,,,,,,,,,,,,,,,,,,,,,,,,,,,,,5.195455,,,,,,,,,WAKILI,correct,,,,,,,,,,,,0,13,13,14,1,,,,,,,,,,,,,,,,,,,,,,,,,
,,,,,,,,,,1602883,2020-10-29_11h25.06.658,swahili,2020.2.4,Win32,60,,,,,,,,JIBINI,CHEESE,,,,,,,,,,,,,,,,,,,,,,,,,,,,,,,,,,,,,,,,,,2.363765,,,,,,,,,JABINI,incorrect,,,,,,,,,,,,0,14,14,10,1,,,,,,,,,,,,,,,,,,,,,,,,,
,,,,,,,,,,1602883,2020-10-29_11h25.06.658,swahili,2020.2.4,Win32,60,,,,,,,,DAFINA,TREASURE,,,,,,,,,,,,,,,,,,,,,,,,,,,,,,,,,,,,,,,,,,3.114055,,,,,,,,,WEJGB,incorrect,,,,,,,,,,,,0,15,15,19,1,,,,,,,,,,,,,,,,,,,,,,,,,
,,,,,,,,,,1602883,2020-10-29_11h25.06.658,swahili,2020.2.4,Win32,60,,,,,,,,FAHILI,BULL,,,,,,,,,,,,,,,,,,,,,,,,,,,,,,,,,,,,,,,,,,2.230495,,,,,,,,,JWWE,incorrect,,,,,,,,,,,,0,16,16,2,1,,,,,,,,,,,,,,,,,,,,,,,,,
,,,,,,,,,,1602883,2020-10-29_11h25.06.658,swahili,2020.2.4,Win32,60,,,,,,,,KASUKU,PARROT,,,,,,,,,,,,,,,,,,,,,,,,,,,,,,,,,,,,,,,,,,2.84868,,,,,,,,,KOWRB,incorrect,,,,,,,,,,,,0,17,17,1,1,,,,,,,,,,,,,,,,,,,,,,,,,
,,,,,,,,,,1602883,2020-10-29_11h25.06.658,swahili,2020.2.4,Win32,60,,,,,,,,ZABIBU,GRAPES,,,,,,,,,,,,,,,,,,,,,,,,,,,,,,,,,,,,,,,,,,3.562665,,,,,,,,,BABER,incorrect,,,,,,,,,,,,0,18,18,11,1,,,,,,,,,,,,,,,,,,,,,,,,,
,,,,,,,,,,1602883,2020-10-29_11h25.06.658,swahili,2020.2.4,Win32,60,,,,,,,,NAFAKA,CORN,,,,,,,,,,,,,,,,,,,,,,,,,,,,,,,,,,,,,,,,,,5.5457,,,,,,,,,NWEG,incorrect,,,,,,,,,,,,0,19,19,7,1,,,,,,,,,,,,,,,,,,,,,,,,,
,,,,,,,,,,1602883,2020-10-29_11h25.06.658,swahili,2020.2.4,Win32,60,,,,,,,,,,,,,,,,,,,,,,,,,,,,,,,,,,,,,,,,,,,,,,,,,,,,,,,,,,,,,,,,,,,,,,,,,,,,,,0,0,0,0,1,I bought all my goods from the ____ at the market. ,TAJIRI,,,,,,,,,,,,,,,,,,
,,,,,,,,,,1602883,2020-10-29_11h25.06.658,swahili,2020.2.4,Win32,60,,,,,,,,,,,,,,,,,,,,,,,,,,,,,,,,,,,,,,,,,,,,,,,,,,,,,,,,,,,,,,,,,,,,,,,,,,,,,,0,1,1,1,1,The ____ is a bird that can learn to repeat words.,KASUKU,,,,,,,,,,,,,,,,,,
,,,,,,,,,,1602883,2020-10-29_11h25.06.658,swahili,2020.2.4,Win32,60,,,,,,,,,,,,,,,,,,,,,,,,,,,,,,,,,,,,,,,,,,,,,,,,,,,,,,,,,,,,,,,,,,,,,,,,,,,,,,0,2,2,2,1,The ____ charged the matador's red cape. ,FAHILI,,,,,,,,,,,,,,,,,,
,,,,,,,,,,1602883,2020-10-29_11h25.06.658,swahili,2020.2.4,Win32,60,,,,,,,,,,,,,,,,,,,,,,,,,,,,,,,,,,,,,,,,,,,,,,,,,,,,,,,,,,,,,,,,,,,,,,,,,,,,,,0,3,3,3,1,I filled my ____ with food at the buffet. ,SAHANI,,,,,,,,,,,,,,,,,,
,,,,,,,,,,1602883,2020-10-29_11h25.06.658,swahili,2020.2.4,Win32,60,,,,,,,,,,,,,,,,,,,,,,,,,,,,,,,,,,,,,,,,,,,,,,,,,,,,,,,,,,,,,,,,,,,,,,,,,,,,,,0,4,4,4,1,_____ makes bread rise. ,HAMIRA,,,,,,,,,,,,,,,,,,
,,,,,,,,,,1602883,2020-10-29_11h25.06.658,swahili,2020.2.4,Win32,60,,,,,,,,,,,,,,,,,,,,,,,,,,,,,,,,,,,,,,,,,,,,,,,,,,,,,,,,,,,,,,,,,,,,,,,,,,,,,,0,5,5,5,1,Shannon had no one else to  ____ for what happened.,LAWAMA,,,,,,,,,,,,,,,,,,
,,,,,,,,,,1602883,2020-10-29_11h25.06.658,swahili,2020.2.4,Win32,60,,,,,,,,,,,,,,,,,,,,,,,,,,,,,,,,,,,,,,,,,,,,,,,,,,,,,,,,,,,,,,,,,,,,,,,,,,,,,,0,6,6,6,1,The president takes the  ____ of office to uphold the Constitution.,YAMINI,,,,,,,,,,,,,,,,,,
,,,,,,,,,,1602883,2020-10-29_11h25.06.658,swahili,2020.2.4,Win32,60,,,,,,,,,,,,,,,,,,,,,,,,,,,,,,,,,,,,,,,,,,,,,,,,,,,,,,,,,,,,,,,,,,,,,,,,,,,,,,0,7,7,7,1,Kate doesn't like ____ on the cob because it gets stuck between her teeth. ,NAFAKA,,,,,,,,,,,,,,,,,,
,,,,,,,,,,1602883,2020-10-29_11h25.06.658,swahili,2020.2.4,Win32,60,,,,,,,,,,,,,,,,,,,,,,,,,,,,,,,,,,,,,,,,,,,,,,,,,,,,,,,,,,,,,,,,,,,,,,,,,,,,,,0,8,8,8,1,David wrote Cynthia a romantic ____  but she thought it rhymed too much.,UTENZI,,,,,,,,,,,,,,,,,,
,,,,,,,,,,1602883,2020-10-29_11h25.06.658,swahili,2020.2.4,Win32,60,,,,,,,,,,,,,,,,,,,,,,,,,,,,,,,,,,,,,,,,,,,,,,,,,,,,,,,,,,,,,,,,,,,,,,,,,,,,,,0,9,9,9,1,Charles went to the ____ to get his suit adjusted. ,MSHONI,,,,,,,,,,,,,,,,,,
,,,,,,,,,,1602883,2020-10-29_11h25.06.658,swahili,2020.2.4,Win32,60,,,,,,,,,,,,,,,,,,,,,,,,,,,,,,,,,,,,,,,,,,,,,,,,,,,,,,,,,,,,,,,,,,,,,,,,,,,,,,0,10,10,10,1,Amy cooked a grilled ____ sandwich to go with her tomato soup.,JIBINI,,,,,,,,,,,,,,,,,,
,,,,,,,,,,1602883,2020-10-29_11h25.06.658,swahili,2020.2.4,Win32,60,,,,,,,,,,,,,,,,,,,,,,,,,,,,,,,,,,,,,,,,,,,,,,,,,,,,,,,,,,,,,,,,,,,,,,,,,,,,,,0,11,11,11,1,Fermented _______ are used to make wine.,ZABIBU,,,,,,,,,,,,,,,,,,
,,,,,,,,,,1602883,2020-10-29_11h25.06.658,swahili,2020.2.4,Win32,60,,,,,,,,,,,,,,,,,,,,,,,,,,,,,,,,,,,,,,,,,,,,,,,,,,,,,,,,,,,,,,,,,,,,,,,,,,,,,,0,12,12,12,1,She visited her father's ___ on the anniversary of his death. ,KABURI,,,,,,,,,,,,,,,,,,
,,,,,,,,,,1602883,2020-10-29_11h25.06.658,swahili,2020.2.4,Win32,60,,,,,,,,,,,,,,,,,,,,,,,,,,,,,,,,,,,,,,,,,,,,,,,,,,,,,,,,,,,,,,,,,,,,,,,,,,,,,,0,13,13,13,1,"On a farm, there is a good chance you will step into a pile of ______.",SAMADI,,,,,,,,,,,,,,,,,,
,,,,,,,,,,1602883,2020-10-29_11h25.06.658,swahili,2020.2.4,Win32,60,,,,,,,,,,,,,,,,,,,,,,,,,,,,,,,,,,,,,,,,,,,,,,,,,,,,,,,,,,,,,,,,,,,,,,,,,,,,,,0,14,14,14,1,"To buy a house, you may need to speak with a real estate ______.",WAKILI,,,,,,,,,,,,,,,,,,
,,,,,,,,,,1602883,2020-10-29_11h25.06.658,swahili,2020.2.4,Win32,60,,,,,,,,,,,,,,,,,,,,,,,,,,,,,,,,,,,,,,,,,,,,,,,,,,,,,,,,,,,,,,,,,,,,,,,,,,,,,,0,15,15,15,1,The politician was arrested for taking a _____.,RUSHWA,,,,,,,,,,,,,,,,,,
,,,,,,,,,,1602883,2020-10-29_11h25.06.658,swahili,2020.2.4,Win32,60,,,,,,,,,,,,,,,,,,,,,,,,,,,,,,,,,,,,,,,,,,,,,,,,,,,,,,,,,,,,,,,,,,,,,,,,,,,,,,0,16,16,16,1,The _____ is living with foster parents.,YATIMA,,,,,,,,,,,,,,,,,,
,,,,,,,,,,1602883,2020-10-29_11h25.06.658,swahili,2020.2.4,Win32,60,,,,,,,,,,,,,,,,,,,,,,,,,,,,,,,,,,,,,,,,,,,,,,,,,,,,,,,,,,,,,,,,,,,,,,,,,,,,,,0,17,17,17,1,My aunt and uncle got a _________ after two years of marriage.,TALAKA,,,,,,,,,,,,,,,,,,
,,,,,,,,,,1602883,2020-10-29_11h25.06.658,swahili,2020.2.4,Win32,60,,,,,,,,,,,,,,,,,,,,,,,,,,,,,,,,,,,,,,,,,,,,,,,,,,,,,,,,,,,,,,,,,,,,,,,,,,,,,,0,18,18,18,1,You need a ______ to go fishing in the middle of a lake.,MASHUA,,,,,,,,,,,,,,,,,,
,,,,,,,,,,1602883,2020-10-29_11h25.06.658,swahili,2020.2.4,Win32,60,,,,,,,,,,,,,,,,,,,,,,,,,,,,,,,,,,,,,,,,,,,,,,,,,,,,,,,,,,,,,,,,,,,,,,,,,,,,,,0,19,19,19,1,Pirates looked for buried _________ at the bottom of the sea.,DAFINA,,,,,,,,,,,,,,,,,,
,,,,,,,,,,1602883,2020-10-29_11h25.06.658,swahili,2020.2.4,Win32,60,,,,,,,,,,,,,,,,,,,,,,,,,,,,,,,,,,,,,,,,,,,,,,,,,,,,,,,,,,,,,,,,,,,,,,,,,,,,,,,,,,,My aunt and uncle got a _________ after two years of marriage.,TALAKA,return,1.03937,YAMINI,incorrect,-0.357291657,-0.479629652,1,0,0,5.54438,a,0,0,0,17,1,,
,,,,,,,,,,1602883,2020-10-29_11h25.06.658,swahili,2020.2.4,Win32,60,,,,,,,,,,,,,,,,,,,,,,,,,,,,,,,,,,,,,,,,,,,,,,,,,,,,,,,,,,,,,,,,,,,,,,,,,,,,,,,,,,,"To buy a house, you may need to speak with a real estate ______.",WAKILI,,,WAKILI,correct,0.398958354,-0.412962984,1,0,0,4.55495,c,0,1,1,14,1,,
,,,,,,,,,,1602883,2020-10-29_11h25.06.658,swahili,2020.2.4,Win32,60,,,,,,,,,,,,,,,,,,,,,,,,,,,,,,,,,,,,,,,,,,,,,,,,,,,,,,,,,,,,,,,,,,,,,,,,,,,,,,,,,,,The _____ is living with foster parents.,YATIMA,,,KABURI,incorrect,-0.446874992,-0.516666689,1,0,0,5.007835,a,0,2,2,16,1,,
,,,,,,,,,,1602883,2020-10-29_11h25.06.658,swahili,2020.2.4,Win32,60,,,,,,,,,,,,,,,,,,,,,,,,,,,,,,,,,,,,,,,,,,,,,,,,,,,,,,,,,,,,,,,,,,,,,,,,,,,,,,,,,,,The ____ is a bird that can learn to repeat words.,KASUKU,,,KASUKU,correct,0.040625016,-0.479629652,1,0,0,3.807875,b,0,3,3,1,1,,
,,,,,,,,,,1602883,2020-10-29_11h25.06.658,swahili,2020.2.4,Win32,60,,,,,,,,,,,,,,,,,,,,,,,,,,,,,,,,,,,,,,,,,,,,,,,,,,,,,,,,,,,,,,,,,,,,,,,,,,,,,,,,,,,The ____ charged the matador's red cape. ,FAHILI,,,TAJIRI,incorrect,0.438541688,-0.455555577,1,0,0,4.40894,c,0,4,4,2,1,,
,,,,,,,,,,1602883,2020-10-29_11h25.06.658,swahili,2020.2.4,Win32,60,,,,,,,,,,,,,,,,,,,,,,,,,,,,,,,,,,,,,,,,,,,,,,,,,,,,,,,,,,,,,,,,,,,,,,,,,,,,,,,,,,,The politician was arrested for taking a _____.,RUSHWA,,,RUSHWA,correct,0.050000016,-0.50740743,1,0,0,2.957525,b,0,5,5,15,1,,
,,,,,,,,,,1602883,2020-10-29_11h25.06.658,swahili,2020.2.4,Win32,60,,,,,,,,,,,,,,,,,,,,,,,,,,,,,,,,,,,,,,,,,,,,,,,,,,,,,,,,,,,,,,,,,,,,,,,,,,,,,,,,,,,The president takes the  ____ of office to uphold the Constitution.,YAMINI,,,TAJIRI,incorrect,-0.048958319,-0.56666669,1,0,0,4.991765,b,0,6,6,6,1,,
,,,,,,,,,,1602883,2020-10-29_11h25.06.658,swahili,2020.2.4,Win32,60,,,,,,,,,,,,,,,,,,,,,,,,,,,,,,,,,,,,,,,,,,,,,,,,,,,,,,,,,,,,,,,,,,,,,,,,,,,,,,,,,,,Kate doesn't like ____ on the cob because it gets stuck between her teeth. ,NAFAKA,,,NAFAKA,correct,-0.397916658,-0.522222358,1,0,0,2.875245,a,0,7,7,7,1,,
,,,,,,,,,,1602883,2020-10-29_11h25.06.658,swahili,2020.2.4,Win32,60,,,,,,,,,,,,,,,,,,,,,,,,,,,,,,,,,,,,,,,,,,,,,,,,,,,,,,,,,,,,,,,,,,,,,,,,,,,,,,,,,,,I bought all my goods from the ____ at the market. ,TAJIRI,,,TAJIRI,correct,-0.456249992,-0.487037059,1,0,0,4.14284,a,0,8,8,0,1,,
,,,,,,,,,,1602883,2020-10-29_11h25.06.658,swahili,2020.2.4,Win32,60,,,,,,,,,,,,,,,,,,,,,,,,,,,,,,,,,,,,,,,,,,,,,,,,,,,,,,,,,,,,,,,,,,,,,,,,,,,,,,,,,,,David wrote Cynthia a romantic ____  but she thought it rhymed too much.,UTENZI,,,UTENZI,correct,-0.53854166,-0.492592615,1,0,0,2.34514,a,0,9,9,8,1,,
,,,,,,,,,,1602883,2020-10-29_11h25.06.658,swahili,2020.2.4,Win32,60,,,,,,,,,,,,,,,,,,,,,,,,,,,,,,,,,,,,,,,,,,,,,,,,,,,,,,,,,,,,,,,,,,,,,,,,,,,,,,,,,,,_____ makes bread rise. ,HAMIRA,,,SAMADI,incorrect,-0.326041593,-0.444444466,1,0,0,2.942145,a,0,10,10,4,1,,
,,,,,,,,,,1602883,2020-10-29_11h25.06.658,swahili,2020.2.4,Win32,60,,,,,,,,,,,,,,,,,,,,,,,,,,,,,,,,,,,,,,,,,,,,,,,,,,,,,,,,,,,,,,,,,,,,,,,,,,,,,,,,,,,She visited her father's ___ on the anniversary of his death. ,KABURI,,,KABURI,correct,0.496875022,-0.512963099,1,0,0,2.65296,c,0,11,11,12,1,,
,,,,,,,,,,1602883,2020-10-29_11h25.06.658,swahili,2020.2.4,Win32,60,,,,,,,,,,,,,,,,,,,,,,,,,,,,,,,,,,,,,,,,,,,,,,,,,,,,,,,,,,,,,,,,,,,,,,,,,,,,,,,,,,,I filled my ____ with food at the buffet. ,SAHANI,,,SAHANI,correct,-0.012499985,-0.518518541,1,0,0,3.52138,b,0,12,12,3,1,,
,,,,,,,,,,1602883,2020-10-29_11h25.06.658,swahili,2020.2.4,Win32,60,,,,,,,,,,,,,,,,,,,,,,,,,,,,,,,,,,,,,,,,,,,,,,,,,,,,,,,,,,,,,,,,,,,,,,,,,,,,,,,,,,,Charles went to the ____ to get his suit adjusted. ,MSHONI,,,MSHONI,correct,-0.423958325,-0.46851854,1,0,0,4.45758,a,0,13,13,9,1,,
,,,,,,,,,,1602883,2020-10-29_11h25.06.658,swahili,2020.2.4,Win32,60,,,,,,,,,,,,,,,,,,,,,,,,,,,,,,,,,,,,,,,,,,,,,,,,,,,,,,,,,,,,,,,,,,,,,,,,,,,,,,,,,,,You need a ______ to go fishing in the middle of a lake.,MASHUA,,,HAMIRA,incorrect,0.046875016,-0.551851875,1,0,0,3.00822,b,0,14,14,18,1,,
,,,,,,,,,,1602883,2020-10-29_11h25.06.658,swahili,2020.2.4,Win32,60,,,,,,,,,,,,,,,,,,,,,,,,,,,,,,,,,,,,,,,,,,,,,,,,,,,,,,,,,,,,,,,,,,,,,,,,,,,,,,,,,,,Pirates looked for buried _________ at the bottom of the sea.,DAFINA,,,DAFINA,correct,0.50937515,-0.529629652,1,0,0,2.22564,c,0,15,15,19,1,,
,,,,,,,,,,1602883,2020-10-29_11h25.06.658,swahili,2020.2.4,Win32,60,,,,,,,,,,,,,,,,,,,,,,,,,,,,,,,,,,,,,,,,,,,,,,,,,,,,,,,,,,,,,,,,,,,,,,,,,,,,,,,,,,,Shannon had no one else to  ____ for what happened.,LAWAMA,,,LAWAMA,correct,-0.423958325,-0.535185208,1,0,0,2.74711,a,0,16,16,5,1,,
,,,,,,,,,,1602883,2020-10-29_11h25.06.658,swahili,2020.2.4,Win32,60,,,,,,,,,,,,,,,,,,,,,,,,,,,,,,,,,,,,,,,,,,,,,,,,,,,,,,,,,,,,,,,,,,,,,,,,,,,,,,,,,,,"On a farm, there is a good chance you will step into a pile of ______.",SAMADI,,,SAMADI,correct,-0.024999985,-0.603703728,1,0,0,3.25939,b,0,17,17,13,1,,
,,,,,,,,,,1602883,2020-10-29_11h25.06.658,swahili,2020.2.4,Win32,60,,,,,,,,,,,,,,,,,,,,,,,,,,,,,,,,,,,,,,,,,,,,,,,,,,,,,,,,,,,,,,,,,,,,,,,,,,,,,,,,,,,Amy cooked a grilled ____ sandwich to go with her tomato soup.,JIBINI,,,JIBINI,correct,-0.418749991,-0.503703839,1,0,0,2.14604,a,0,18,18,10,1,,
,,,,,,,,,,1602883,2020-10-29_11h25.06.658,swahili,2020.2.4,Win32,60,,,,,,,,,,,,,,,,,,,,,,,,,,,,,,,,,,,,,,,,,,,,,,,,,,,,,,,,,,,,,,,,,,,,,,,,,,,,,,,,,,,Fermented _______ are used to make wine.,ZABIBU,,,ZABIBU,correct,-0.457291659,-0.451851873,1,0,0,3.728455,a,0,19,19,11,1,,
,,,,,,,,,,1602883,2020-10-29_11h25.06.658,swahili,2020.2.4,Win32,60,,,,,,,,,,,,,,,,,,,,,,,,,,,,,,,,,,,,,,,,,,,,,,,,,,,,,,,,,,,,,,,,,,,,,,,,,,,,,,,,,,,,,,,,,,,,,,,,,,,,,return,2.23913
