condition,consent_key.keys,consent_key.rt,done_with_instructions.keys,done_with_instructions.rt,instr_loop.thisRepN,instr_loop.thisTrialN,instr_loop.thisN,instr_loop.thisIndex,instr_loop.ran,Student ID #,date,expName,psychopyVersion,OS,frameRate,instr_learning_key.keys,instr_learning_key.rt,card_gen_loop.thisRepN,card_gen_loop.thisTrialN,card_gen_loop.thisN,card_gen_loop.thisIndex,card_gen_loop.ran,swa,eng,choose_pile.x,choose_pile.y,choose_pile.leftButton,choose_pile.midButton,choose_pile.rightButton,choose_pile.time,choose_pile.clicked_name,choices.thisRepN,choices.thisTrialN,choices.thisN,choices.thisIndex,choices.ran,card_to_show,mouse_pick.x,mouse_pick.y,mouse_pick.leftButton,mouse_pick.midButton,mouse_pick.rightButton,mouse_pick.time,mouse_pick.clicked_name,key_instr_study.keys,key_instr_study.rt,next_study.keys,next_study.rt,study_loop.thisRepN,study_loop.thisTrialN,study_loop.thisN,study_loop.thisIndex,study_loop.ran,key_instr_test.keys,learn_loop.thisRepN,learn_loop.thisTrialN,learn_loop.thisN,learn_loop.thisIndex,learn_loop.ran,key_instr_test.rt,duration,yes_or_no.x,yes_or_no.y,yes_or_no.leftButton,yes_or_no.midButton,yes_or_no.rightButton,yes_or_no.time,yes_or_no.clicked_name,test_response.stim,test_response.resp,test_response.eval,test_loop.thisRepN,test_loop.thisTrialN,test_loop.thisN,test_loop.thisIndex,test_loop.ran,trials.thisRepN,trials.thisTrialN,trials.thisN,trials.thisIndex,trials.ran,instr_movie_key.keys,instr_movie_key.rt,return_to_exp.keys,return_to_exp.rt,instr_assess_key.keys,instr_assess_key.rt,assess_loop.thisRepN,assess_loop.thisTrialN,assess_loop.thisN,assess_loop.thisIndex,assess_loop.ran,ans_gen_loop.thisRepN,ans_gen_loop.thisTrialN,ans_gen_loop.thisN,ans_gen_loop.thisIndex,ans_gen_loop.ran,sen,ans,instr_transfer_key.keys,instr_transfer_key.rt,transfer_response.resp,transfer_response.eval,select_word.x,select_word.y,select_word.leftButton,select_word.midButton,select_word.rightButton,select_word.time,select_word.clicked_name,transfers.thisRepN,transfers.thisTrialN,transfers.thisN,transfers.thisIndex,transfers.ran,end_experiment.keys,end_experiment.rt
1,return,13.944945,return,6.93042,0,0,0,0,1,W1590780,2020-10-29_23h44.23.822,swahili,2020.2.4,MacIntel,60,,,,,,,,,,,,,,,,,,,,,,,,,,,,,,,,,,,,,,,,,,,,,,,,,,,,,,,,,,,,,,,,,,,,,,,,,,,,,,,,,,,,,,,,,,,,,,,,,,,,,,
,,,,,,,,,,W1590780,2020-10-29_23h44.23.822,swahili,2020.2.4,MacIntel,60,return,31.26464,0,0,0,0,1,TAJIRI,MERCHANT,,,,,,,,,,,,,,,,,,,,,,,,,,,,,,,,,,,,,,,,,,,,,,,,,,,,,,,,,,,,,,,,,,,,,,,,,,,,,,,,,,,,,,,,,,,,,
,,,,,,,,,,W1590780,2020-10-29_23h44.23.822,swahili,2020.2.4,MacIntel,60,,,0,1,1,1,1,KASUKU,PARROT,,,,,,,,,,,,,,,,,,,,,,,,,,,,,,,,,,,,,,,,,,,,,,,,,,,,,,,,,,,,,,,,,,,,,,,,,,,,,,,,,,,,,,,,,,,,,
,,,,,,,,,,W1590780,2020-10-29_23h44.23.822,swahili,2020.2.4,MacIntel,60,,,0,2,2,2,1,FAHILI,BULL,,,,,,,,,,,,,,,,,,,,,,,,,,,,,,,,,,,,,,,,,,,,,,,,,,,,,,,,,,,,,,,,,,,,,,,,,,,,,,,,,,,,,,,,,,,,,
,,,,,,,,,,W1590780,2020-10-29_23h44.23.822,swahili,2020.2.4,MacIntel,60,,,0,3,3,3,1,SAHANI,PLATE,,,,,,,,,,,,,,,,,,,,,,,,,,,,,,,,,,,,,,,,,,,,,,,,,,,,,,,,,,,,,,,,,,,,,,,,,,,,,,,,,,,,,,,,,,,,,
,,,,,,,,,,W1590780,2020-10-29_23h44.23.822,swahili,2020.2.4,MacIntel,60,,,0,4,4,4,1,HAMIRA,YEAST,,,,,,,,,,,,,,,,,,,,,,,,,,,,,,,,,,,,,,,,,,,,,,,,,,,,,,,,,,,,,,,,,,,,,,,,,,,,,,,,,,,,,,,,,,,,,
,,,,,,,,,,W1590780,2020-10-29_23h44.23.822,swahili,2020.2.4,MacIntel,60,,,0,5,5,5,1,LAWAMA,BLAME,,,,,,,,,,,,,,,,,,,,,,,,,,,,,,,,,,,,,,,,,,,,,,,,,,,,,,,,,,,,,,,,,,,,,,,,,,,,,,,,,,,,,,,,,,,,,
,,,,,,,,,,W1590780,2020-10-29_23h44.23.822,swahili,2020.2.4,MacIntel,60,,,0,6,6,6,1,YAMINI,OATH,,,,,,,,,,,,,,,,,,,,,,,,,,,,,,,,,,,,,,,,,,,,,,,,,,,,,,,,,,,,,,,,,,,,,,,,,,,,,,,,,,,,,,,,,,,,,
,,,,,,,,,,W1590780,2020-10-29_23h44.23.822,swahili,2020.2.4,MacIntel,60,,,0,7,7,7,1,NAFAKA,CORN,,,,,,,,,,,,,,,,,,,,,,,,,,,,,,,,,,,,,,,,,,,,,,,,,,,,,,,,,,,,,,,,,,,,,,,,,,,,,,,,,,,,,,,,,,,,,
,,,,,,,,,,W1590780,2020-10-29_23h44.23.822,swahili,2020.2.4,MacIntel,60,,,0,8,8,8,1,UTENZI,POEM,,,,,,,,,,,,,,,,,,,,,,,,,,,,,,,,,,,,,,,,,,,,,,,,,,,,,,,,,,,,,,,,,,,,,,,,,,,,,,,,,,,,,,,,,,,,,
,,,,,,,,,,W1590780,2020-10-29_23h44.23.822,swahili,2020.2.4,MacIntel,60,,,0,9,9,9,1,MSHONI,TAILOR,,,,,,,,,,,,,,,,,,,,,,,,,,,,,,,,,,,,,,,,,,,,,,,,,,,,,,,,,,,,,,,,,,,,,,,,,,,,,,,,,,,,,,,,,,,,,
,,,,,,,,,,W1590780,2020-10-29_23h44.23.822,swahili,2020.2.4,MacIntel,60,,,0,10,10,10,1,JIBINI,CHEESE,,,,,,,,,,,,,,,,,,,,,,,,,,,,,,,,,,,,,,,,,,,,,,,,,,,,,,,,,,,,,,,,,,,,,,,,,,,,,,,,,,,,,,,,,,,,,
,,,,,,,,,,W1590780,2020-10-29_23h44.23.822,swahili,2020.2.4,MacIntel,60,,,0,11,11,11,1,ZABIBU,GRAPES,,,,,,,,,,,,,,,,,,,,,,,,,,,,,,,,,,,,,,,,,,,,,,,,,,,,,,,,,,,,,,,,,,,,,,,,,,,,,,,,,,,,,,,,,,,,,
,,,,,,,,,,W1590780,2020-10-29_23h44.23.822,swahili,2020.2.4,MacIntel,60,,,0,12,12,12,1,KABURI,GRAVE,,,,,,,,,,,,,,,,,,,,,,,,,,,,,,,,,,,,,,,,,,,,,,,,,,,,,,,,,,,,,,,,,,,,,,,,,,,,,,,,,,,,,,,,,,,,,
,,,,,,,,,,W1590780,2020-10-29_23h44.23.822,swahili,2020.2.4,MacIntel,60,,,0,13,13,13,1,SAMADI,MANURE,,,,,,,,,,,,,,,,,,,,,,,,,,,,,,,,,,,,,,,,,,,,,,,,,,,,,,,,,,,,,,,,,,,,,,,,,,,,,,,,,,,,,,,,,,,,,
,,,,,,,,,,W1590780,2020-10-29_23h44.23.822,swahili,2020.2.4,MacIntel,60,,,0,14,14,14,1,WAKILI,AGENT,,,,,,,,,,,,,,,,,,,,,,,,,,,,,,,,,,,,,,,,,,,,,,,,,,,,,,,,,,,,,,,,,,,,,,,,,,,,,,,,,,,,,,,,,,,,,
,,,,,,,,,,W1590780,2020-10-29_23h44.23.822,swahili,2020.2.4,MacIntel,60,,,0,15,15,15,1,RUSHWA,BRIBE,,,,,,,,,,,,,,,,,,,,,,,,,,,,,,,,,,,,,,,,,,,,,,,,,,,,,,,,,,,,,,,,,,,,,,,,,,,,,,,,,,,,,,,,,,,,,
,,,,,,,,,,W1590780,2020-10-29_23h44.23.822,swahili,2020.2.4,MacIntel,60,,,0,16,16,16,1,YATIMA,ORPHAN,,,,,,,,,,,,,,,,,,,,,,,,,,,,,,,,,,,,,,,,,,,,,,,,,,,,,,,,,,,,,,,,,,,,,,,,,,,,,,,,,,,,,,,,,,,,,
,,,,,,,,,,W1590780,2020-10-29_23h44.23.822,swahili,2020.2.4,MacIntel,60,,,0,17,17,17,1,TALAKA,DIVORCE,,,,,,,,,,,,,,,,,,,,,,,,,,,,,,,,,,,,,,,,,,,,,,,,,,,,,,,,,,,,,,,,,,,,,,,,,,,,,,,,,,,,,,,,,,,,,
,,,,,,,,,,W1590780,2020-10-29_23h44.23.822,swahili,2020.2.4,MacIntel,60,,,0,18,18,18,1,MASHUA,BOAT,,,,,,,,,,,,,,,,,,,,,,,,,,,,,,,,,,,,,,,,,,,,,,,,,,,,,,,,,,,,,,,,,,,,,,,,,,,,,,,,,,,,,,,,,,,,,
,,,,,,,,,,W1590780,2020-10-29_23h44.23.822,swahili,2020.2.4,MacIntel,60,,,0,19,19,19,1,DAFINA,TREASURE,,,,,,,,,,,,,,,,,,,,,,,,,,,,,,,,,,,,,,,,,,,,,,,,,,,,,,,,,,,,,,,,,,,,,,,,,,,,,,,,,,,,,,,,,,,,,
,,,,,,,,,,W1590780,2020-10-29_23h44.23.822,swahili,2020.2.4,MacIntel,60,,,,,,,,,,-0.343667577,-0.110101199,1,0,0,3.89353,unsorted_card,0,0,0,0,1,,,,,,,,,,,,,,,,,,,,,,,,,,,,,,,,,,,,,,,,,,,,,,,,,,,,,,,,,,,,,,,,,,,,,,,,,,,,,,,,,
,,,,,,,,,,W1590780,2020-10-29_23h44.23.822,swahili,2020.2.4,MacIntel,60,,,,,,,,,,0.424294697,0.048995034,1,0,0,8.96967,test_pile,1,0,1,0,1,MERCHANT - TAJIRI,,,,,,,,,,,,,,,,,,,,,,,,,,,,,,,,,,,,,,,,,,,,,,,,,,,,,,,,,,,,,,,,,,,,,,,,,,,,,,,,
,,,,,,,,,,W1590780,2020-10-29_23h44.23.822,swahili,2020.2.4,MacIntel,60,,,,,,,,,,0.591389177,-0.045270334,1,0,0,3.402815,test_pile,2,0,2,0,1,,,,,,,,,,,,,,,,,,,,,,,,,,,,,,,,,,,,,,,,,,,,,,,,,,,,,,,,,,,,,,,,,,,,,,,,,,,,,,,,,
,,,,,,,,,,W1590780,2020-10-29_23h44.23.822,swahili,2020.2.4,MacIntel,60,,,,,,,,,,-0.133095092,-0.071354948,1,0,0,1.20249,unsorted_card,3,0,3,0,1,,,,,,,,,,,,,,,,,,,,,,,,,,,,,,,,,,,,,,,,,,,,,,,,,,,,,,,,,,,,,,,,,,,,,,,,,,,,,,,,,
,,,,,,,,,,W1590780,2020-10-29_23h44.23.822,swahili,2020.2.4,MacIntel,60,,,,,,,,,,0.449574934,-0.053551349,1,0,0,3.908745,test_pile,4,0,4,0,1,PARROT - KASUKU,,,,,,,,,,,,,,,,,,,,,,,,,,,,,,,,,,,,,,,,,,,,,,,,,,,,,,,,,,,,,,,,,,,,,,,,,,,,,,,,
,,,,,,,,,,W1590780,2020-10-29_23h44.23.822,swahili,2020.2.4,MacIntel,60,,,,,,,,,,-0.329602722,-0.063964112,1,0,0,0.64737,unsorted_card,5,0,5,0,1,,,,,,,,,,,,,,,,,,,,,,,,,,,,,,,,,,,,,,,,,,,,,,,,,,,,,,,,,,,,,,,,,,,,,,,,,,,,,,,,,
,,,,,,,,,,W1590780,2020-10-29_23h44.23.822,swahili,2020.2.4,MacIntel,60,,,,,,,,,,0.549418331,0.470424944,1,0,0,1.68644,study_pile,6,0,6,0,1,BULL - FAHILI,,,,,,,,,,,,,,,,,,,,,,,,,,,,,,,,,,,,,,,,,,,,,,,,,,,,,,,,,,,,,,,,,,,,,,,,,,,,,,,,
,,,,,,,,,,W1590780,2020-10-29_23h44.23.822,swahili,2020.2.4,MacIntel,60,,,,,,,,,,-0.391137199,-0.029938156,1,0,0,0.515015,unsorted_card,7,0,7,0,1,,,,,,,,,,,,,,,,,,,,,,,,,,,,,,,,,,,,,,,,,,,,,,,,,,,,,,,,,,,,,,,,,,,,,,,,,,,,,,,,,
,,,,,,,,,,W1590780,2020-10-29_23h44.23.822,swahili,2020.2.4,MacIntel,60,,,,,,,,,,0.619012575,0.572057721,1,0,0,1.5682,study_pile,8,0,8,0,1,PLATE - SAHANI,,,,,,,,,,,,,,,,,,,,,,,,,,,,,,,,,,,,,,,,,,,,,,,,,,,,,,,,,,,,,,,,,,,,,,,,,,,,,,,,
,,,,,,,,,,W1590780,2020-10-29_23h44.23.822,swahili,2020.2.4,MacIntel,60,,,,,,,,,,-0.272819329,-0.116027924,1,0,0,0.665575,unsorted_card,9,0,9,0,1,,,,,,,,,,,,,,,,,,,,,,,,,,,,,,,,,,,,,,,,,,,,,,,,,,,,,,,,,,,,,,,,,,,,,,,,,,,,,,,,,
,,,,,,,,,,W1590780,2020-10-29_23h44.23.822,swahili,2020.2.4,MacIntel,60,,,,,,,,,,0.431960013,0.471361975,1,0,0,2.45286,study_pile,10,0,10,0,1,YEAST - HAMIRA,,,,,,,,,,,,,,,,,,,,,,,,,,,,,,,,,,,,,,,,,,,,,,,,,,,,,,,,,,,,,,,,,,,,,,,,,,,,,,,,
,,,,,,,,,,W1590780,2020-10-29_23h44.23.822,swahili,2020.2.4,MacIntel,60,,,,,,,,,,-0.336384938,-0.031156297,1,0,0,1.3511,unsorted_card,11,0,11,0,1,,,,,,,,,,,,,,,,,,,,,,,,,,,,,,,,,,,,,,,,,,,,,,,,,,,,,,,,,,,,,,,,,,,,,,,,,,,,,,,,,
,,,,,,,,,,W1590780,2020-10-29_23h44.23.822,swahili,2020.2.4,MacIntel,60,,,,,,,,,,0.440361247,-0.014687969,1,0,0,5.24497,test_pile,12,0,12,0,1,BLAME - LAWAMA,,,,,,,,,,,,,,,,,,,,,,,,,,,,,,,,,,,,,,,,,,,,,,,,,,,,,,,,,,,,,,,,,,,,,,,,,,,,,,,,
,,,,,,,,,,W1590780,2020-10-29_23h44.23.822,swahili,2020.2.4,MacIntel,60,,,,,,,,,,-0.282692398,-0.021551724,1,0,0,2.902975,unsorted_card,13,0,13,0,1,,,,,,,,,,,,,,,,,,,,,,,,,,,,,,,,,,,,,,,,,,,,,,,,,,,,,,,,,,,,,,,,,,,,,,,,,,,,,,,,,
,,,,,,,,,,W1590780,2020-10-29_23h44.23.822,swahili,2020.2.4,MacIntel,60,,,,,,,,,,0.366657639,-0.020474138,1,0,0,4.90973,test_pile,14,0,14,0,1,OATH - YAMINI,,,,,,,,,,,,,,,,,,,,,,,,,,,,,,,,,,,,,,,,,,,,,,,,,,,,,,,,,,,,,,,,,,,,,,,,,,,,,,,,
,,,,,,,,,,W1590780,2020-10-29_23h44.23.822,swahili,2020.2.4,MacIntel,60,,,,,,,,,,-0.223030096,-0.081158639,1,0,0,0.80024,unsorted_card,15,0,15,0,1,,,,,,,,,,,,,,,,,,,,,,,,,,,,,,,,,,,,,,,,,,,,,,,,,,,,,,,,,,,,,,,,,,,,,,,,,,,,,,,,,
,,,,,,,,,,W1590780,2020-10-29_23h44.23.822,swahili,2020.2.4,MacIntel,60,,,,,,,,,,0.505369254,-0.550107759,1,0,0,4.91008,done_pile,16,0,16,0,1,CORN - NAFAKA,,,,,,,,,,,,,,,,,,,,,,,,,,,,,,,,,,,,,,,,,,,,,,,,,,,,,,,,,,,,,,,,,,,,,,,,,,,,,,,,
,,,,,,,,,,W1590780,2020-10-29_23h44.23.822,swahili,2020.2.4,MacIntel,60,,,,,,,,,,-0.494094998,0.080643272,1,0,0,0.98287,unsorted_card,17,0,17,0,1,,,,,,,,,,,,,,,,,,,,,,,,,,,,,,,,,,,,,,,,,,,,,,,,,,,,,,,,,,,,,,,,,,,,,,,,,,,,,,,,,
,,,,,,,,,,W1590780,2020-10-29_23h44.23.822,swahili,2020.2.4,MacIntel,60,,,,,,,,,,0.418560428,0.444527736,1,0,0,7.919625,study_pile,18,0,18,0,1,POEM - UTENZI,,,,,,,,,,,,,,,,,,,,,,,,,,,,,,,,,,,,,,,,,,,,,,,,,,,,,,,,,,,,,,,,,,,,,,,,,,,,,,,,
,,,,,,,,,,W1590780,2020-10-29_23h44.23.822,swahili,2020.2.4,MacIntel,60,,,,,,,,,,-0.318758242,-0.021622001,1,0,0,0.729905,unsorted_card,19,0,19,0,1,,,,,,,,,,,,,,,,,,,,,,,,,,,,,,,,,,,,,,,,,,,,,,,,,,,,,,,,,,,,,,,,,,,,,,,,,,,,,,,,,
,,,,,,,,,,W1590780,2020-10-29_23h44.23.822,swahili,2020.2.4,MacIntel,60,,,,,,,,,,0.42030308,0.436176443,1,0,0,2.0039,study_pile,20,0,20,0,1,TAILOR - MSHONI,,,,,,,,,,,,,,,,,,,,,,,,,,,,,,,,,,,,,,,,,,,,,,,,,,,,,,,,,,,,,,,,,,,,,,,,,,,,,,,,
,,,,,,,,,,W1590780,2020-10-29_23h44.23.822,swahili,2020.2.4,MacIntel,60,,,,,,,,,,-0.306047476,-0.168407984,1,0,0,0.748885,unsorted_card,21,0,21,0,1,,,,,,,,,,,,,,,,,,,,,,,,,,,,,,,,,,,,,,,,,,,,,,,,,,,,,,,,,,,,,,,,,,,,,,,,,,,,,,,,,
,,,,,,,,,,W1590780,2020-10-29_23h44.23.822,swahili,2020.2.4,MacIntel,60,,,,,,,,,,0.412708412,0.001101012,1,0,0,3.205055,test_pile,22,0,22,0,1,CHEESE - JIBINI,,,,,,,,,,,,,,,,,,,,,,,,,,,,,,,,,,,,,,,,,,,,,,,,,,,,,,,,,,,,,,,,,,,,,,,,,,,,,,,,
,,,,,,,,,,W1590780,2020-10-29_23h44.23.822,swahili,2020.2.4,MacIntel,60,,,,,,,,,,-0.390407168,-0.18875328,1,0,0,1.385275,unsorted_card,23,0,23,0,1,,,,,,,,,,,,,,,,,,,,,,,,,,,,,,,,,,,,,,,,,,,,,,,,,,,,,,,,,,,,,,,,,,,,,,,,,,,,,,,,,
,,,,,,,,,,W1590780,2020-10-29_23h44.23.822,swahili,2020.2.4,MacIntel,60,,,,,,,,,,0.447314196,-0.51801443,1,0,0,3.237615,done_pile,24,0,24,0,1,GRAPES - ZABIBU,,,,,,,,,,,,,,,,,,,,,,,,,,,,,,,,,,,,,,,,,,,,,,,,,,,,,,,,,,,,,,,,,,,,,,,,,,,,,,,,
,,,,,,,,,,W1590780,2020-10-29_23h44.23.822,swahili,2020.2.4,MacIntel,60,,,,,,,,,,-0.346528824,-0.171148801,1,0,0,1.000855,unsorted_card,25,0,25,0,1,,,,,,,,,,,,,,,,,,,,,,,,,,,,,,,,,,,,,,,,,,,,,,,,,,,,,,,,,,,,,,,,,,,,,,,,,,,,,,,,,
,,,,,,,,,,W1590780,2020-10-29_23h44.23.822,swahili,2020.2.4,MacIntel,60,,,,,,,,,,0.393562783,-0.03958958,1,0,0,11.175505,test_pile,26,0,26,0,1,GRAVE - KABURI,,,,,,,,,,,,,,,,,,,,,,,,,,,,,,,,,,,,,,,,,,,,,,,,,,,,,,,,,,,,,,,,,,,,,,,,,,,,,,,,
,,,,,,,,,,W1590780,2020-10-29_23h44.23.822,swahili,2020.2.4,MacIntel,60,,,,,,,,,,-0.360605454,0.048983321,1,0,0,0.81503,unsorted_card,27,0,27,0,1,,,,,,,,,,,,,,,,,,,,,,,,,,,,,,,,,,,,,,,,,,,,,,,,,,,,,,,,,,,,,,,,,,,,,,,,,,,,,,,,,
,,,,,,,,,,W1590780,2020-10-29_23h44.23.822,swahili,2020.2.4,MacIntel,60,,,,,,,,,,0.419991051,-0.087237631,1,0,0,4.678055,test_pile,28,0,28,0,1,MANURE - SAMADI,,,,,,,,,,,,,,,,,,,,,,,,,,,,,,,,,,,,,,,,,,,,,,,,,,,,,,,,,,,,,,,,,,,,,,,,,,,,,,,,
,,,,,,,,,,W1590780,2020-10-29_23h44.23.822,swahili,2020.2.4,MacIntel,60,,,,,,,,,,-0.181182884,0.039730135,1,0,0,0.627625,unsorted_card,29,0,29,0,1,,,,,,,,,,,,,,,,,,,,,,,,,,,,,,,,,,,,,,,,,,,,,,,,,,,,,,,,,,,,,,,,,,,,,,,,,,,,,,,,,
,,,,,,,,,,W1590780,2020-10-29_23h44.23.822,swahili,2020.2.4,MacIntel,60,,,,,,,,,,0.367752685,-0.496263587,1,0,0,8.167275,done_pile,30,0,30,0,1,AGENT - WAKILI,,,,,,,,,,,,,,,,,,,,,,,,,,,,,,,,,,,,,,,,,,,,,,,,,,,,,,,,,,,,,,,,,,,,,,,,,,,,,,,,
,,,,,,,,,,W1590780,2020-10-29_23h44.23.822,swahili,2020.2.4,MacIntel,60,,,,,,,,,,-0.218979606,-0.034014243,1,0,0,1.166235,unsorted_card,31,0,31,0,1,,,,,,,,,,,,,,,,,,,,,,,,,,,,,,,,,,,,,,,,,,,,,,,,,,,,,,,,,,,,,,,,,,,,,,,,,,,,,,,,,
,,,,,,,,,,W1590780,2020-10-29_23h44.23.822,swahili,2020.2.4,MacIntel,60,,,,,,,,,,0.380498775,0.385939843,1,0,0,2.771105,study_pile,32,0,32,0,1,BRIBE - RUSHWA,,,,,,,,,,,,,,,,,,,,,,,,,,,,,,,,,,,,,,,,,,,,,,,,,,,,,,,,,,,,,,,,,,,,,,,,,,,,,,,,
,,,,,,,,,,W1590780,2020-10-29_23h44.23.822,swahili,2020.2.4,MacIntel,60,,,,,,,,,,-0.277164186,-0.018670352,1,0,0,0.59639,unsorted_card,33,0,33,0,1,,,,,,,,,,,,,,,,,,,,,,,,,,,,,,,,,,,,,,,,,,,,,,,,,,,,,,,,,,,,,,,,,,,,,,,,,,,,,,,,,
,,,,,,,,,,W1590780,2020-10-29_23h44.23.822,swahili,2020.2.4,MacIntel,60,,,,,,,,,,0.402281933,0.012157984,1,0,0,3.290245,test_pile,34,0,34,0,1,ORPHAN - YATIMA,,,,,,,,,,,,,,,,,,,,,,,,,,,,,,,,,,,,,,,,,,,,,,,,,,,,,,,,,,,,,,,,,,,,,,,,,,,,,,,,
,,,,,,,,,,W1590780,2020-10-29_23h44.23.822,swahili,2020.2.4,MacIntel,60,,,,,,,,,,-0.234068858,-0.137966173,1,0,0,0.681285,unsorted_card,35,0,35,0,1,,,,,,,,,,,,,,,,,,,,,,,,,,,,,,,,,,,,,,,,,,,,,,,,,,,,,,,,,,,,,,,,,,,,,,,,,,,,,,,,,
,,,,,,,,,,W1590780,2020-10-29_23h44.23.822,swahili,2020.2.4,MacIntel,60,,,,,,,,,,0.493676997,0.588807159,1,0,0,2.27193,study_pile,36,0,36,0,1,DIVORCE - TALAKA,,,,,,,,,,,,,,,,,,,,,,,,,,,,,,,,,,,,,,,,,,,,,,,,,,,,,,,,,,,,,,,,,,,,,,,,,,,,,,,,
,,,,,,,,,,W1590780,2020-10-29_23h44.23.822,swahili,2020.2.4,MacIntel,60,,,,,,,,,,-0.39934415,-0.14649316,1,0,0,1.03175,unsorted_card,37,0,37,0,1,,,,,,,,,,,,,,,,,,,,,,,,,,,,,,,,,,,,,,,,,,,,,,,,,,,,,,,,,,,,,,,,,,,,,,,,,,,,,,,,,
,,,,,,,,,,W1590780,2020-10-29_23h44.23.822,swahili,2020.2.4,MacIntel,60,,,,,,,,,,0.48393345,-0.491320746,1,0,0,3.22214,done_pile,38,0,38,0,1,BOAT - MASHUA,,,,,,,,,,,,,,,,,,,,,,,,,,,,,,,,,,,,,,,,,,,,,,,,,,,,,,,,,,,,,,,,,,,,,,,,,,,,,,,,
,,,,,,,,,,W1590780,2020-10-29_23h44.23.822,swahili,2020.2.4,MacIntel,60,,,,,,,,,,-0.182495761,-0.114025019,1,0,0,0.917045,unsorted_card,39,0,39,0,1,,,,,,,,,,,,,,,,,,,,,,,,,,,,,,,,,,,,,,,,,,,,,,,,,,,,,,,,,,,,,,,,,,,,,,,,,,,,,,,,,
,,,,,,,,,,W1590780,2020-10-29_23h44.23.822,swahili,2020.2.4,MacIntel,60,,,,,,,,,,0.368170686,-0.463233227,1,0,0,3.13757,done_pile,40,0,40,0,1,TREASURE - DAFINA,,,,,,,,,,,,,,,,,,,,,,,,,,,,,,,,,,,,,,,,,,,,,,,,,,,,,,,,,,,,,,,,,,,,,,,,,,,,,,,,
,,,,,,,,,,W1590780,2020-10-29_23h44.23.822,swahili,2020.2.4,MacIntel,60,,,,,,,,,,,,,,,,,,,,,,PLATE - SAHANI,-0.48889059,0.037481259,1,0,0,1.849505,study_first,return,4.29478,return,8.397285,0,0,0,0,1,,,,,,,,,,,,,,,,,,,,,,,,,,,,,,,,,,,,,,,,,,,,,,,,,,,,,,,,,,,,,,,,
,,,,,,,,,,W1590780,2020-10-29_23h44.23.822,swahili,2020.2.4,MacIntel,60,,,,,,,,,,,,,,,,,,,,,,BULL - FAHILI,,,,,,,,,,return,4.37978,1,0,1,0,1,,,,,,,,,,,,,,,,,,,,,,,,,,,,,,,,,,,,,,,,,,,,,,,,,,,,,,,,,,,,,,,,
,,,,,,,,,,W1590780,2020-10-29_23h44.23.822,swahili,2020.2.4,MacIntel,60,,,,,,,,,,,,,,,,,,,,,,TAILOR - MSHONI,,,,,,,,,,return,3.660755,2,0,2,0,1,,,,,,,,,,,,,,,,,,,,,,,,,,,,,,,,,,,,,,,,,,,,,,,,,,,,,,,,,,,,,,,,
,,,,,,,,,,W1590780,2020-10-29_23h44.23.822,swahili,2020.2.4,MacIntel,60,,,,,,,,,,,,,,,,,,,,,,BRIBE - RUSHWA,,,,,,,,,,return,6.270505,3,0,3,0,1,,,,,,,,,,,,,,,,,,,,,,,,,,,,,,,,,,,,,,,,,,,,,,,,,,,,,,,,,,,,,,,,
,,,,,,,,,,W1590780,2020-10-29_23h44.23.822,swahili,2020.2.4,MacIntel,60,,,,,,,,,,,,,,,,,,,,,,POEM - UTENZI,,,,,,,,,,return,3.2081,4,0,4,0,1,,,,,,,,,,,,,,,,,,,,,,,,,,,,,,,,,,,,,,,,,,,,,,,,,,,,,,,,,,,,,,,,
,,,,,,,,,,W1590780,2020-10-29_23h44.23.822,swahili,2020.2.4,MacIntel,60,,,,,,,,,,,,,,,,,,,,,,DIVORCE - TALAKA,,,,,,,,,,return,5.91455,5,0,5,0,1,,,,,,,,,,,,,,,,,,,,,,,,,,,,,,,,,,,,,,,,,,,,,,,,,,,,,,,,,,,,,,,,
,,,,,,,,,,W1590780,2020-10-29_23h44.23.822,swahili,2020.2.4,MacIntel,60,,,,,,,,,,,,,,,,,,,,,,YEAST - HAMIRA,,,,,,,,,,return,2.86755,6,0,6,0,1,,,,,,,,,,,,,,,,,,,,,,,,,,,,,,,,,,,,,,,,,,,,,,,,,,,,,,,,,,,,,,,,
,,,,,,,,,,W1590780,2020-10-29_23h44.23.822,swahili,2020.2.4,MacIntel,60,,,,,,,,,,,,,,,,,,,,,,,,,,,,,,,,,,,,,,,,0,0,0,0,1,,,,,,,,,,,,,,,,,,,,,,,,,,,,,,,,,,,,,,,,,,,,,,,,,,,,,,,,,,
,,,,,,,,,,W1590780,2020-10-29_23h44.23.822,swahili,2020.2.4,MacIntel,60,,,,,,,,,,,,,,,,,,,,,,,,,,,,,,,,,,0,0,0,0,1,,,,,,,,,,,,,,,,,,,,,,,,,,,,,,,,,,,,,,,,,,,,,,,,,,,,,,,,,,,,,,,,
,,,,,,,,,,W1590780,2020-10-29_23h44.23.822,swahili,2020.2.4,MacIntel,60,,,,,,,,,,,,,,,,,,,,,,,,,,,,,,,,,,,,,,,return,,,,,,6.983235,17.31032,0.299612613,0.070886432,1,0,0,1.450785,yes,MANURE,TAKALA,incorrect,0,0,0,0,1,,,,,,,,,,,,,,,,,,,,,,,,,,,,,,,,,,,,,,,,,
,,,,,,,,,,W1590780,2020-10-29_23h44.23.822,swahili,2020.2.4,MacIntel,60,,,,,,,,,,,,,,,,,,,,,,,,,,,,,,,,,,,,,,,,,,,,,,7.98563,0.56809886,0.107313531,1,0,0,0.733855,yes,BLAME,TAKALA,incorrect,1,0,1,0,1,,,,,,,,,,,,,,,,,,,,,,,,,,,,,,,,,,,,,,,,,
,,,,,,,,,,W1590780,2020-10-29_23h44.23.822,swahili,2020.2.4,MacIntel,60,,,,,,,,,,,,,,,,,,,,,,,,,,,,,,,,,,,,,,,,,,,,,,3.90864,0.419472965,-0.215200993,1,0,0,1.269,yes,PARROT,KUKUMA,incorrect,2,0,2,0,1,,,,,,,,,,,,,,,,,,,,,,,,,,,,,,,,,,,,,,,,,
,,,,,,,,,,W1590780,2020-10-29_23h44.23.822,swahili,2020.2.4,MacIntel,60,,,,,,,,,,,,,,,,,,,,,,,,,,,,,,,,,,,,,,,,,,,,,,4.69284,0.409823615,-0.09880997,1,0,0,0.969305,yes,ORPHAN,YAMANI,incorrect,3,0,3,0,1,,,,,,,,,,,,,,,,,,,,,,,,,,,,,,,,,,,,,,,,,
,,,,,,,,,,W1590780,2020-10-29_23h44.23.822,swahili,2020.2.4,MacIntel,60,,,,,,,,,,,,,,,,,,,,,,,,,,,,,,,,,,,,,,,,,,,,,,13.14844,0.422287114,-0.08302099,1,0,0,1.136725,yes,OATH,TAKALE,incorrect,4,0,4,0,1,,,,,,,,,,,,,,,,,,,,,,,,,,,,,,,,,,,,,,,,,
,,,,,,,,,,W1590780,2020-10-29_23h44.23.822,swahili,2020.2.4,MacIntel,60,,,,,,,,,,,,,,,,,,,,,,,,,,,,,,,,,,,,,,,,,,,,,,7.13195,0.469627214,0.046277642,1,0,0,1.03631,yes,MERCHANT,BUKALA,incorrect,5,0,5,0,1,,,,,,,,,,,,,,,,,,,,,,,,,,,,,,,,,,,,,,,,,
,,,,,,,,,,W1590780,2020-10-29_23h44.23.822,swahili,2020.2.4,MacIntel,60,,,,,,,,,,,,,,,,,,,,,,,,,,,,,,,,,,,,,,,,,,,,,,9.019595,0.388016908,-0.136162388,1,0,0,1.003255,yes,GRAVE,KUMBILI,incorrect,6,0,6,0,1,,,,,,,,,,,,,,,,,,,,,,,,,,,,,,,,,,,,,,,,,
,,,,,,,,,,W1590780,2020-10-29_23h44.23.822,swahili,2020.2.4,MacIntel,60,,,,,,,,,,,,,,,,,,,,,,,,,,,,,,,,,,,,,,,,,,,,,,10.811025,0.477969574,-0.124812594,1,0,0,0.96809,yes,CHEESE,TEJARI,incorrect,7,0,7,0,1,,,,,,,,,,,,,,,,,,,,,,,,,,,,,,,,,,,,,,,,,
,,,,,,,,,,W1590780,2020-10-29_23h44.23.822,swahili,2020.2.4,MacIntel,60,,,,,,,,,,,,,,,,,,,,,,,,,,,,,,,,,,,,,,,,1,0,1,0,1,,,,,,,,,,,,,,,,,,,,,,,,,,,,,,,,,,,,,,,,,,,,,,,,,,,,,,,,,,
,,,,,,,,,,W1590780,2020-10-29_23h44.23.822,swahili,2020.2.4,MacIntel,60,,,,,,,,,,,,,,,,,,,,,,,,,,,,,,,,,,,,,,,,,,,,,,,,,,,,,,,,,,,,,,0,0,0,0,1,,,,,,,,,,,,,,,,,,,,,,,,,,,,,,,,,,,,
,,,,,,,,,,W1590780,2020-10-29_23h44.23.822,swahili,2020.2.4,MacIntel,60,,,,,,,,,,-0.333712086,-0.116250469,1,0,0,3.212135,unsorted_card,0,0,0,0,1,,,,,,,,,,,,,,,,,,,,,,,,,,,,,,,,,,,,,,,,,,,,,,,,,,,,,,,,,,,,,,,,,,,,,,,,,,,,,,,,,
,,,,,,,,,,W1590780,2020-10-29_23h44.23.822,swahili,2020.2.4,MacIntel,60,,,,,,,,,,0.44686087,-0.083969734,1,0,0,6.6821,test_pile,1,0,1,0,1,MERCHANT - TAJIRI,,,,,,,,,,,,,,,,,,,,,,,,,,,,,,,,,,,,,,,,,,,,,,,,,,,,,,,,,,,,,,,,,,,,,,,,,,,,,,,,
,,,,,,,,,,W1590780,2020-10-29_23h44.23.822,swahili,2020.2.4,MacIntel,60,,,,,,,,,,-0.268262528,-0.057931972,1,0,0,0.647665,unsorted_card,2,0,2,0,1,,,,,,,,,,,,,,,,,,,,,,,,,,,,,,,,,,,,,,,,,,,,,,,,,,,,,,,,,,,,,,,,,,,,,,,,,,,,,,,,,
,,,,,,,,,,W1590780,2020-10-29_23h44.23.822,swahili,2020.2.4,MacIntel,60,,,,,,,,,,0.463639789,-0.02708021,1,0,0,2.383125,test_pile,3,0,3,0,1,PARROT - KASUKU,,,,,,,,,,,,,,,,,,,,,,,,,,,,,,,,,,,,,,,,,,,,,,,,,,,,,,,,,,,,,,,,,,,,,,,,,,,,,,,,
,,,,,,,,,,W1590780,2020-10-29_23h44.23.822,swahili,2020.2.4,MacIntel,60,,,,,,,,,,-0.3060828,-0.091149738,1,0,0,1.55043,unsorted_card,4,0,4,0,1,,,,,,,,,,,,,,,,,,,,,,,,,,,,,,,,,,,,,,,,,,,,,,,,,,,,,,,,,,,,,,,,,,,,,,,,,,,,,,,,,
,,,,,,,,,,W1590780,2020-10-29_23h44.23.822,swahili,2020.2.4,MacIntel,60,,,,,,,,,,0.424659712,0.029446214,1,0,0,2.939875,test_pile,5,0,5,0,1,BULL - FAHILI,,,,,,,,,,,,,,,,,,,,,,,,,,,,,,,,,,,,,,,,,,,,,,,,,,,,,,,,,,,,,,,,,,,,,,,,,,,,,,,,
,,,,,,,,,,W1590780,2020-10-29_23h44.23.822,swahili,2020.2.4,MacIntel,60,,,,,,,,,,-0.335625471,-0.158990817,1,0,0,0.700195,unsorted_card,6,0,6,0,1,,,,,,,,,,,,,,,,,,,,,,,,,,,,,,,,,,,,,,,,,,,,,,,,,,,,,,,,,,,,,,,,,,,,,,,,,,,,,,,,,
,,,,,,,,,,W1590780,2020-10-29_23h44.23.822,swahili,2020.2.4,MacIntel,60,,,,,,,,,,0.490986483,0.059817747,1,0,0,4.476865,test_pile,7,0,7,0,1,PLATE - SAHANI,,,,,,,,,,,,,,,,,,,,,,,,,,,,,,,,,,,,,,,,,,,,,,,,,,,,,,,,,,,,,,,,,,,,,,,,,,,,,,,,
,,,,,,,,,,W1590780,2020-10-29_23h44.23.822,swahili,2020.2.4,MacIntel,60,,,,,,,,,,-0.269110305,0.009194621,1,0,0,6.66547,unsorted_card,8,0,8,0,1,,,,,,,,,,,,,,,,,,,,,,,,,,,,,,,,,,,,,,,,,,,,,,,,,,,,,,,,,,,,,,,,,,,,,,,,,,,,,,,,,
,,,,,,,,,,W1590780,2020-10-29_23h44.23.822,swahili,2020.2.4,MacIntel,60,,,,,,,,,,0.556624435,0.018213549,1,0,0,1.63402,test_pile,9,0,9,0,1,YEAST - HAMIRA,,,,,,,,,,,,,,,,,,,,,,,,,,,,,,,,,,,,,,,,,,,,,,,,,,,,,,,,,,,,,,,,,,,,,,,,,,,,,,,,
,,,,,,,,,,W1590780,2020-10-29_23h44.23.822,swahili,2020.2.4,MacIntel,60,,,,,,,,,,-0.367175725,0.058236507,1,0,0,0.61686,unsorted_card,10,0,10,0,1,,,,,,,,,,,,,,,,,,,,,,,,,,,,,,,,,,,,,,,,,,,,,,,,,,,,,,,,,,,,,,,,,,,,,,,,,,,,,,,,,
,,,,,,,,,,W1590780,2020-10-29_23h44.23.822,swahili,2020.2.4,MacIntel,60,,,,,,,,,,0.436928928,0.018494659,1,0,0,5.076985,test_pile,11,0,11,0,1,BLAME - LAWAMA,,,,,,,,,,,,,,,,,,,,,,,,,,,,,,,,,,,,,,,,,,,,,,,,,,,,,,,,,,,,,,,,,,,,,,,,,,,,,,,,
,,,,,,,,,,W1590780,2020-10-29_23h44.23.822,swahili,2020.2.4,MacIntel,60,,,,,,,,,,-0.405914422,-0.008679254,1,0,0,0.532505,unsorted_card,12,0,12,0,1,,,,,,,,,,,,,,,,,,,,,,,,,,,,,,,,,,,,,,,,,,,,,,,,,,,,,,,,,,,,,,,,,,,,,,,,,,,,,,,,,
,,,,,,,,,,W1590780,2020-10-29_23h44.23.822,swahili,2020.2.4,MacIntel,60,,,,,,,,,,0.422928834,-0.041651049,1,0,0,2.187065,test_pile,13,0,13,0,1,OATH - YAMINI,,,,,,,,,,,,,,,,,,,,,,,,,,,,,,,,,,,,,,,,,,,,,,,,,,,,,,,,,,,,,,,,,,,,,,,,,,,,,,,,
,,,,,,,,,,W1590780,2020-10-29_23h44.23.822,swahili,2020.2.4,MacIntel,60,,,,,,,,,,-0.323415128,-0.090974044,1,0,0,0.699385,unsorted_card,14,0,14,0,1,,,,,,,,,,,,,,,,,,,,,,,,,,,,,,,,,,,,,,,,,,,,,,,,,,,,,,,,,,,,,,,,,,,,,,,,,,,,,,,,,
,,,,,,,,,,W1590780,2020-10-29_23h44.23.822,swahili,2020.2.4,MacIntel,60,,,,,,,,,,0.518297852,-0.041381653,1,0,0,1.802165,test_pile,15,0,15,0,1,POEM - UTENZI,,,,,,,,,,,,,,,,,,,,,,,,,,,,,,,,,,,,,,,,,,,,,,,,,,,,,,,,,,,,,,,,,,,,,,,,,,,,,,,,
,,,,,,,,,,W1590780,2020-10-29_23h44.23.822,swahili,2020.2.4,MacIntel,60,,,,,,,,,,-0.2692987,0.010717298,1,0,0,0.666665,unsorted_card,16,0,16,0,1,,,,,,,,,,,,,,,,,,,,,,,,,,,,,,,,,,,,,,,,,,,,,,,,,,,,,,,,,,,,,,,,,,,,,,,,,,,,,,,,,
,,,,,,,,,,W1590780,2020-10-29_23h44.23.822,swahili,2020.2.4,MacIntel,60,,,,,,,,,,0.473677703,0.033768272,1,0,0,3.155565,test_pile,17,0,17,0,1,TAILOR - MSHONI,,,,,,,,,,,,,,,,,,,,,,,,,,,,,,,,,,,,,,,,,,,,,,,,,,,,,,,,,,,,,,,,,,,,,,,,,,,,,,,,
,,,,,,,,,,W1590780,2020-10-29_23h44.23.822,swahili,2020.2.4,MacIntel,60,,,,,,,,,,-0.179428457,-0.014664543,1,0,0,0.765165,unsorted_card,18,0,18,0,1,,,,,,,,,,,,,,,,,,,,,,,,,,,,,,,,,,,,,,,,,,,,,,,,,,,,,,,,,,,,,,,,,,,,,,,,,,,,,,,,,
,,,,,,,,,,W1590780,2020-10-29_23h44.23.822,swahili,2020.2.4,MacIntel,60,,,,,,,,,,0.54900033,-0.035853167,1,0,0,2.15346,test_pile,19,0,19,0,1,CHEESE - JIBINI,,,,,,,,,,,,,,,,,,,,,,,,,,,,,,,,,,,,,,,,,,,,,,,,,,,,,,,,,,,,,,,,,,,,,,,,,,,,,,,,
,,,,,,,,,,W1590780,2020-10-29_23h44.23.822,swahili,2020.2.4,MacIntel,60,,,,,,,,,,-0.427721128,-0.009616286,1,0,0,0.678945,unsorted_card,20,0,20,0,1,,,,,,,,,,,,,,,,,,,,,,,,,,,,,,,,,,,,,,,,,,,,,,,,,,,,,,,,,,,,,,,,,,,,,,,,,,,,,,,,,
,,,,,,,,,,W1590780,2020-10-29_23h44.23.822,swahili,2020.2.4,MacIntel,60,,,,,,,,,,0.508489544,0.042798913,1,0,0,1.85362,test_pile,21,0,21,0,1,GRAVE - KABURI,,,,,,,,,,,,,,,,,,,,,,,,,,,,,,,,,,,,,,,,,,,,,,,,,,,,,,,,,,,,,,,,,,,,,,,,,,,,,,,,
,,,,,,,,,,W1590780,2020-10-29_23h44.23.822,swahili,2020.2.4,MacIntel,60,,,,,,,,,,-0.452412632,0.019127155,1,0,0,0.61657,unsorted_card,22,0,22,0,1,,,,,,,,,,,,,,,,,,,,,,,,,,,,,,,,,,,,,,,,,,,,,,,,,,,,,,,,,,,,,,,,,,,,,,,,,,,,,,,,,
,,,,,,,,,,W1590780,2020-10-29_23h44.23.822,swahili,2020.2.4,MacIntel,60,,,,,,,,,,0.428992794,-0.018693778,1,0,0,1.819745,test_pile,23,0,23,0,1,MANURE - SAMADI,,,,,,,,,,,,,,,,,,,,,,,,,,,,,,,,,,,,,,,,,,,,,,,,,,,,,,,,,,,,,,,,,,,,,,,,,,,,,,,,
,,,,,,,,,,W1590780,2020-10-29_23h44.23.822,swahili,2020.2.4,MacIntel,60,,,,,,,,,,-0.421351027,-0.193262744,1,0,0,0.784405,unsorted_card,24,0,24,0,1,,,,,,,,,,,,,,,,,,,,,,,,,,,,,,,,,,,,,,,,,,,,,,,,,,,,,,,,,,,,,,,,,,,,,,,,,,,,,,,,,
,,,,,,,,,,W1590780,2020-10-29_23h44.23.822,swahili,2020.2.4,MacIntel,60,,,,,,,,,,0.520064054,-0.013528392,1,0,0,4.678475,test_pile,25,0,25,0,1,BRIBE - RUSHWA,,,,,,,,,,,,,,,,,,,,,,,,,,,,,,,,,,,,,,,,,,,,,,,,,,,,,,,,,,,,,,,,,,,,,,,,,,,,,,,,
,,,,,,,,,,W1590780,2020-10-29_23h44.23.822,swahili,2020.2.4,MacIntel,60,,,,,,,,,,-0.364697155,-0.195335926,1,0,0,0.681085,unsorted_card,26,0,26,0,1,,,,,,,,,,,,,,,,,,,,,,,,,,,,,,,,,,,,,,,,,,,,,,,,,,,,,,,,,,,,,,,,,,,,,,,,,,,,,,,,,
,,,,,,,,,,W1590780,2020-10-29_23h44.23.822,swahili,2020.2.4,MacIntel,60,,,,,,,,,,0.501383525,-0.104970952,1,0,0,4.026515,test_pile,27,0,27,0,1,ORPHAN - YATIMA,,,,,,,,,,,,,,,,,,,,,,,,,,,,,,,,,,,,,,,,,,,,,,,,,,,,,,,,,,,,,,,,,,,,,,,,,,,,,,,,
,,,,,,,,,,W1590780,2020-10-29_23h44.23.822,swahili,2020.2.4,MacIntel,60,,,,,,,,,,-0.385950452,-0.024597076,1,0,0,0.71584,unsorted_card,28,0,28,0,1,,,,,,,,,,,,,,,,,,,,,,,,,,,,,,,,,,,,,,,,,,,,,,,,,,,,,,,,,,,,,,,,,,,,,,,,,,,,,,,,,
,,,,,,,,,,W1590780,2020-10-29_23h44.23.822,swahili,2020.2.4,MacIntel,60,,,,,,,,,,0.433567257,0.001007309,1,0,0,1.634595,test_pile,29,0,29,0,1,DIVORCE - TALAKA,,,,,,,,,,,,,,,,,,,,,,,,,,,,,,,,,,,,,,,,,,,,,,,,,,,,,,,,,,,,,,,,,,,,,,,,,,,,,,,,
,,,,,,,,,,W1590780,2020-10-29_23h44.23.822,swahili,2020.2.4,MacIntel,60,,,,,,,,,,,,,,,,,,,,,,,,,,,,,,,,,,0,0,0,0,1,,,,,,,,,,,,,,,,,,,,,,,,,,,,,,,,,,,,,,,,,,,,,,,,,,,,,,,,,,,,,,,,
,,,,,,,,,,W1590780,2020-10-29_23h44.23.822,swahili,2020.2.4,MacIntel,60,,,,,,,,,,,,,,,,,,,,,,,,,,,,,,,,,,,,,,,return,,,,,,2.951155,5.311325,0.364903212,-0.034681878,1,0,0,0.902335,yes,OATH,YAMINI,incorrect,0,0,0,0,1,,,,,,,,,,,,,,,,,,,,,,,,,,,,,,,,,,,,,,,,,
,,,,,,,,,,W1590780,2020-10-29_23h44.23.822,swahili,2020.2.4,MacIntel,60,,,,,,,,,,,,,,,,,,,,,,,,,,,,,,,,,,,,,,,,,,,,,,7.87,0.462426997,-0.003291323,1,0,0,1.00122,yes,TAILOR,KUMBARI,incorrect,1,0,1,0,1,,,,,,,,,,,,,,,,,,,,,,,,,,,,,,,,,,,,,,,,,
,,,,,,,,,,W1590780,2020-10-29_23h44.23.822,swahili,2020.2.4,MacIntel,60,,,,,,,,,,,,,,,,,,,,,,,,,,,,,,,,,,,,,,,,,,,,,,9.741005,0.403818529,-0.096982759,1,0,0,0.902735,yes,MERCHANT,MSHONI,incorrect,2,0,2,0,1,,,,,,,,,,,,,,,,,,,,,,,,,,,,,,,,,,,,,,,,,
,,,,,,,,,,W1590780,2020-10-29_23h44.23.822,swahili,2020.2.4,MacIntel,60,,,,,,,,,,,,,,,,,,,,,,,,,,,,,,,,,,,,,,,,,,,,,,3.97428,0.404995997,-0.097193591,1,0,0,0.801515,yes,ORPHAN,YATIMA,incorrect,3,0,3,0,1,,,,,,,,,,,,,,,,,,,,,,,,,,,,,,,,,,,,,,,,,
,,,,,,,,,,W1590780,2020-10-29_23h44.23.822,swahili,2020.2.4,MacIntel,60,,,,,,,,,,,,,,,,,,,,,,,,,,,,,,,,,,,,,,,,,,,,,,13.966925,0.443793566,-0.003221046,1,0,0,0.668185,yes,PARROT,KUKURA,incorrect,4,0,4,0,1,,,,,,,,,,,,,,,,,,,,,,,,,,,,,,,,,,,,,,,,,
,,,,,,,,,,W1590780,2020-10-29_23h44.23.822,swahili,2020.2.4,MacIntel,60,,,,,,,,,,,,,,,,,,,,,,,,,,,,,,,,,,,,,,,,,,,,,,9.225165,0.38869984,-0.141831428,1,0,0,0.86474,yes,PLATE,SAHILI,incorrect,5,0,5,0,1,,,,,,,,,,,,,,,,,,,,,,,,,,,,,,,,,,,,,,,,,
,,,,,,,,,,W1590780,2020-10-29_23h44.23.822,swahili,2020.2.4,MacIntel,60,,,,,,,,,,,,,,,,,,,,,,,,,,,,,,,,,,,,,,,,,,,,,,14.02016,0.648190232,0.038886807,1,0,0,0.83395,yes,MANURE,SAMILI,incorrect,6,0,6,0,1,,,,,,,,,,,,,,,,,,,,,,,,,,,,,,,,,,,,,,,,,
,,,,,,,,,,W1590780,2020-10-29_23h44.23.822,swahili,2020.2.4,MacIntel,60,,,,,,,,,,,,,,,,,,,,,,,,,,,,,,,,,,,,,,,,,,,,,,3.82805,0.314166117,-0.234351574,1,0,0,0.84717,yes,POEM,UNTENZI,incorrect,7,0,7,0,1,,,,,,,,,,,,,,,,,,,,,,,,,,,,,,,,,,,,,,,,,
,,,,,,,,,,W1590780,2020-10-29_23h44.23.822,swahili,2020.2.4,MacIntel,60,,,,,,,,,,,,,,,,,,,,,,,,,,,,,,,,,,,,,,,,,,,,,,4.79234,0.473083082,-0.037129873,1,0,0,0.635245,yes,BRIBE,RUSHWA,incorrect,8,0,8,0,1,,,,,,,,,,,,,,,,,,,,,,,,,,,,,,,,,,,,,,,,,
,,,,,,,,,,W1590780,2020-10-29_23h44.23.822,swahili,2020.2.4,MacIntel,60,,,,,,,,,,,,,,,,,,,,,,,,,,,,,,,,,,,,,,,,,,,,,,4.59037,0.505021901,-0.126030735,1,0,0,0.85209,yes,GRAVE,KUKUMBA,incorrect,9,0,9,0,1,,,,,,,,,,,,,,,,,,,,,,,,,,,,,,,,,,,,,,,,,
,,,,,,,,,,W1590780,2020-10-29_23h44.23.822,swahili,2020.2.4,MacIntel,60,,,,,,,,,,,,,,,,,,,,,,,,,,,,,,,,,,,,,,,,,,,,,,6.66722,0.321731349,-0.159588175,1,0,0,0.798705,yes,DIVORCE,TAKILI,incorrect,10,0,10,0,1,,,,,,,,,,,,,,,,,,,,,,,,,,,,,,,,,,,,,,,,,
,,,,,,,,,,W1590780,2020-10-29_23h44.23.822,swahili,2020.2.4,MacIntel,60,,,,,,,,,,,,,,,,,,,,,,,,,,,,,,,,,,,,,,,,,,,,,,5.32856,0.476933402,0.077808752,1,0,0,0.78527,yes,YEAST,HABIRI,incorrect,11,0,11,0,1,,,,,,,,,,,,,,,,,,,,,,,,,,,,,,,,,,,,,,,,,
,,,,,,,,,,W1590780,2020-10-29_23h44.23.822,swahili,2020.2.4,MacIntel,60,,,,,,,,,,,,,,,,,,,,,,,,,,,,,,,,,,,,,,,,,,,,,,3.757145,0.295044037,-0.110499438,1,0,0,0.919165,yes,BULL,FAHILI,incorrect,12,0,12,0,1,,,,,,,,,,,,,,,,,,,,,,,,,,,,,,,,,,,,,,,,,
,,,,,,,,,,W1590780,2020-10-29_23h44.23.822,swahili,2020.2.4,MacIntel,60,,,,,,,,,,,,,,,,,,,,,,,,,,,,,,,,,,,,,,,,,,,,,,4.49322,0.307884326,-0.069000656,1,0,0,0.7185,yes,CHEESE,JIBILI,incorrect,13,0,13,0,1,,,,,,,,,,,,,,,,,,,,,,,,,,,,,,,,,,,,,,,,,
,,,,,,,,,,W1590780,2020-10-29_23h44.23.822,swahili,2020.2.4,MacIntel,60,,,,,,,,,,,,,,,,,,,,,,,,,,,,,,,,,,,,,,,,,,,,,,7.332615,0.57794838,0.015964674,1,0,0,0.902235,yes,BLAME,TALINI,incorrect,14,0,14,0,1,,,,,,,,,,,,,,,,,,,,,,,,,,,,,,,,,,,,,,,,,
,,,,,,,,,,W1590780,2020-10-29_23h44.23.822,swahili,2020.2.4,MacIntel,60,,,,,,,,,,,,,,,,,,,,,,,,,,,,,,,,,,,,,,,,0,0,0,0,1,,,,,,,,,,,,,,,,,,,,,,,,,,,,,,,,,,,,,,,,,,,,,,,,,,,,,,,,,,
,,,,,,,,,,W1590780,2020-10-29_23h44.23.822,swahili,2020.2.4,MacIntel,60,,,,,,,,,,,,,,,,,,,,,,,,,,,,,,,,,,,,,,,,1,0,1,0,1,,,,,,,,,,,,,,,,,,,,,,,,,,,,,,,,,,,,,,,,,,,,,,,,,,,,,,,,,,
,,,,,,,,,,W1590780,2020-10-29_23h44.23.822,swahili,2020.2.4,MacIntel,60,,,,,,,,,,,,,,,,,,,,,,,,,,,,,,,,,,,,,,,,,,,,,,,,,,,,,,,,,,,,,,1,0,1,0,1,,,,,,,,,,,,,,,,,,,,,,,,,,,,,,,,,,,,
,,,,,,,,,,W1590780,2020-10-29_23h44.23.822,swahili,2020.2.4,MacIntel,60,,,,,,,,,,-0.148160795,-0.149362819,1,0,0,4.131685,unsorted_card,0,0,0,0,1,,,,,,,,,,,,,,,,,,,,,,,,,,,,,,,,,,,,,,,,,,,,,,,,,,,,,,,,,,,,,,,,,,,,,,,,,,,,,,,,,
,,,,,,,,,,W1590780,2020-10-29_23h44.23.822,swahili,2020.2.4,MacIntel,60,,,,,,,,,,0.443039987,-0.062546852,1,0,0,3.42284,test_pile,1,0,1,0,1,MERCHANT - TAJIRI,,,,,,,,,,,,,,,,,,,,,,,,,,,,,,,,,,,,,,,,,,,,,,,,,,,,,,,,,,,,,,,,,,,,,,,,,,,,,,,,
,,,,,,,,,,W1590780,2020-10-29_23h44.23.822,swahili,2020.2.4,MacIntel,60,,,,,,,,,,-0.232667671,-0.061762088,1,0,0,0.481735,unsorted_card,2,0,2,0,1,,,,,,,,,,,,,,,,,,,,,,,,,,,,,,,,,,,,,,,,,,,,,,,,,,,,,,,,,,,,,,,,,,,,,,,,,,,,,,,,,
,,,,,,,,,,W1590780,2020-10-29_23h44.23.822,swahili,2020.2.4,MacIntel,60,,,,,,,,,,0.355424595,0.009627999,1,0,0,1.401155,test_pile,3,0,3,0,1,PARROT - KASUKU,,,,,,,,,,,,,,,,,,,,,,,,,,,,,,,,,,,,,,,,,,,,,,,,,,,,,,,,,,,,,,,,,,,,,,,,,,,,,,,,
,,,,,,,,,,W1590780,2020-10-29_23h44.23.822,swahili,2020.2.4,MacIntel,60,,,,,,,,,,-0.243088263,-0.066740067,1,0,0,0.66527,unsorted_card,4,0,4,0,1,,,,,,,,,,,,,,,,,,,,,,,,,,,,,,,,,,,,,,,,,,,,,,,,,,,,,,,,,,,,,,,,,,,,,,,,,,,,,,,,,
,,,,,,,,,,W1590780,2020-10-29_23h44.23.822,swahili,2020.2.4,MacIntel,60,,,,,,,,,,0.418689949,0.024714205,1,0,0,1.01502,test_pile,5,0,5,0,1,BULL - FAHILI,,,,,,,,,,,,,,,,,,,,,,,,,,,,,,,,,,,,,,,,,,,,,,,,,,,,,,,,,,,,,,,,,,,,,,,,,,,,,,,,
,,,,,,,,,,W1590780,2020-10-29_23h44.23.822,swahili,2020.2.4,MacIntel,60,,,,,,,,,,-0.441891956,0.024714205,1,0,0,0.481815,unsorted_card,6,0,6,0,1,,,,,,,,,,,,,,,,,,,,,,,,,,,,,,,,,,,,,,,,,,,,,,,,,,,,,,,,,,,,,,,,,,,,,,,,,,,,,,,,,
,,,,,,,,,,W1590780,2020-10-29_23h44.23.822,swahili,2020.2.4,MacIntel,60,,,,,,,,,,0.381040411,0.05201696,1,0,0,1.836505,test_pile,7,0,7,0,1,PLATE - SAHANI,,,,,,,,,,,,,,,,,,,,,,,,,,,,,,,,,,,,,,,,,,,,,,,,,,,,,,,,,,,,,,,,,,,,,,,,,,,,,,,,
,,,,,,,,,,W1590780,2020-10-29_23h44.23.822,swahili,2020.2.4,MacIntel,60,,,,,,,,,,-0.195618642,0.061855791,1,0,0,0.550245,unsorted_card,8,0,8,0,1,,,,,,,,,,,,,,,,,,,,,,,,,,,,,,,,,,,,,,,,,,,,,,,,,,,,,,,,,,,,,,,,,,,,,,,,,,,,,,,,,
,,,,,,,,,,W1590780,2020-10-29_23h44.23.822,swahili,2020.2.4,MacIntel,60,,,,,,,,,,0.476079738,0.052953992,1,0,0,1.72104,test_pile,9,0,9,0,1,YEAST - HAMIRA,,,,,,,,,,,,,,,,,,,,,,,,,,,,,,,,,,,,,,,,,,,,,,,,,,,,,,,,,,,,,,,,,,,,,,,,,,,,,,,,
,,,,,,,,,,W1590780,2020-10-29_23h44.23.822,swahili,2020.2.4,MacIntel,60,,,,,,,,,,-0.269398785,-0.151072901,1,0,0,1.167095,unsorted_card,10,0,10,0,1,,,,,,,,,,,,,,,,,,,,,,,,,,,,,,,,,,,,,,,,,,,,,,,,,,,,,,,,,,,,,,,,,,,,,,,,,,,,,,,,,
,,,,,,,,,,W1590780,2020-10-29_23h44.23.822,swahili,2020.2.4,MacIntel,60,,,,,,,,,,0.491239638,0.053387369,1,0,0,1.719145,test_pile,11,0,11,0,1,BLAME - LAWAMA,,,,,,,,,,,,,,,,,,,,,,,,,,,,,,,,,,,,,,,,,,,,,,,,,,,,,,,,,,,,,,,,,,,,,,,,,,,,,,,,
,,,,,,,,,,W1590780,2020-10-29_23h44.23.822,swahili,2020.2.4,MacIntel,60,,,,,,,,,,-0.251265778,0.033452024,1,0,0,0.68324,unsorted_card,12,0,12,0,1,,,,,,,,,,,,,,,,,,,,,,,,,,,,,,,,,,,,,,,,,,,,,,,,,,,,,,,,,,,,,,,,,,,,,,,,,,,,,,,,,
,,,,,,,,,,W1590780,2020-10-29_23h44.23.822,swahili,2020.2.4,MacIntel,60,,,,,,,,,,0.511297805,0.069715142,1,0,0,4.811125,test_pile,13,0,13,0,1,OATH - YAMINI,,,,,,,,,,,,,,,,,,,,,,,,,,,,,,,,,,,,,,,,,,,,,,,,,,,,,,,,,,,,,,,,,,,,,,,,,,,,,,,,
,,,,,,,,,,W1590780,2020-10-29_23h44.23.822,swahili,2020.2.4,MacIntel,60,,,,,,,,,,-0.362889742,0.001159576,1,0,0,0.74814,unsorted_card,14,0,14,0,1,,,,,,,,,,,,,,,,,,,,,,,,,,,,,,,,,,,,,,,,,,,,,,,,,,,,,,,,,,,,,,,,,,,,,,,,,,,,,,,,,
,,,,,,,,,,W1590780,2020-10-29_23h44.23.822,swahili,2020.2.4,MacIntel,60,,,,,,,,,,0.45403165,-0.039659858,1,0,0,2.15512,test_pile,15,0,15,0,1,POEM - UTENZI,,,,,,,,,,,,,,,,,,,,,,,,,,,,,,,,,,,,,,,,,,,,,,,,,,,,,,,,,,,,,,,,,,,,,,,,,,,,,,,,
,,,,,,,,,,W1590780,2020-10-29_23h44.23.822,swahili,2020.2.4,MacIntel,60,,,,,,,,,,-0.287590665,0.042248407,1,0,0,0.632265,unsorted_card,16,0,16,0,1,,,,,,,,,,,,,,,,,,,,,,,,,,,,,,,,,,,,,,,,,,,,,,,,,,,,,,,,,,,,,,,,,,,,,,,,,,,,,,,,,
,,,,,,,,,,W1590780,2020-10-29_23h44.23.822,swahili,2020.2.4,MacIntel,60,,,,,,,,,,0.498068953,-0.059173538,1,0,0,4.15814,test_pile,17,0,17,0,1,TAILOR - MSHONI,,,,,,,,,,,,,,,,,,,,,,,,,,,,,,,,,,,,,,,,,,,,,,,,,,,,,,,,,,,,,,,,,,,,,,,,,,,,,,,,
,,,,,,,,,,W1590780,2020-10-29_23h44.23.822,swahili,2020.2.4,MacIntel,60,,,,,,,,,,-0.278706669,-0.044017054,1,0,0,0.54816,unsorted_card,18,0,18,0,1,,,,,,,,,,,,,,,,,,,,,,,,,,,,,,,,,,,,,,,,,,,,,,,,,,,,,,,,,,,,,,,,,,,,,,,,,,,,,,,,,
,,,,,,,,,,W1590780,2020-10-29_23h44.23.822,swahili,2020.2.4,MacIntel,60,,,,,,,,,,0.557913762,0.002951649,1,0,0,1.151745,test_pile,19,0,19,0,1,CHEESE - JIBINI,,,,,,,,,,,,,,,,,,,,,,,,,,,,,,,,,,,,,,,,,,,,,,,,,,,,,,,,,,,,,,,,,,,,,,,,,,,,,,,,
,,,,,,,,,,W1590780,2020-10-29_23h44.23.822,swahili,2020.2.4,MacIntel,60,,,,,,,,,,-0.271100226,-0.040690592,1,0,0,0.583745,unsorted_card,20,0,20,0,1,,,,,,,,,,,,,,,,,,,,,,,,,,,,,,,,,,,,,,,,,,,,,,,,,,,,,,,,,,,,,,,,,,,,,,,,,,,,,,,,,
,,,,,,,,,,W1590780,2020-10-29_23h44.23.822,swahili,2020.2.4,MacIntel,60,,,,,,,,,,0.539975038,-0.069680004,1,0,0,1.20195,test_pile,21,0,21,0,1,GRAVE - KABURI,,,,,,,,,,,,,,,,,,,,,,,,,,,,,,,,,,,,,,,,,,,,,,,,,,,,,,,,,,,,,,,,,,,,,,,,,,,,,,,,
,,,,,,,,,,W1590780,2020-10-29_23h44.23.822,swahili,2020.2.4,MacIntel,60,,,,,,,,,,-0.159652882,-0.147477043,1,0,0,0.617065,unsorted_card,22,0,22,0,1,,,,,,,,,,,,,,,,,,,,,,,,,,,,,,,,,,,,,,,,,,,,,,,,,,,,,,,,,,,,,,,,,,,,,,,,,,,,,,,,,
,,,,,,,,,,W1590780,2020-10-29_23h44.23.822,swahili,2020.2.4,MacIntel,60,,,,,,,,,,0.455432837,-0.019947058,1,0,0,2.103105,test_pile,23,0,23,0,1,MANURE - SAMADI,,,,,,,,,,,,,,,,,,,,,,,,,,,,,,,,,,,,,,,,,,,,,,,,,,,,,,,,,,,,,,,,,,,,,,,,,,,,,,,,
,,,,,,,,,,W1590780,2020-10-29_23h44.23.822,swahili,2020.2.4,MacIntel,60,,,,,,,,,,-0.491516343,0.011115536,1,0,0,0.579235,unsorted_card,24,0,24,0,1,,,,,,,,,,,,,,,,,,,,,,,,,,,,,,,,,,,,,,,,,,,,,,,,,,,,,,,,,,,,,,,,,,,,,,,,,,,,,,,,,
,,,,,,,,,,W1590780,2020-10-29_23h44.23.822,swahili,2020.2.4,MacIntel,60,,,,,,,,,,0.470422005,-0.012895896,1,0,0,1.899485,test_pile,25,0,25,0,1,BRIBE - RUSHWA,,,,,,,,,,,,,,,,,,,,,,,,,,,,,,,,,,,,,,,,,,,,,,,,,,,,,,,,,,,,,,,,,,,,,,,,,,,,,,,,
,,,,,,,,,,W1590780,2020-10-29_23h44.23.822,swahili,2020.2.4,MacIntel,60,,,,,,,,,,-0.128797334,-0.144138868,1,0,0,0.651065,unsorted_card,26,0,26,0,1,,,,,,,,,,,,,,,,,,,,,,,,,,,,,,,,,,,,,,,,,,,,,,,,,,,,,,,,,,,,,,,,,,,,,,,,,,,,,,,,,
,,,,,,,,,,W1590780,2020-10-29_23h44.23.822,swahili,2020.2.4,MacIntel,60,,,,,,,,,,0.525433308,-0.074622845,1,0,0,1.282565,test_pile,27,0,27,0,1,ORPHAN - YATIMA,,,,,,,,,,,,,,,,,,,,,,,,,,,,,,,,,,,,,,,,,,,,,,,,,,,,,,,,,,,,,,,,,,,,,,,,,,,,,,,,
,,,,,,,,,,W1590780,2020-10-29_23h44.23.822,swahili,2020.2.4,MacIntel,60,,,,,,,,,,-0.247068105,-0.072034295,1,0,0,0.86688,unsorted_card,28,0,28,0,1,,,,,,,,,,,,,,,,,,,,,,,,,,,,,,,,,,,,,,,,,,,,,,,,,,,,,,,,,,,,,,,,,,,,,,,,,,,,,,,,,
,,,,,,,,,,W1590780,2020-10-29_23h44.23.822,swahili,2020.2.4,MacIntel,60,,,,,,,,,,0.458252873,-0.070183658,1,0,0,4.49451,test_pile,29,0,29,0,1,DIVORCE - TALAKA,,,,,,,,,,,,,,,,,,,,,,,,,,,,,,,,,,,,,,,,,,,,,,,,,,,,,,,,,,,,,,,,,,,,,,,,,,,,,,,,
,,,,,,,,,,W1590780,2020-10-29_23h44.23.822,swahili,2020.2.4,MacIntel,60,,,,,,,,,,,,,,,,,,,,,,,,,,,,,,,,,,0,0,0,0,1,,,,,,,,,,,,,,,,,,,,,,,,,,,,,,,,,,,,,,,,,,,,,,,,,,,,,,,,,,,,,,,,
,,,,,,,,,,W1590780,2020-10-29_23h44.23.822,swahili,2020.2.4,MacIntel,60,,,,,,,,,,,,,,,,,,,,,,,,,,,,,,,,,,,,,,,return,,,,,,1.74292,7.217235,0.402323144,-0.034962987,1,0,0,0.7701,yes,MERCHANT,YAMINI,incorrect,0,0,0,0,1,,,,,,,,,,,,,,,,,,,,,,,,,,,,,,,,,,,,,,,,,
,,,,,,,,,,W1590780,2020-10-29_23h44.23.822,swahili,2020.2.4,MacIntel,60,,,,,,,,,,,,,,,,,,,,,,,,,,,,,,,,,,,,,,,,,,,,,,4.941865,0.373369207,-0.131617785,1,0,0,0.635915,yes,TAILOR,MSHONI,incorrect,1,0,1,0,1,,,,,,,,,,,,,,,,,,,,,,,,,,,,,,,,,,,,,,,,,
,,,,,,,,,,W1590780,2020-10-29_23h44.23.822,swahili,2020.2.4,MacIntel,60,,,,,,,,,,,,,,,,,,,,,,,,,,,,,,,,,,,,,,,,,,,,,,2.65563,0.435875094,-0.040585176,1,0,0,0.634735,yes,ORPHAN,YATIMA,incorrect,2,0,2,0,1,,,,,,,,,,,,,,,,,,,,,,,,,,,,,,,,,,,,,,,,,
,,,,,,,,,,W1590780,2020-10-29_23h44.23.822,swahili,2020.2.4,MacIntel,60,,,,,,,,,,,,,,,,,,,,,,,,,,,,,,,,,,,,,,,,,,,,,,6.0466,0.424229936,-0.137298538,1,0,0,0.66843,yes,MANURE,SAHINI,incorrect,3,0,3,0,1,,,,,,,,,,,,,,,,,,,,,,,,,,,,,,,,,,,,,,,,,
,,,,,,,,,,W1590780,2020-10-29_23h44.23.822,swahili,2020.2.4,MacIntel,60,,,,,,,,,,,,,,,,,,,,,,,,,,,,,,,,,,,,,,,,,,,,,,5.99613,0.353558308,-0.180226293,1,0,0,0.702695,yes,OATH,YAMINI,incorrect,4,0,4,0,1,,,,,,,,,,,,,,,,,,,,,,,,,,,,,,,,,,,,,,,,,
,,,,,,,,,,W1590780,2020-10-29_23h44.23.822,swahili,2020.2.4,MacIntel,60,,,,,,,,,,,,,,,,,,,,,,,,,,,,,,,,,,,,,,,,,,,,,,11.310975,0.456957658,-0.107582927,1,0,0,0.567795,yes,CHEESE,JABINI,incorrect,5,0,5,0,1,,,,,,,,,,,,,,,,,,,,,,,,,,,,,,,,,,,,,,,,,
,,,,,,,,,,W1590780,2020-10-29_23h44.23.822,swahili,2020.2.4,MacIntel,60,,,,,,,,,,,,,,,,,,,,,,,,,,,,,,,,,,,,,,,,,,,,,,3.558435,0.539668896,-0.026963081,1,0,0,0.60037,yes,DIVORCE,TALAKA,incorrect,6,0,6,0,1,,,,,,,,,,,,,,,,,,,,,,,,,,,,,,,,,,,,,,,,,
,,,,,,,,,,W1590780,2020-10-29_23h44.23.822,swahili,2020.2.4,MacIntel,60,,,,,,,,,,,,,,,,,,,,,,,,,,,,,,,,,,,,,,,,,,,,,,2.85523,0.481030991,-0.076145521,1,0,0,0.61953,yes,POEM,UTENZI,incorrect,7,0,7,0,1,,,,,,,,,,,,,,,,,,,,,,,,,,,,,,,,,,,,,,,,,
,,,,,,,,,,W1590780,2020-10-29_23h44.23.822,swahili,2020.2.4,MacIntel,60,,,,,,,,,,,,,,,,,,,,,,,,,,,,,,,,,,,,,,,,,,,,,,9.707945,0.356443105,-0.101796758,1,0,0,0.787375,yes,BULL,SAMINI,incorrect,8,0,8,0,1,,,,,,,,,,,,,,,,,,,,,,,,,,,,,,,,,,,,,,,,,
,,,,,,,,,,W1590780,2020-10-29_23h44.23.822,swahili,2020.2.4,MacIntel,60,,,,,,,,,,,,,,,,,,,,,,,,,,,,,,,,,,,,,,,,,,,,,,3.10655,0.407150763,-0.11151846,1,0,0,0.71685,yes,PLATE,YAMINI,incorrect,9,0,9,0,1,,,,,,,,,,,,,,,,,,,,,,,,,,,,,,,,,,,,,,,,,
,,,,,,,,,,W1590780,2020-10-29_23h44.23.822,swahili,2020.2.4,MacIntel,60,,,,,,,,,,,,,,,,,,,,,,,,,,,,,,,,,,,,,,,,,,,,,,4.15782,0.386609834,-0.031519397,1,0,0,0.785755,yes,BLAME,YAMINI,incorrect,10,0,10,0,1,,,,,,,,,,,,,,,,,,,,,,,,,,,,,,,,,,,,,,,,,
,,,,,,,,,,W1590780,2020-10-29_23h44.23.822,swahili,2020.2.4,MacIntel,60,,,,,,,,,,,,,,,,,,,,,,,,,,,,,,,,,,,,,,,,,,,,,,8.551745,0.377996656,-0.069070933,1,0,0,0.854145,yes,PARROT,KUBUKA,incorrect,11,0,11,0,1,,,,,,,,,,,,,,,,,,,,,,,,,,,,,,,,,,,,,,,,,
,,,,,,,,,,W1590780,2020-10-29_23h44.23.822,swahili,2020.2.4,MacIntel,60,,,,,,,,,,,,,,,,,,,,,,,,,,,,,,,,,,,,,,,,,,,,,,5.613045,0.444399962,-0.064338924,1,0,0,0.63489,yes,BRIBE,RUSHWA,incorrect,12,0,12,0,1,,,,,,,,,,,,,,,,,,,,,,,,,,,,,,,,,,,,,,,,,
,,,,,,,,,,W1590780,2020-10-29_23h44.23.822,swahili,2020.2.4,MacIntel,60,,,,,,,,,,,,,,,,,,,,,,,,,,,,,,,,,,,,,,,,,,,,,,7.667035,0.561905379,-0.020872376,1,0,0,0.768575,yes,GRAVE,KUBULI,incorrect,13,0,13,0,1,,,,,,,,,,,,,,,,,,,,,,,,,,,,,,,,,,,,,,,,,
,,,,,,,,,,W1590780,2020-10-29_23h44.23.822,swahili,2020.2.4,MacIntel,60,,,,,,,,,,,,,,,,,,,,,,,,,,,,,,,,,,,,,,,,,,,,,,3.474895,0.435816221,-0.089334239,1,0,0,0.57001,yes,YEAST,HAMIRA,incorrect,14,0,14,0,1,,,,,,,,,,,,,,,,,,,,,,,,,,,,,,,,,,,,,,,,,
,,,,,,,,,,W1590780,2020-10-29_23h44.23.822,swahili,2020.2.4,MacIntel,60,,,,,,,,,,,,,,,,,,,,,,,,,,,,,,,,,,,,,,,,0,0,0,0,1,,,,,,,,,,,,,,,,,,,,,,,,,,,,,,,,,,,,,,,,,,,,,,,,,,,,,,,,,,
,,,,,,,,,,W1590780,2020-10-29_23h44.23.822,swahili,2020.2.4,MacIntel,60,,,,,,,,,,,,,,,,,,,,,,,,,,,,,,,,,,,,,,,,1,0,1,0,1,,,,,,,,,,,,,,,,,,,,,,,,,,,,,,,,,,,,,,,,,,,,,,,,,,,,,,,,,,
,,,,,,,,,,W1590780,2020-10-29_23h44.23.822,swahili,2020.2.4,MacIntel,60,,,,,,,,,,,,,,,,,,,,,,,,,,,,,,,,,,,,,,,,,,,,,,,,,,,,,,,,,,,,,,2,0,2,0,1,,,,,,,,,,,,,,,,,,,,,,,,,,,,,,,,,,,,
,,,,,,,,,,W1590780,2020-10-29_23h44.23.822,swahili,2020.2.4,MacIntel,60,,,,,,,,,,-0.381558497,0.020708396,1,0,0,1.35492,unsorted_card,0,0,0,0,1,,,,,,,,,,,,,,,,,,,,,,,,,,,,,,,,,,,,,,,,,,,,,,,,,,,,,,,,,,,,,,,,,,,,,,,,,,,,,,,,,
,,,,,,,,,,W1590780,2020-10-29_23h44.23.822,swahili,2020.2.4,MacIntel,60,,,,,,,,,,0.375783016,0.040151799,1,0,0,1.570415,test_pile,1,0,1,0,1,MERCHANT - TAJIRI,,,,,,,,,,,,,,,,,,,,,,,,,,,,,,,,,,,,,,,,,,,,,,,,,,,,,,,,,,,,,,,,,,,,,,,,,,,,,,,,
,,,,,,,,,,W1590780,2020-10-29_23h44.23.822,swahili,2020.2.4,MacIntel,60,,,,,,,,,,-0.175160136,0.040151799,1,0,0,0.41423,unsorted_card,2,0,2,0,1,,,,,,,,,,,,,,,,,,,,,,,,,,,,,,,,,,,,,,,,,,,,,,,,,,,,,,,,,,,,,,,,,,,,,,,,,,,,,,,,,
,,,,,,,,,,W1590780,2020-10-29_23h44.23.822,swahili,2020.2.4,MacIntel,60,,,,,,,,,,0.434356161,0.048913043,1,0,0,1.218915,test_pile,3,0,3,0,1,PARROT - KASUKU,,,,,,,,,,,,,,,,,,,,,,,,,,,,,,,,,,,,,,,,,,,,,,,,,,,,,,,,,,,,,,,,,,,,,,,,,,,,,,,,
,,,,,,,,,,W1590780,2020-10-29_23h44.23.822,swahili,2020.2.4,MacIntel,60,,,,,,,,,,-0.262457611,0.048913043,1,0,0,0.383295,unsorted_card,4,0,4,0,1,,,,,,,,,,,,,,,,,,,,,,,,,,,,,,,,,,,,,,,,,,,,,,,,,,,,,,,,,,,,,,,,,,,,,,,,,,,,,,,,,
,,,,,,,,,,W1590780,2020-10-29_23h44.23.822,swahili,2020.2.4,MacIntel,60,,,,,,,,,,0.446648926,-0.05893928,1,0,0,1.24999,test_pile,5,0,5,0,1,BULL - FAHILI,,,,,,,,,,,,,,,,,,,,,,,,,,,,,,,,,,,,,,,,,,,,,,,,,,,,,,,,,,,,,,,,,,,,,,,,,,,,,,,,
,,,,,,,,,,W1590780,2020-10-29_23h44.23.822,swahili,2020.2.4,MacIntel,60,,,,,,,,,,-0.316568152,-0.060707927,1,0,0,0.38326,unsorted_card,6,0,6,0,1,,,,,,,,,,,,,,,,,,,,,,,,,,,,,,,,,,,,,,,,,,,,,,,,,,,,,,,,,,,,,,,,,,,,,,,,,,,,,,,,,
,,,,,,,,,,W1590780,2020-10-29_23h44.23.822,swahili,2020.2.4,MacIntel,60,,,,,,,,,,0.427309015,-0.013704085,1,0,0,1.33115,test_pile,7,0,7,0,1,PLATE - SAHANI,,,,,,,,,,,,,,,,,,,,,,,,,,,,,,,,,,,,,,,,,,,,,,,,,,,,,,,,,,,,,,,,,,,,,,,,,,,,,,,,
,,,,,,,,,,W1590780,2020-10-29_23h44.23.822,swahili,2020.2.4,MacIntel,60,,,,,,,,,,-0.311092926,-0.031343703,1,0,0,0.37976,unsorted_card,8,0,8,0,1,,,,,,,,,,,,,,,,,,,,,,,,,,,,,,,,,,,,,,,,,,,,,,,,,,,,,,,,,,,,,,,,,,,,,,,,,,,,,,,,,
,,,,,,,,,,W1590780,2020-10-29_23h44.23.822,swahili,2020.2.4,MacIntel,60,,,,,,,,,,0.386168284,-0.472146739,1,0,0,1.519355,done_pile,9,0,9,0,1,YEAST - HAMIRA,,,,,,,,,,,,,,,,,,,,,,,,,,,,,,,,,,,,,,,,,,,,,,,,,,,,,,,,,,,,,,,,,,,,,,,,,,,,,,,,
,,,,,,,,,,W1590780,2020-10-29_23h44.23.822,swahili,2020.2.4,MacIntel,60,,,,,,,,,,-0.247733374,-0.125878467,1,0,0,0.564845,unsorted_card,10,0,10,0,1,,,,,,,,,,,,,,,,,,,,,,,,,,,,,,,,,,,,,,,,,,,,,,,,,,,,,,,,,,,,,,,,,,,,,,,,,,,,,,,,,
,,,,,,,,,,W1590780,2020-10-29_23h44.23.822,swahili,2020.2.4,MacIntel,60,,,,,,,,,,0.474390072,-0.00097217,1,0,0,1.85311,test_pile,11,0,11,0,1,BLAME - LAWAMA,,,,,,,,,,,,,,,,,,,,,,,,,,,,,,,,,,,,,,,,,,,,,,,,,,,,,,,,,,,,,,,,,,,,,,,,,,,,,,,,
,,,,,,,,,,W1590780,2020-10-29_23h44.23.822,swahili,2020.2.4,MacIntel,60,,,,,,,,,,-0.146553551,-0.009733415,1,0,0,0.414415,unsorted_card,12,0,12,0,1,,,,,,,,,,,,,,,,,,,,,,,,,,,,,,,,,,,,,,,,,,,,,,,,,,,,,,,,,,,,,,,,,,,,,,,,,,,,,,,,,
,,,,,,,,,,W1590780,2020-10-29_23h44.23.822,swahili,2020.2.4,MacIntel,60,,,,,,,,,,0.408981726,-0.014805097,1,0,0,4.678595,test_pile,13,0,13,0,1,OATH - YAMINI,,,,,,,,,,,,,,,,,,,,,,,,,,,,,,,,,,,,,,,,,,,,,,,,,,,,,,,,,,,,,,,,,,,,,,,,,,,,,,,,
,,,,,,,,,,W1590780,2020-10-29_23h44.23.822,swahili,2020.2.4,MacIntel,60,,,,,,,,,,-0.179752261,-0.009709989,1,0,0,0.396975,unsorted_card,14,0,14,0,1,,,,,,,,,,,,,,,,,,,,,,,,,,,,,,,,,,,,,,,,,,,,,,,,,,,,,,,,,,,,,,,,,,,,,,,,,,,,,,,,,
,,,,,,,,,,W1590780,2020-10-29_23h44.23.822,swahili,2020.2.4,MacIntel,60,,,,,,,,,,0.425377967,-0.408346608,1,0,0,0.91848,done_pile,15,0,15,0,1,POEM - UTENZI,,,,,,,,,,,,,,,,,,,,,,,,,,,,,,,,,,,,,,,,,,,,,,,,,,,,,,,,,,,,,,,,,,,,,,,,,,,,,,,,
,,,,,,,,,,W1590780,2020-10-29_23h44.23.822,swahili,2020.2.4,MacIntel,60,,,,,,,,,,-0.327765872,-0.308787013,1,0,0,0.432765,unsorted_card,16,0,16,0,1,,,,,,,,,,,,,,,,,,,,,,,,,,,,,,,,,,,,,,,,,,,,,,,,,,,,,,,,,,,,,,,,,,,,,,,,,,,,,,,,,
,,,,,,,,,,W1590780,2020-10-29_23h44.23.822,swahili,2020.2.4,MacIntel,60,,,,,,,,,,0.500682931,-0.500257684,1,0,0,2.50552,done_pile,17,0,17,0,1,TAILOR - MSHONI,,,,,,,,,,,,,,,,,,,,,,,,,,,,,,,,,,,,,,,,,,,,,,,,,,,,,,,,,,,,,,,,,,,,,,,,,,,,,,,,
,,,,,,,,,,W1590780,2020-10-29_23h44.23.822,swahili,2020.2.4,MacIntel,60,,,,,,,,,,-0.227304305,-0.039531016,1,0,0,0.56711,unsorted_card,18,0,18,0,1,,,,,,,,,,,,,,,,,,,,,,,,,,,,,,,,,,,,,,,,,,,,,,,,,,,,,,,,,,,,,,,,,,,,,,,,,,,,,,,,,
,,,,,,,,,,W1590780,2020-10-29_23h44.23.822,swahili,2020.2.4,MacIntel,60,,,,,,,,,,0.528276893,-0.118874157,1,0,0,1.387235,test_pile,19,0,19,0,1,CHEESE - JIBINI,,,,,,,,,,,,,,,,,,,,,,,,,,,,,,,,,,,,,,,,,,,,,,,,,,,,,,,,,,,,,,,,,,,,,,,,,,,,,,,,
,,,,,,,,,,W1590780,2020-10-29_23h44.23.822,swahili,2020.2.4,MacIntel,60,,,,,,,,,,-0.346263894,-0.116367597,1,0,0,0.59798,unsorted_card,20,0,20,0,1,,,,,,,,,,,,,,,,,,,,,,,,,,,,,,,,,,,,,,,,,,,,,,,,,,,,,,,,,,,,,,,,,,,,,,,,,,,,,,,,,
,,,,,,,,,,W1590780,2020-10-29_23h44.23.822,swahili,2020.2.4,MacIntel,60,,,,,,,,,,0.514423983,-0.076672601,1,0,0,1.085005,test_pile,21,0,21,0,1,GRAVE - KABURI,,,,,,,,,,,,,,,,,,,,,,,,,,,,,,,,,,,,,,,,,,,,,,,,,,,,,,,,,,,,,,,,,,,,,,,,,,,,,,,,
,,,,,,,,,,W1590780,2020-10-29_23h44.23.822,swahili,2020.2.4,MacIntel,60,,,,,,,,,,-0.272130511,-0.069152924,1,0,0,0.466275,unsorted_card,22,0,22,0,1,,,,,,,,,,,,,,,,,,,,,,,,,,,,,,,,,,,,,,,,,,,,,,,,,,,,,,,,,,,,,,,,,,,,,,,,,,,,,,,,,
,,,,,,,,,,W1590780,2020-10-29_23h44.23.822,swahili,2020.2.4,MacIntel,60,,,,,,,,,,0.471163809,-0.053199963,1,0,0,1.769035,test_pile,23,0,23,0,1,MANURE - SAMADI,,,,,,,,,,,,,,,,,,,,,,,,,,,,,,,,,,,,,,,,,,,,,,,,,,,,,,,,,,,,,,,,,,,,,,,,,,,,,,,,
,,,,,,,,,,W1590780,2020-10-29_23h44.23.822,swahili,2020.2.4,MacIntel,60,,,,,,,,,,-0.37674854,-0.053199963,1,0,0,0.38113,unsorted_card,24,0,24,0,1,,,,,,,,,,,,,,,,,,,,,,,,,,,,,,,,,,,,,,,,,,,,,,,,,,,,,,,,,,,,,,,,,,,,,,,,,,,,,,,,,
,,,,,,,,,,W1590780,2020-10-29_23h44.23.822,swahili,2020.2.4,MacIntel,60,,,,,,,,,,0.377066456,-0.456498313,1,0,0,1.34997,done_pile,25,0,25,0,1,BRIBE - RUSHWA,,,,,,,,,,,,,,,,,,,,,,,,,,,,,,,,,,,,,,,,,,,,,,,,,,,,,,,,,,,,,,,,,,,,,,,,,,,,,,,,
,,,,,,,,,,W1590780,2020-10-29_23h44.23.822,swahili,2020.2.4,MacIntel,60,,,,,,,,,,-0.260249859,-0.063097358,1,0,0,0.40136,unsorted_card,26,0,26,0,1,,,,,,,,,,,,,,,,,,,,,,,,,,,,,,,,,,,,,,,,,,,,,,,,,,,,,,,,,,,,,,,,,,,,,,,,,,,,,,,,,
,,,,,,,,,,W1590780,2020-10-29_23h44.23.822,swahili,2020.2.4,MacIntel,60,,,,,,,,,,0.403524162,-0.426970109,1,0,0,2.23967,done_pile,27,0,27,0,1,ORPHAN - YATIMA,,,,,,,,,,,,,,,,,,,,,,,,,,,,,,,,,,,,,,,,,,,,,,,,,,,,,,,,,,,,,,,,,,,,,,,,,,,,,,,,
,,,,,,,,,,W1590780,2020-10-29_23h44.23.822,swahili,2020.2.4,MacIntel,60,,,,,,,,,,-0.248439855,0.002319153,1,0,0,0.46118,unsorted_card,28,0,28,0,1,,,,,,,,,,,,,,,,,,,,,,,,,,,,,,,,,,,,,,,,,,,,,,,,,,,,,,,,,,,,,,,,,,,,,,,,,,,,,,,,,
,,,,,,,,,,W1590780,2020-10-29_23h44.23.822,swahili,2020.2.4,MacIntel,60,,,,,,,,,,0.46846152,-0.02493675,1,0,0,5.948365,test_pile,29,0,29,0,1,DIVORCE - TALAKA,,,,,,,,,,,,,,,,,,,,,,,,,,,,,,,,,,,,,,,,,,,,,,,,,,,,,,,,,,,,,,,,,,,,,,,,,,,,,,,,
,,,,,,,,,,W1590780,2020-10-29_23h44.23.822,swahili,2020.2.4,MacIntel,60,,,,,,,,,,,,,,,,,,,,,,,,,,,,,,,,,,0,0,0,0,1,,,,,,,,,,,,,,,,,,,,,,,,,,,,,,,,,,,,,,,,,,,,,,,,,,,,,,,,,,,,,,,,
,,,,,,,,,,W1590780,2020-10-29_23h44.23.822,swahili,2020.2.4,MacIntel,60,,,,,,,,,,,,,,,,,,,,,,,,,,,,,,,,,,,,,,,return,,,,,,2.074505,8.95574,0.467649067,-0.081451462,1,0,0,0.66786,yes,PLATE,KAHURI,incorrect,0,0,0,0,1,,,,,,,,,,,,,,,,,,,,,,,,,,,,,,,,,,,,,,,,,
,,,,,,,,,,W1590780,2020-10-29_23h44.23.822,swahili,2020.2.4,MacIntel,60,,,,,,,,,,,,,,,,,,,,,,,,,,,,,,,,,,,,,,,,,,,,,,5.395815,0.398272654,0.013774363,1,0,0,0.534205,yes,DIVORCE,KAHILI,incorrect,1,0,1,0,1,,,,,,,,,,,,,,,,,,,,,,,,,,,,,,,,,,,,,,,,,
,,,,,,,,,,W1590780,2020-10-29_23h44.23.822,swahili,2020.2.4,MacIntel,60,,,,,,,,,,,,,,,,,,,,,,,,,,,,,,,,,,,,,,,,,,,,,,3.006965,0.361576865,-0.03550178,1,0,0,0.550805,yes,BULL,FAHILI,incorrect,2,0,2,0,1,,,,,,,,,,,,,,,,,,,,,,,,,,,,,,,,,,,,,,,,,
,,,,,,,,,,W1590780,2020-10-29_23h44.23.822,swahili,2020.2.4,MacIntel,60,,,,,,,,,,,,,,,,,,,,,,,,,,,,,,,,,,,,,,,,,,,,,,3.03914,0.400239026,-0.182123782,1,0,0,0.6013,yes,OATH,YAMANI,incorrect,3,0,3,0,1,,,,,,,,,,,,,,,,,,,,,,,,,,,,,,,,,,,,,,,,,
,,,,,,,,,,W1590780,2020-10-29_23h44.23.822,swahili,2020.2.4,MacIntel,60,,,,,,,,,,,,,,,,,,,,,,,,,,,,,,,,,,,,,,,,,,,,,,23.692915,0.443634608,-0.045270334,1,0,0,0.568065,yes,MANURE,KABINI,incorrect,4,0,4,0,1,,,,,,,,,,,,,,,,,,,,,,,,,,,,,,,,,,,,,,,,,
,,,,,,,,,,W1590780,2020-10-29_23h44.23.822,swahili,2020.2.4,MacIntel,60,,,,,,,,,,,,,,,,,,,,,,,,,,,,,,,,,,,,,,,,,,,,,,9.575515,0.500665269,-0.102628373,1,0,0,0.600155,yes,PARROT,KAKATSU,incorrect,5,0,5,0,1,,,,,,,,,,,,,,,,,,,,,,,,,,,,,,,,,,,,,,,,,
,,,,,,,,,,W1590780,2020-10-29_23h44.23.822,swahili,2020.2.4,MacIntel,60,,,,,,,,,,,,,,,,,,,,,,,,,,,,,,,,,,,,,,,,,,,,,,9.089445,0.406155803,-0.072608227,1,0,0,0.618065,yes,GRAVE,KAHINI,incorrect,6,0,6,0,1,,,,,,,,,,,,,,,,,,,,,,,,,,,,,,,,,,,,,,,,,
,,,,,,,,,,W1590780,2020-10-29_23h44.23.822,swahili,2020.2.4,MacIntel,60,,,,,,,,,,,,,,,,,,,,,,,,,,,,,,,,,,,,,,,,,,,,,,3.97381,0.411895959,-0.081310907,1,0,0,0.63486,yes,MERCHANT,SAHILI,incorrect,7,0,7,0,1,,,,,,,,,,,,,,,,,,,,,,,,,,,,,,,,,,,,,,,,,
,,,,,,,,,,W1590780,2020-10-29_23h44.23.822,swahili,2020.2.4,MacIntel,60,,,,,,,,,,,,,,,,,,,,,,,,,,,,,,,,,,,,,,,,,,,,,,4.09058,0.395234787,0.014887088,1,0,0,0.56797,yes,CHEESE,JIBINI,incorrect,8,0,8,0,1,,,,,,,,,,,,,,,,,,,,,,,,,,,,,,,,,,,,,,,,,
,,,,,,,,,,W1590780,2020-10-29_23h44.23.822,swahili,2020.2.4,MacIntel,60,,,,,,,,,,,,,,,,,,,,,,,,,,,,,,,,,,,,,,,,,,,,,,6.414905,0.398478711,-0.049428411,1,0,0,0.602485,yes,BLAME,TAKASHI,incorrect,9,0,9,0,1,,,,,,,,,,,,,,,,,,,,,,,,,,,,,,,,,,,,,,,,,
,,,,,,,,,,W1590780,2020-10-29_23h44.23.822,swahili,2020.2.4,MacIntel,60,,,,,,,,,,,,,,,,,,,,,,,,,,,,,,,,,,,,,,,,0,0,0,0,1,,,,,,,,,,,,,,,,,,,,,,,,,,,,,,,,,,,,,,,,,,,,,,,,,,,,,,,,,,
,,,,,,,,,,W1590780,2020-10-29_23h44.23.822,swahili,2020.2.4,MacIntel,60,,,,,,,,,,,,,,,,,,,,,,,,,,,,,,,,,,,,,,,,1,0,1,0,1,,,,,,,,,,,,,,,,,,,,,,,,,,,,,,,,,,,,,,,,,,,,,,,,,,,,,,,,,,
,,,,,,,,,,W1590780,2020-10-29_23h44.23.822,swahili,2020.2.4,MacIntel,60,,,,,,,,,,,,,,,,,,,,,,,,,,,,,,,,,,,,,,,,,,,,,,,,,,,,,,,,,,,,,,3,0,3,0,1,,,,,,,,,,,,,,,,,,,,,,,,,,,,,,,,,,,,
,,,,,,,,,,W1590780,2020-10-29_23h44.23.822,swahili,2020.2.4,MacIntel,60,,,,,,,,,,-0.196960955,-0.020392148,1,0,0,1.256225,unsorted_card,0,0,0,0,1,,,,,,,,,,,,,,,,,,,,,,,,,,,,,,,,,,,,,,,,,,,,,,,,,,,,,,,,,,,,,,,,,,,,,,,,,,,,,,,,,
,,,,,,,,,,W1590780,2020-10-29_23h44.23.822,swahili,2020.2.4,MacIntel,60,,,,,,,,,,0.37342808,-0.047003842,1,0,0,2.338765,test_pile,1,0,1,0,1,MERCHANT - TAJIRI,,,,,,,,,,,,,,,,,,,,,,,,,,,,,,,,,,,,,,,,,,,,,,,,,,,,,,,,,,,,,,,,,,,,,,,,,,,,,,,,
,,,,,,,,,,W1590780,2020-10-29_23h44.23.822,swahili,2020.2.4,MacIntel,60,,,,,,,,,,-0.319182131,-0.047003842,1,0,0,0.46521,unsorted_card,2,0,2,0,1,,,,,,,,,,,,,,,,,,,,,,,,,,,,,,,,,,,,,,,,,,,,,,,,,,,,,,,,,,,,,,,,,,,,,,,,,,,,,,,,,
,,,,,,,,,,W1590780,2020-10-29_23h44.23.822,swahili,2020.2.4,MacIntel,60,,,,,,,,,,0.479494395,-0.03505669,1,0,0,2.237735,test_pile,3,0,3,0,1,PARROT - KASUKU,,,,,,,,,,,,,,,,,,,,,,,,,,,,,,,,,,,,,,,,,,,,,,,,,,,,,,,,,,,,,,,,,,,,,,,,,,,,,,,,
,,,,,,,,,,W1590780,2020-10-29_23h44.23.822,swahili,2020.2.4,MacIntel,60,,,,,,,,,,-0.303963357,-0.143061282,1,0,0,0.599795,unsorted_card,4,0,4,0,1,,,,,,,,,,,,,,,,,,,,,,,,,,,,,,,,,,,,,,,,,,,,,,,,,,,,,,,,,,,,,,,,,,,,,,,,,,,,,,,,,
,,,,,,,,,,W1590780,2020-10-29_23h44.23.822,swahili,2020.2.4,MacIntel,60,,,,,,,,,,0.502672852,-0.014969078,1,0,0,2.505475,test_pile,5,0,5,0,1,BULL - FAHILI,,,,,,,,,,,,,,,,,,,,,,,,,,,,,,,,,,,,,,,,,,,,,,,,,,,,,,,,,,,,,,,,,,,,,,,,,,,,,,,,
,,,,,,,,,,W1590780,2020-10-29_23h44.23.822,swahili,2020.2.4,MacIntel,60,,,,,,,,,,-0.17858068,0.054617223,1,0,0,0.464215,unsorted_card,6,0,6,0,1,,,,,,,,,,,,,,,,,,,,,,,,,,,,,,,,,,,,,,,,,,,,,,,,,,,,,,,,,,,,,,,,,,,,,,,,,,,,,,,,,
,,,,,,,,,,W1590780,2020-10-29_23h44.23.822,swahili,2020.2.4,MacIntel,60,,,,,,,,,,0.543254286,-0.020134464,1,0,0,1.35302,test_pile,7,0,7,0,1,PLATE - SAHANI,,,,,,,,,,,,,,,,,,,,,,,,,,,,,,,,,,,,,,,,,,,,,,,,,,,,,,,,,,,,,,,,,,,,,,,,,,,,,,,,
,,,,,,,,,,W1590780,2020-10-29_23h44.23.822,swahili,2020.2.4,MacIntel,60,,,,,,,,,,-0.217937547,-0.072584801,1,0,0,0.49985,unsorted_card,8,0,8,0,1,,,,,,,,,,,,,,,,,,,,,,,,,,,,,,,,,,,,,,,,,,,,,,,,,,,,,,,,,,,,,,,,,,,,,,,,,,,,,,,,,
,,,,,,,,,,W1590780,2020-10-29_23h44.23.822,swahili,2020.2.4,MacIntel,60,,,,,,,,,,0.53364026,-0.054816342,1,0,0,1.1661,test_pile,9,0,9,0,1,BLAME - LAWAMA,,,,,,,,,,,,,,,,,,,,,,,,,,,,,,,,,,,,,,,,,,,,,,,,,,,,,,,,,,,,,,,,,,,,,,,,,,,,,,,,
,,,,,,,,,,W1590780,2020-10-29_23h44.23.822,swahili,2020.2.4,MacIntel,60,,,,,,,,,,-0.299559627,-0.035759464,1,0,0,0.447465,unsorted_card,10,0,10,0,1,,,,,,,,,,,,,,,,,,,,,,,,,,,,,,,,,,,,,,,,,,,,,,,,,,,,,,,,,,,,,,,,,,,,,,,,,,,,,,,,,
,,,,,,,,,,W1590780,2020-10-29_23h44.23.822,swahili,2020.2.4,MacIntel,60,,,,,,,,,,0.410547758,-0.494565217,1,0,0,1.83725,done_pile,11,0,11,0,1,OATH - YAMINI,,,,,,,,,,,,,,,,,,,,,,,,,,,,,,,,,,,,,,,,,,,,,,,,,,,,,,,,,,,,,,,,,,,,,,,,,,,,,,,,
,,,,,,,,,,W1590780,2020-10-29_23h44.23.822,swahili,2020.2.4,MacIntel,60,,,,,,,,,,-0.342254616,-0.008936938,1,0,0,0.467615,unsorted_card,12,0,12,0,1,,,,,,,,,,,,,,,,,,,,,,,,,,,,,,,,,,,,,,,,,,,,,,,,,,,,,,,,,,,,,,,,,,,,,,,,,,,,,,,,,
,,,,,,,,,,W1590780,2020-10-29_23h44.23.822,swahili,2020.2.4,MacIntel,60,,,,,,,,,,0.442115674,-0.482922601,1,0,0,1.78338,done_pile,13,0,13,0,1,CHEESE - JIBINI,,,,,,,,,,,,,,,,,,,,,,,,,,,,,,,,,,,,,,,,,,,,,,,,,,,,,,,,,,,,,,,,,,,,,,,,,,,,,,,,
,,,,,,,,,,W1590780,2020-10-29_23h44.23.822,swahili,2020.2.4,MacIntel,60,,,,,,,,,,-0.156291211,-0.151248594,1,0,0,0.448485,unsorted_card,14,0,14,0,1,,,,,,,,,,,,,,,,,,,,,,,,,,,,,,,,,,,,,,,,,,,,,,,,,,,,,,,,,,,,,,,,,,,,,,,,,,,,,,,,,
,,,,,,,,,,W1590780,2020-10-29_23h44.23.822,swahili,2020.2.4,MacIntel,60,,,,,,,,,,0.412849708,0.013633808,1,0,0,1.0344,test_pile,15,0,15,0,1,GRAVE - KABURI,,,,,,,,,,,,,,,,,,,,,,,,,,,,,,,,,,,,,,,,,,,,,,,,,,,,,,,,,,,,,,,,,,,,,,,,,,,,,,,,
,,,,,,,,,,W1590780,2020-10-29_23h44.23.822,swahili,2020.2.4,MacIntel,60,,,,,,,,,,-0.344179776,0.114376406,1,0,0,0.518015,unsorted_card,16,0,16,0,1,,,,,,,,,,,,,,,,,,,,,,,,,,,,,,,,,,,,,,,,,,,,,,,,,,,,,,,,,,,,,,,,,,,,,,,,,,,,,,,,,
,,,,,,,,,,W1590780,2020-10-29_23h44.23.822,swahili,2020.2.4,MacIntel,60,,,,,,,,,,0.575193105,-0.049873501,1,0,0,1.602445,test_pile,17,0,17,0,1,MANURE - SAMADI,,,,,,,,,,,,,,,,,,,,,,,,,,,,,,,,,,,,,,,,,,,,,,,,,,,,,,,,,,,,,,,,,,,,,,,,,,,,,,,,
,,,,,,,,,,W1590780,2020-10-29_23h44.23.822,swahili,2020.2.4,MacIntel,60,,,,,,,,,,-0.203225085,-0.212647582,1,0,0,0.85219,unsorted_card,18,0,18,0,1,,,,,,,,,,,,,,,,,,,,,,,,,,,,,,,,,,,,,,,,,,,,,,,,,,,,,,,,,,,,,,,,,,,,,,,,,,,,,,,,,
,,,,,,,,,,W1590780,2020-10-29_23h44.23.822,swahili,2020.2.4,MacIntel,60,,,,,,,,,,0.46775504,0.135529891,1,0,0,2.435645,test_pile,19,0,19,0,1,DIVORCE - TALAKA,,,,,,,,,,,,,,,,,,,,,,,,,,,,,,,,,,,,,,,,,,,,,,,,,,,,,,,,,,,,,,,,,,,,,,,,,,,,,,,,
,,,,,,,,,,W1590780,2020-10-29_23h44.23.822,swahili,2020.2.4,MacIntel,60,,,,,,,,,,,,,,,,,,,,,,,,,,,,,,,,,,0,0,0,0,1,,,,,,,,,,,,,,,,,,,,,,,,,,,,,,,,,,,,,,,,,,,,,,,,,,,,,,,,,,,,,,,,
,,,,,,,,,,W1590780,2020-10-29_23h44.23.822,swahili,2020.2.4,MacIntel,60,,,,,,,,,,,,,,,,,,,,,,,,,,,,,,,,,,,,,,,return,,,,,,3.38269,4.993665,0.333405944,-0.189034389,1,0,0,0.56755,yes,PLATE,KAHINI,incorrect,0,0,0,0,1,,,,,,,,,,,,,,,,,,,,,,,,,,,,,,,,,,,,,,,,,
,,,,,,,,,,W1590780,2020-10-29_23h44.23.822,swahili,2020.2.4,MacIntel,60,,,,,,,,,,,,,,,,,,,,,,,,,,,,,,,,,,,,,,,,,,,,,,7.653795,0.496290976,-0.021200337,1,0,0,0.53322,yes,BLAME,LAWAMA,incorrect,1,0,1,0,1,,,,,,,,,,,,,,,,,,,,,,,,,,,,,,,,,,,,,,,,,
,,,,,,,,,,W1590780,2020-10-29_23h44.23.822,swahili,2020.2.4,MacIntel,60,,,,,,,,,,,,,,,,,,,,,,,,,,,,,,,,,,,,,,,,,,,,,,2.906495,0.461149444,-0.109726387,1,0,0,0.551325,yes,BULL,FAHILI,incorrect,2,0,2,0,1,,,,,,,,,,,,,,,,,,,,,,,,,,,,,,,,,,,,,,,,,
,,,,,,,,,,W1590780,2020-10-29_23h44.23.822,swahili,2020.2.4,MacIntel,60,,,,,,,,,,,,,,,,,,,,,,,,,,,,,,,,,,,,,,,,,,,,,,8.08493,0.316267898,-0.173854479,1,0,0,0.56816,yes,GRAVE,KUBURI,incorrect,3,0,3,0,1,,,,,,,,,,,,,,,,,,,,,,,,,,,,,,,,,,,,,,,,,
,,,,,,,,,,W1590780,2020-10-29_23h44.23.822,swahili,2020.2.4,MacIntel,60,,,,,,,,,,,,,,,,,,,,,,,,,,,,,,,,,,,,,,,,,,,,,,5.262015,0.397136398,-0.182767991,1,0,0,0.55112,yes,MANURE,SAHILI,incorrect,4,0,4,0,1,,,,,,,,,,,,,,,,,,,,,,,,,,,,,,,,,,,,,,,,,
,,,,,,,,,,W1590780,2020-10-29_23h44.23.822,swahili,2020.2.4,MacIntel,60,,,,,,,,,,,,,,,,,,,,,,,,,,,,,,,,,,,,,,,,,,,,,,8.303315,0.476886304,-0.027935251,1,0,0,0.584675,yes,MERCHANT,TSHORI,incorrect,5,0,5,0,1,,,,,,,,,,,,,,,,,,,,,,,,,,,,,,,,,,,,,,,,,
,,,,,,,,,,W1590780,2020-10-29_23h44.23.822,swahili,2020.2.4,MacIntel,60,,,,,,,,,,,,,,,,,,,,,,,,,,,,,,,,,,,,,,,,,,,,,,15.0867,0.374546675,-0.172261525,1,0,0,0.935795,yes,PARROT,KAKATSU,incorrect,6,0,6,0,1,,,,,,,,,,,,,,,,,,,,,,,,,,,,,,,,,,,,,,,,,
,,,,,,,,,,W1590780,2020-10-29_23h44.23.822,swahili,2020.2.4,MacIntel,60,,,,,,,,,,,,,,,,,,,,,,,,,,,,,,,,,,,,,,,,,,,,,,7.73485,0.522383666,-0.009885682,1,0,0,0.533865,yes,DIVORCE,TAKALI,incorrect,7,0,7,0,1,,,,,,,,,,,,,,,,,,,,,,,,,,,,,,,,,,,,,,,,,
,,,,,,,,,,W1590780,2020-10-29_23h44.23.822,swahili,2020.2.4,MacIntel,60,,,,,,,,,,,,,,,,,,,,,,,,,,,,,,,,,,,,,,,,0,0,0,0,1,,,,,,,,,,,,,,,,,,,,,,,,,,,,,,,,,,,,,,,,,,,,,,,,,,,,,,,,,,
,,,,,,,,,,W1590780,2020-10-29_23h44.23.822,swahili,2020.2.4,MacIntel,60,,,,,,,,,,,,,,,,,,,,,,,,,,,,,,,,,,,,,,,,1,0,1,0,1,,,,,,,,,,,,,,,,,,,,,,,,,,,,,,,,,,,,,,,,,,,,,,,,,,,,,,,,,,
,,,,,,,,,,W1590780,2020-10-29_23h44.23.822,swahili,2020.2.4,MacIntel,60,,,,,,,,,,,,,,,,,,,,,,,,,,,,,,,,,,,,,,,,,,,,,,,,,,,,,,,,,,,,,,4,0,4,0,1,,,,,,,,,,,,,,,,,,,,,,,,,,,,,,,,,,,,
,,,,,,,,,,W1590780,2020-10-29_23h44.23.822,swahili,2020.2.4,MacIntel,60,,,,,,,,,,-0.335066174,0.039613006,1,0,0,1.390865,unsorted_card,0,0,0,0,1,,,,,,,,,,,,,,,,,,,,,,,,,,,,,,,,,,,,,,,,,,,,,,,,,,,,,,,,,,,,,,,,,,,,,,,,,,,,,,,,,
,,,,,,,,,,W1590780,2020-10-29_23h44.23.822,swahili,2020.2.4,MacIntel,60,,,,,,,,,,0.530802562,-0.01748735,1,0,0,1.552335,test_pile,1,0,1,0,1,MERCHANT - TAJIRI,,,,,,,,,,,,,,,,,,,,,,,,,,,,,,,,,,,,,,,,,,,,,,,,,,,,,,,,,,,,,,,,,,,,,,,,,,,,,,,,
,,,,,,,,,,W1590780,2020-10-29_23h44.23.822,swahili,2020.2.4,MacIntel,60,,,,,,,,,,-0.321866758,0.021282328,1,0,0,0.499255,unsorted_card,2,0,2,0,1,,,,,,,,,,,,,,,,,,,,,,,,,,,,,,,,,,,,,,,,,,,,,,,,,,,,,,,,,,,,,,,,,,,,,,,,,,,,,,,,,
,,,,,,,,,,W1590780,2020-10-29_23h44.23.822,swahili,2020.2.4,MacIntel,60,,,,,,,,,,0.506947061,-0.007636807,1,0,0,1.65169,test_pile,3,0,3,0,1,PARROT - KASUKU,,,,,,,,,,,,,,,,,,,,,,,,,,,,,,,,,,,,,,,,,,,,,,,,,,,,,,,,,,,,,,,,,,,,,,,,,,,,,,,,
,,,,,,,,,,W1590780,2020-10-29_23h44.23.822,swahili,2020.2.4,MacIntel,60,,,,,,,,,,-0.258489544,-0.008796383,1,0,0,0.53191,unsorted_card,4,0,4,0,1,,,,,,,,,,,,,,,,,,,,,,,,,,,,,,,,,,,,,,,,,,,,,,,,,,,,,,,,,,,,,,,,,,,,,,,,,,,,,,,,,
,,,,,,,,,,W1590780,2020-10-29_23h44.23.822,swahili,2020.2.4,MacIntel,60,,,,,,,,,,0.49364756,-0.557791417,1,0,0,1.53609,done_pile,5,0,5,0,1,BULL - FAHILI,,,,,,,,,,,,,,,,,,,,,,,,,,,,,,,,,,,,,,,,,,,,,,,,,,,,,,,,,,,,,,,,,,,,,,,,,,,,,,,,
,,,,,,,,,,W1590780,2020-10-29_23h44.23.822,swahili,2020.2.4,MacIntel,60,,,,,,,,,,-0.309226639,-0.166686188,1,0,0,1.150785,unsorted_card,6,0,6,0,1,,,,,,,,,,,,,,,,,,,,,,,,,,,,,,,,,,,,,,,,,,,,,,,,,,,,,,,,,,,,,,,,,,,,,,,,,,,,,,,,,
,,,,,,,,,,W1590780,2020-10-29_23h44.23.822,swahili,2020.2.4,MacIntel,60,,,,,,,,,,0.573644734,0.047074119,1,0,0,1.404525,test_pile,7,0,7,0,1,PLATE - SAHANI,,,,,,,,,,,,,,,,,,,,,,,,,,,,,,,,,,,,,,,,,,,,,,,,,,,,,,,,,,,,,,,,,,,,,,,,,,,,,,,,
,,,,,,,,,,W1590780,2020-10-29_23h44.23.822,swahili,2020.2.4,MacIntel,60,,,,,,,,,,-0.161442634,0.037129873,1,0,0,0.513975,unsorted_card,8,0,8,0,1,,,,,,,,,,,,,,,,,,,,,,,,,,,,,,,,,,,,,,,,,,,,,,,,,,,,,,,,,,,,,,,,,,,,,,,,,,,,,,,,,
,,,,,,,,,,W1590780,2020-10-29_23h44.23.822,swahili,2020.2.4,MacIntel,60,,,,,,,,,,0.440367135,-0.06808705,1,0,0,1.554155,test_pile,9,0,9,0,1,BLAME - LAWAMA,,,,,,,,,,,,,,,,,,,,,,,,,,,,,,,,,,,,,,,,,,,,,,,,,,,,,,,,,,,,,,,,,,,,,,,,,,,,,,,,
,,,,,,,,,,W1590780,2020-10-29_23h44.23.822,swahili,2020.2.4,MacIntel,60,,,,,,,,,,-0.41158393,-0.019537106,1,0,0,0.480705,unsorted_card,10,0,10,0,1,,,,,,,,,,,,,,,,,,,,,,,,,,,,,,,,,,,,,,,,,,,,,,,,,,,,,,,,,,,,,,,,,,,,,,,,,,,,,,,,,
,,,,,,,,,,W1590780,2020-10-29_23h44.23.822,swahili,2020.2.4,MacIntel,60,,,,,,,,,,0.487295121,-0.019314561,1,0,0,1.70587,test_pile,11,0,11,0,1,GRAVE - KABURI,,,,,,,,,,,,,,,,,,,,,,,,,,,,,,,,,,,,,,,,,,,,,,,,,,,,,,,,,,,,,,,,,,,,,,,,,,,,,,,,
,,,,,,,,,,W1590780,2020-10-29_23h44.23.822,swahili,2020.2.4,MacIntel,60,,,,,,,,,,-0.243724096,0.093890555,1,0,0,0.447545,unsorted_card,12,0,12,0,1,,,,,,,,,,,,,,,,,,,,,,,,,,,,,,,,,,,,,,,,,,,,,,,,,,,,,,,,,,,,,,,,,,,,,,,,,,,,,,,,,
,,,,,,,,,,W1590780,2020-10-29_23h44.23.822,swahili,2020.2.4,MacIntel,60,,,,,,,,,,0.504109363,0.004310345,1,0,0,1.57136,test_pile,13,0,13,0,1,MANURE - SAMADI,,,,,,,,,,,,,,,,,,,,,,,,,,,,,,,,,,,,,,,,,,,,,,,,,,,,,,,,,,,,,,,,,,,,,,,,,,,,,,,,
,,,,,,,,,,W1590780,2020-10-29_23h44.23.822,swahili,2020.2.4,MacIntel,60,,,,,,,,,,-0.189024821,0.060918759,1,0,0,0.47974,unsorted_card,14,0,14,0,1,,,,,,,,,,,,,,,,,,,,,,,,,,,,,,,,,,,,,,,,,,,,,,,,,,,,,,,,,,,,,,,,,,,,,,,,,,,,,,,,,
,,,,,,,,,,W1590780,2020-10-29_23h44.23.822,swahili,2020.2.4,MacIntel,60,,,,,,,,,,0.541923747,0.046148801,1,0,0,1.870635,test_pile,15,0,15,0,1,DIVORCE - TALAKA,,,,,,,,,,,,,,,,,,,,,,,,,,,,,,,,,,,,,,,,,,,,,,,,,,,,,,,,,,,,,,,,,,,,,,,,,,,,,,,,
,,,,,,,,,,W1590780,2020-10-29_23h44.23.822,swahili,2020.2.4,MacIntel,60,,,,,,,,,,,,,,,,,,,,,,,,,,,,,,,,,,0,0,0,0,1,,,,,,,,,,,,,,,,,,,,,,,,,,,,,,,,,,,,,,,,,,,,,,,,,,,,,,,,,,,,,,,,
,,,,,,,,,,W1590780,2020-10-29_23h44.23.822,swahili,2020.2.4,MacIntel,60,,,,,,,,,,,,,,,,,,,,,,,,,,,,,,,,,,,,,,,return,,,,,,1.267415,4.49273,0.596587698,0.057779704,1,0,0,0.602495,yes,MANURE,SAMADI,incorrect,0,0,0,0,1,,,,,,,,,,,,,,,,,,,,,,,,,,,,,,,,,,,,,,,,,
,,,,,,,,,,W1590780,2020-10-29_23h44.23.822,swahili,2020.2.4,MacIntel,60,,,,,,,,,,,,,,,,,,,,,,,,,,,,,,,,,,,,,,,,,,,,,,2.645685,0.45752873,0.018342391,1,0,0,0.68522,yes,DIVORCE,TAKALA,incorrect,1,0,1,0,1,,,,,,,,,,,,,,,,,,,,,,,,,,,,,,,,,,,,,,,,,
,,,,,,,,,,W1590780,2020-10-29_23h44.23.822,swahili,2020.2.4,MacIntel,60,,,,,,,,,,,,,,,,,,,,,,,,,,,,,,,,,,,,,,,,,,,,,,3.172065,0.35497127,-0.101984164,1,0,0,0.534985,yes,PLATE,SAHINI,incorrect,2,0,2,0,1,,,,,,,,,,,,,,,,,,,,,,,,,,,,,,,,,,,,,,,,,
,,,,,,,,,,W1590780,2020-10-29_23h44.23.822,swahili,2020.2.4,MacIntel,60,,,,,,,,,,,,,,,,,,,,,,,,,,,,,,,,,,,,,,,,,,,,,,4.777105,0.44796769,-0.148367223,1,0,0,0.637625,yes,PARROT,KASUKU,incorrect,3,0,3,0,1,,,,,,,,,,,,,,,,,,,,,,,,,,,,,,,,,,,,,,,,,
,,,,,,,,,,W1590780,2020-10-29_23h44.23.822,swahili,2020.2.4,MacIntel,60,,,,,,,,,,,,,,,,,,,,,,,,,,,,,,,,,,,,,,,,,,,,,,8.800225,0.400439196,-0.180706522,1,0,0,0.56906,yes,GRAVE,SWAHINI,incorrect,4,0,4,0,1,,,,,,,,,,,,,,,,,,,,,,,,,,,,,,,,,,,,,,,,,
,,,,,,,,,,W1590780,2020-10-29_23h44.23.822,swahili,2020.2.4,MacIntel,60,,,,,,,,,,,,,,,,,,,,,,,,,,,,,,,,,,,,,,,,,,,,,,3.20445,0.386444989,-0.111846421,1,0,0,0.536525,yes,BLAME,LAWAMA,incorrect,5,0,5,0,1,,,,,,,,,,,,,,,,,,,,,,,,,,,,,,,,,,,,,,,,,
,,,,,,,,,,W1590780,2020-10-29_23h44.23.822,swahili,2020.2.4,MacIntel,60,,,,,,,,,,,,,,,,,,,,,,,,,,,,,,,,,,,,,,,,,,,,,,5.177085,0.398826064,-0.127155172,1,0,0,0.61876,yes,MERCHANT,TAJIRI,incorrect,6,0,6,0,1,,,,,,,,,,,,,,,,,,,,,,,,,,,,,,,,,,,,,,,,,
,,,,,,,,,,W1590780,2020-10-29_23h44.23.822,swahili,2020.2.4,MacIntel,60,,,,,,,,,,,,,,,,,,,,,,,,,,,,,,,,,,,,,,,,0,0,0,0,1,,,,,,,,,,,,,,,,,,,,,,,,,,,,,,,,,,,,,,,,,,,,,,,,,,,,,,,,,,
,,,,,,,,,,W1590780,2020-10-29_23h44.23.822,swahili,2020.2.4,MacIntel,60,,,,,,,,,,,,,,,,,,,,,,,,,,,,,,,,,,,,,,,,1,0,1,0,1,,,,,,,,,,,,,,,,,,,,,,,,,,,,,,,,,,,,,,,,,,,,,,,,,,,,,,,,,,
,,,,,,,,,,W1590780,2020-10-29_23h44.23.822,swahili,2020.2.4,MacIntel,60,,,,,,,,,,,,,,,,,,,,,,,,,,,,,,,,,,,,,,,,,,,,,,,,,,,,,,,,,,,,,,5,0,5,0,1,,,,,,,,,,,,,,,,,,,,,,,,,,,,,,,,,,,,
,,,,,,,,,,W1590780,2020-10-29_23h44.23.822,swahili,2020.2.4,MacIntel,60,,,,,,,,,,-0.168018792,-0.063413606,1,0,0,1.96406,unsorted_card,0,0,0,0,1,,,,,,,,,,,,,,,,,,,,,,,,,,,,,,,,,,,,,,,,,,,,,,,,,,,,,,,,,,,,,,,,,,,,,,,,,,,,,,,,,
,,,,,,,,,,W1590780,2020-10-29_23h44.23.822,swahili,2020.2.4,MacIntel,60,,,,,,,,,,0.532580539,-0.473142335,1,0,0,1.300015,done_pile,1,0,1,0,1,MERCHANT - TAJIRI,,,,,,,,,,,,,,,,,,,,,,,,,,,,,,,,,,,,,,,,,,,,,,,,,,,,,,,,,,,,,,,,,,,,,,,,,,,,,,,,
,,,,,,,,,,W1590780,2020-10-29_23h44.23.822,swahili,2020.2.4,MacIntel,60,,,,,,,,,,-0.098648267,-0.169825244,1,0,0,0.51545,unsorted_card,2,0,2,0,1,,,,,,,,,,,,,,,,,,,,,,,,,,,,,,,,,,,,,,,,,,,,,,,,,,,,,,,,,,,,,,,,,,,,,,,,,,,,,,,,,
,,,,,,,,,,W1590780,2020-10-29_23h44.23.822,swahili,2020.2.4,MacIntel,60,,,,,,,,,,0.460772654,-0.431620127,1,0,0,3.172235,done_pile,3,0,3,0,1,PARROT - KASUKU,,,,,,,,,,,,,,,,,,,,,,,,,,,,,,,,,,,,,,,,,,,,,,,,,,,,,,,,,,,,,,,,,,,,,,,,,,,,,,,,
,,,,,,,,,,W1590780,2020-10-29_23h44.23.822,swahili,2020.2.4,MacIntel,60,,,,,,,,,,-0.228275716,-0.145837238,1,0,0,0.536105,unsorted_card,4,0,4,0,1,,,,,,,,,,,,,,,,,,,,,,,,,,,,,,,,,,,,,,,,,,,,,,,,,,,,,,,,,,,,,,,,,,,,,,,,,,,,,,,,,
,,,,,,,,,,W1590780,2020-10-29_23h44.23.822,swahili,2020.2.4,MacIntel,60,,,,,,,,,,0.477539798,0.005786169,1,0,0,1.132245,test_pile,5,0,5,0,1,PLATE - SAHANI,,,,,,,,,,,,,,,,,,,,,,,,,,,,,,,,,,,,,,,,,,,,,,,,,,,,,,,,,,,,,,,,,,,,,,,,,,,,,,,,
,,,,,,,,,,W1590780,2020-10-29_23h44.23.822,swahili,2020.2.4,MacIntel,60,,,,,,,,,,-0.279778165,0.008386432,1,0,0,0.43203,unsorted_card,6,0,6,0,1,,,,,,,,,,,,,,,,,,,,,,,,,,,,,,,,,,,,,,,,,,,,,,,,,,,,,,,,,,,,,,,,,,,,,,,,,,,,,,,,,
,,,,,,,,,,W1590780,2020-10-29_23h44.23.822,swahili,2020.2.4,MacIntel,60,,,,,,,,,,0.394133855,-0.06719687,1,0,0,1.234835,test_pile,7,0,7,0,1,BLAME - LAWAMA,,,,,,,,,,,,,,,,,,,,,,,,,,,,,,,,,,,,,,,,,,,,,,,,,,,,,,,,,,,,,,,,,,,,,,,,,,,,,,,,
,,,,,,,,,,W1590780,2020-10-29_23h44.23.822,swahili,2020.2.4,MacIntel,60,,,,,,,,,,-0.362442304,-0.06719687,1,0,0,0.300565,unsorted_card,8,0,8,0,1,,,,,,,,,,,,,,,,,,,,,,,,,,,,,,,,,,,,,,,,,,,,,,,,,,,,,,,,,,,,,,,,,,,,,,,,,,,,,,,,,
,,,,,,,,,,W1590780,2020-10-29_23h44.23.822,swahili,2020.2.4,MacIntel,60,,,,,,,,,,0.429981867,-0.098528861,1,0,0,2.07011,test_pile,9,0,9,0,1,GRAVE - KABURI,,,,,,,,,,,,,,,,,,,,,,,,,,,,,,,,,,,,,,,,,,,,,,,,,,,,,,,,,,,,,,,,,,,,,,,,,,,,,,,,
,,,,,,,,,,W1590780,2020-10-29_23h44.23.822,swahili,2020.2.4,MacIntel,60,,,,,,,,,,-0.339204974,-0.092930097,1,0,0,0.514645,unsorted_card,10,0,10,0,1,,,,,,,,,,,,,,,,,,,,,,,,,,,,,,,,,,,,,,,,,,,,,,,,,,,,,,,,,,,,,,,,,,,,,,,,,,,,,,,,,
,,,,,,,,,,W1590780,2020-10-29_23h44.23.822,swahili,2020.2.4,MacIntel,60,,,,,,,,,,0.470834118,0.011162388,1,0,0,1.470815,test_pile,11,0,11,0,1,MANURE - SAMADI,,,,,,,,,,,,,,,,,,,,,,,,,,,,,,,,,,,,,,,,,,,,,,,,,,,,,,,,,,,,,,,,,,,,,,,,,,,,,,,,
,,,,,,,,,,W1590780,2020-10-29_23h44.23.822,swahili,2020.2.4,MacIntel,60,,,,,,,,,,-0.338739874,0.011162388,1,0,0,0.411935,unsorted_card,12,0,12,0,1,,,,,,,,,,,,,,,,,,,,,,,,,,,,,,,,,,,,,,,,,,,,,,,,,,,,,,,,,,,,,,,,,,,,,,,,,,,,,,,,,
,,,,,,,,,,W1590780,2020-10-29_23h44.23.822,swahili,2020.2.4,MacIntel,60,,,,,,,,,,0.42388847,-0.112900581,1,0,0,1.25024,test_pile,13,0,13,0,1,DIVORCE - TALAKA,,,,,,,,,,,,,,,,,,,,,,,,,,,,,,,,,,,,,,,,,,,,,,,,,,,,,,,,,,,,,,,,,,,,,,,,,,,,,,,,
,,,,,,,,,,W1590780,2020-10-29_23h44.23.822,swahili,2020.2.4,MacIntel,60,,,,,,,,,,,,,,,,,,,,,,,,,,,,,,,,,,0,0,0,0,1,,,,,,,,,,,,,,,,,,,,,,,,,,,,,,,,,,,,,,,,,,,,,,,,,,,,,,,,,,,,,,,,
,,,,,,,,,,W1590780,2020-10-29_23h44.23.822,swahili,2020.2.4,MacIntel,60,,,,,,,,,,,,,,,,,,,,,,,,,,,,,,,,,,,,,,,return,,,,,,1.041075,6.93362,0.456463122,-0.166381653,1,0,0,0.869985,yes,GRAVE,KABURI,incorrect,0,0,0,0,1,,,,,,,,,,,,,,,,,,,,,,,,,,,,,,,,,,,,,,,,,
,,,,,,,,,,W1590780,2020-10-29_23h44.23.822,swahili,2020.2.4,MacIntel,60,,,,,,,,,,,,,,,,,,,,,,,,,,,,,,,,,,,,,,,,,,,,,,3.18868,0.5983539,0.004685157,1,0,0,1.34313,yes,BLAME,LAWAMA,incorrect,1,0,1,0,1,,,,,,,,,,,,,,,,,,,,,,,,,,,,,,,,,,,,,,,,,
,,,,,,,,,,W1590780,2020-10-29_23h44.23.822,swahili,2020.2.4,MacIntel,60,,,,,,,,,,,,,,,,,,,,,,,,,,,,,,,,,,,,,,,,,,,,,,4.025265,0.378767898,-0.125644209,1,0,0,0.63388,yes,MANURE,SWAHILI,incorrect,2,0,2,0,1,,,,,,,,,,,,,,,,,,,,,,,,,,,,,,,,,,,,,,,,,
,,,,,,,,,,W1590780,2020-10-29_23h44.23.822,swahili,2020.2.4,MacIntel,60,,,,,,,,,,,,,,,,,,,,,,,,,,,,,,,,,,,,,,,,,,,,,,3.65715,0.426090335,0.0621369,1,0,0,0.584085,yes,DIVORCE,TAKALA,incorrect,3,0,3,0,1,,,,,,,,,,,,,,,,,,,,,,,,,,,,,,,,,,,,,,,,,
,,,,,,,,,,W1590780,2020-10-29_23h44.23.822,swahili,2020.2.4,MacIntel,60,,,,,,,,,,,,,,,,,,,,,,,,,,,,,,,,,,,,,,,,,,,,,,8.05157,0.462532969,0.116519865,1,0,0,0.703395,yes,PLATE,SAHILI,incorrect,4,0,4,0,1,,,,,,,,,,,,,,,,,,,,,,,,,,,,,,,,,,,,,,,,,
,,,,,,,,,,W1590780,2020-10-29_23h44.23.822,swahili,2020.2.4,MacIntel,60,,,,,,,,,,,,,,,,,,,,,,,,,,,,,,,,,,,,,,,,0,0,0,0,1,,,,,,,,,,,,,,,,,,,,,,,,,,,,,,,,,,,,,,,,,,,,,,,,,,,,,,,,,,
,,,,,,,,,,W1590780,2020-10-29_23h44.23.822,swahili,2020.2.4,MacIntel,60,,,,,,,,,,,,,,,,,,,,,,,,,,,,,,,,,,,,,,,,1,0,1,0,1,,,,,,,,,,,,,,,,,,,,,,,,,,,,,,,,,,,,,,,,,,,,,,,,,,,,,,,,,,
,,,,,,,,,,W1590780,2020-10-29_23h44.23.822,swahili,2020.2.4,MacIntel,60,,,,,,,,,,,,,,,,,,,,,,,,,,,,,,,,,,,,,,,,,,,,,,,,,,,,,,,,,,,,,,6,0,6,0,1,,,,,,,,,,,,,,,,,,,,,,,,,,,,,,,,,,,,
,,,,,,,,,,W1590780,2020-10-29_23h44.23.822,swahili,2020.2.4,MacIntel,60,,,,,,,,,,-0.248486954,0.00380669,1,0,0,1.27347,unsorted_card,0,0,0,0,1,,,,,,,,,,,,,,,,,,,,,,,,,,,,,,,,,,,,,,,,,,,,,,,,,,,,,,,,,,,,,,,,,,,,,,,,,,,,,,,,,
,,,,,,,,,,W1590780,2020-10-29_23h44.23.822,swahili,2020.2.4,MacIntel,60,,,,,,,,,,0.489208506,0.018623501,1,0,0,1.419775,test_pile,1,0,1,0,1,PLATE - SAHANI,,,,,,,,,,,,,,,,,,,,,,,,,,,,,,,,,,,,,,,,,,,,,,,,,,,,,,,,,,,,,,,,,,,,,,,,,,,,,,,,
,,,,,,,,,,W1590780,2020-10-29_23h44.23.822,swahili,2020.2.4,MacIntel,60,,,,,,,,,,-0.291087745,-0.01457084,1,0,0,0.38219,unsorted_card,2,0,2,0,1,,,,,,,,,,,,,,,,,,,,,,,,,,,,,,,,,,,,,,,,,,,,,,,,,,,,,,,,,,,,,,,,,,,,,,,,,,,,,,,,,
,,,,,,,,,,W1590780,2020-10-29_23h44.23.822,swahili,2020.2.4,MacIntel,60,,,,,,,,,,0.415758054,-0.573404704,1,0,0,1.68489,done_pile,3,0,3,0,1,BLAME - LAWAMA,,,,,,,,,,,,,,,,,,,,,,,,,,,,,,,,,,,,,,,,,,,,,,,,,,,,,,,,,,,,,,,,,,,,,,,,,,,,,,,,
,,,,,,,,,,W1590780,2020-10-29_23h44.23.822,swahili,2020.2.4,MacIntel,60,,,,,,,,,,-0.608462462,0.035560345,1,0,0,0.648045,unsorted_card,4,0,4,0,1,,,,,,,,,,,,,,,,,,,,,,,,,,,,,,,,,,,,,,,,,,,,,,,,,,,,,,,,,,,,,,,,,,,,,,,,,,,,,,,,,
,,,,,,,,,,W1590780,2020-10-29_23h44.23.822,swahili,2020.2.4,MacIntel,60,,,,,,,,,,0.530596505,-0.048397676,1,0,0,1.265315,test_pile,5,0,5,0,1,GRAVE - KABURI,,,,,,,,,,,,,,,,,,,,,,,,,,,,,,,,,,,,,,,,,,,,,,,,,,,,,,,,,,,,,,,,,,,,,,,,,,,,,,,,
,,,,,,,,,,W1590780,2020-10-29_23h44.23.822,swahili,2020.2.4,MacIntel,60,,,,,,,,,,-0.189584118,-0.027736132,1,0,0,0.41508,unsorted_card,6,0,6,0,1,,,,,,,,,,,,,,,,,,,,,,,,,,,,,,,,,,,,,,,,,,,,,,,,,,,,,,,,,,,,,,,,,,,,,,,,,,,,,,,,,
,,,,,,,,,,W1590780,2020-10-29_23h44.23.822,swahili,2020.2.4,MacIntel,60,,,,,,,,,,0.554681613,0.064022676,1,0,0,1.335,test_pile,7,0,7,0,1,MANURE - SAMADI,,,,,,,,,,,,,,,,,,,,,,,,,,,,,,,,,,,,,,,,,,,,,,,,,,,,,,,,,,,,,,,,,,,,,,,,,,,,,,,,
,,,,,,,,,,W1590780,2020-10-29_23h44.23.822,swahili,2020.2.4,MacIntel,60,,,,,,,,,,-0.2353052,0.017979292,1,0,0,0.44821,unsorted_card,8,0,8,0,1,,,,,,,,,,,,,,,,,,,,,,,,,,,,,,,,,,,,,,,,,,,,,,,,,,,,,,,,,,,,,,,,,,,,,,,,,,,,,,,,,
,,,,,,,,,,W1590780,2020-10-29_23h44.23.822,swahili,2020.2.4,MacIntel,60,,,,,,,,,,0.491269075,-0.487701462,1,0,0,0.950235,done_pile,9,0,9,0,1,DIVORCE - TALAKA,,,,,,,,,,,,,,,,,,,,,,,,,,,,,,,,,,,,,,,,,,,,,,,,,,,,,,,,,,,,,,,,,,,,,,,,,,,,,,,,
,,,,,,,,,,W1590780,2020-10-29_23h44.23.822,swahili,2020.2.4,MacIntel,60,,,,,,,,,,,,,,,,,,,,,,,,,,,,,,,,,,0,0,0,0,1,,,,,,,,,,,,,,,,,,,,,,,,,,,,,,,,,,,,,,,,,,,,,,,,,,,,,,,,,,,,,,,,
,,,,,,,,,,W1590780,2020-10-29_23h44.23.822,swahili,2020.2.4,MacIntel,60,,,,,,,,,,,,,,,,,,,,,,,,,,,,,,,,,,,,,,,return,,,,,,2.188765,4.60794,0.295520912,-0.167798913,1,0,0,0.78524,yes,MANURE,KABURI,incorrect,0,0,0,0,1,,,,,,,,,,,,,,,,,,,,,,,,,,,,,,,,,,,,,,,,,
,,,,,,,,,,W1590780,2020-10-29_23h44.23.822,swahili,2020.2.4,MacIntel,60,,,,,,,,,,,,,,,,,,,,,,,,,,,,,,,,,,,,,,,,,,,,,,3.02036,0.419349331,-0.132156578,1,0,0,0.633775,yes,PLATE,KABURI,incorrect,1,0,1,0,1,,,,,,,,,,,,,,,,,,,,,,,,,,,,,,,,,,,,,,,,,
,,,,,,,,,,W1590780,2020-10-29_23h44.23.822,swahili,2020.2.4,MacIntel,60,,,,,,,,,,,,,,,,,,,,,,,,,,,,,,,,,,,,,,,,,,,,,,3.22448,0.517797428,-0.081346046,1,0,0,0.532755,yes,GRAVE,KABURI,incorrect,2,0,2,0,1,,,,,,,,,,,,,,,,,,,,,,,,,,,,,,,,,,,,,,,,,
,,,,,,,,,,W1590780,2020-10-29_23h44.23.822,swahili,2020.2.4,MacIntel,60,,,,,,,,,,,,,,,,,,,,,,,,,,,,,,,,,,,,,,,,0,0,0,0,1,,,,,,,,,,,,,,,,,,,,,,,,,,,,,,,,,,,,,,,,,,,,,,,,,,,,,,,,,,
,,,,,,,,,,W1590780,2020-10-29_23h44.23.822,swahili,2020.2.4,MacIntel,60,,,,,,,,,,,,,,,,,,,,,,,,,,,,,,,,,,,,,,,,1,0,1,0,1,,,,,,,,,,,,,,,,,,,,,,,,,,,,,,,,,,,,,,,,,,,,,,,,,,,,,,,,,,
,,,,,,,,,,W1590780,2020-10-29_23h44.23.822,swahili,2020.2.4,MacIntel,60,,,,,,,,,,,,,,,,,,,,,,,,,,,,,,,,,,,,,,,,,,,,,,,,,,,,,,,,,,,,,,7,0,7,0,1,,,,,,,,,,,,,,,,,,,,,,,,,,,,,,,,,,,,
,,,,,,,,,,W1590780,2020-10-29_23h44.23.822,swahili,2020.2.4,MacIntel,60,,,,,,,,,,-0.236859457,-0.054394678,1,0,0,1.12238,unsorted_card,0,0,0,0,1,,,,,,,,,,,,,,,,,,,,,,,,,,,,,,,,,,,,,,,,,,,,,,,,,,,,,,,,,,,,,,,,,,,,,,,,,,,,,,,,,
,,,,,,,,,,W1590780,2020-10-29_23h44.23.822,swahili,2020.2.4,MacIntel,60,,,,,,,,,,0.466972023,-0.002518272,1,0,0,1.888645,test_pile,1,0,1,0,1,PLATE - SAHANI,,,,,,,,,,,,,,,,,,,,,,,,,,,,,,,,,,,,,,,,,,,,,,,,,,,,,,,,,,,,,,,,,,,,,,,,,,,,,,,,
,,,,,,,,,,W1590780,2020-10-29_23h44.23.822,swahili,2020.2.4,MacIntel,60,,,,,,,,,,-0.355507018,0.004767148,1,0,0,0.415455,unsorted_card,2,0,2,0,1,,,,,,,,,,,,,,,,,,,,,,,,,,,,,,,,,,,,,,,,,,,,,,,,,,,,,,,,,,,,,,,,,,,,,,,,,,,,,,,,,
,,,,,,,,,,W1590780,2020-10-29_23h44.23.822,swahili,2020.2.4,MacIntel,60,,,,,,,,,,0.41120714,0.002623688,1,0,0,1.45048,test_pile,3,0,3,0,1,GRAVE - KABURI,,,,,,,,,,,,,,,,,,,,,,,,,,,,,,,,,,,,,,,,,,,,,,,,,,,,,,,,,,,,,,,,,,,,,,,,,,,,,,,,
,,,,,,,,,,W1590780,2020-10-29_23h44.23.822,swahili,2020.2.4,MacIntel,60,,,,,,,,,,-0.476356443,-0.00922976,1,0,0,0.39381,unsorted_card,4,0,4,0,1,,,,,,,,,,,,,,,,,,,,,,,,,,,,,,,,,,,,,,,,,,,,,,,,,,,,,,,,,,,,,,,,,,,,,,,,,,,,,,,,,
,,,,,,,,,,W1590780,2020-10-29_23h44.23.822,swahili,2020.2.4,MacIntel,60,,,,,,,,,,0.52693458,-0.033826837,1,0,0,0.95189,test_pile,5,0,5,0,1,MANURE - SAMADI,,,,,,,,,,,,,,,,,,,,,,,,,,,,,,,,,,,,,,,,,,,,,,,,,,,,,,,,,,,,,,,,,,,,,,,,,,,,,,,,
,,,,,,,,,,W1590780,2020-10-29_23h44.23.822,swahili,2020.2.4,MacIntel,60,,,,,,,,,,,,,,,,,,,,,,,,,,,,,,,,,,0,0,0,0,1,,,,,,,,,,,,,,,,,,,,,,,,,,,,,,,,,,,,,,,,,,,,,,,,,,,,,,,,,,,,,,,,
,,,,,,,,,,W1590780,2020-10-29_23h44.23.822,swahili,2020.2.4,MacIntel,60,,,,,,,,,,,,,,,,,,,,,,,,,,,,,,,,,,,,,,,return,,,,,,1.02052,6.600695,0.461679305,0.033662856,1,0,0,0.56524,yes,MANURE,SAHANI,incorrect,0,0,0,0,1,,,,,,,,,,,,,,,,,,,,,,,,,,,,,,,,,,,,,,,,,
,,,,,,,,,,W1590780,2020-10-29_23h44.23.822,swahili,2020.2.4,MacIntel,60,,,,,,,,,,,,,,,,,,,,,,,,,,,,,,,,,,,,,,,,,,,,,,2.87204,0.454314243,-0.003888681,1,0,0,0.769165,yes,GRAVE,KABURI,incorrect,1,0,1,0,1,,,,,,,,,,,,,,,,,,,,,,,,,,,,,,,,,,,,,,,,,
,,,,,,,,,,W1590780,2020-10-29_23h44.23.822,swahili,2020.2.4,MacIntel,60,,,,,,,,,,,,,,,,,,,,,,,,,,,,,,,,,,,,,,,,,,,,,,3.556305,0.560404107,0.049896927,1,0,0,0.53406,yes,PLATE,SAHADI,incorrect,2,0,2,0,1,,,,,,,,,,,,,,,,,,,,,,,,,,,,,,,,,,,,,,,,,
,,,,,,,,,,W1590780,2020-10-29_23h44.23.822,swahili,2020.2.4,MacIntel,60,,,,,,,,,,,,,,,,,,,,,,,,,,,,,,,,,,,,,,,,0,0,0,0,1,,,,,,,,,,,,,,,,,,,,,,,,,,,,,,,,,,,,,,,,,,,,,,,,,,,,,,,,,,
,,,,,,,,,,W1590780,2020-10-29_23h44.23.822,swahili,2020.2.4,MacIntel,60,,,,,,,,,,,,,,,,,,,,,,,,,,,,,,,,,,,,,,,,1,0,1,0,1,,,,,,,,,,,,,,,,,,,,,,,,,,,,,,,,,,,,,,,,,,,,,,,,,,,,,,,,,,
,,,,,,,,,,W1590780,2020-10-29_23h44.23.822,swahili,2020.2.4,MacIntel,60,,,,,,,,,,,,,,,,,,,,,,,,,,,,,,,,,,,,,,,,,,,,,,,,,,,,,,,,,,,,,,8,0,8,0,1,,,,,,,,,,,,,,,,,,,,,,,,,,,,,,,,,,,,
,,,,,,,,,,W1590780,2020-10-29_23h44.23.822,swahili,2020.2.4,MacIntel,60,,,,,,,,,,-0.064460484,0.030828336,1,0,0,0.99119,unsorted_card,0,0,0,0,1,,,,,,,,,,,,,,,,,,,,,,,,,,,,,,,,,,,,,,,,,,,,,,,,,,,,,,,,,,,,,,,,,,,,,,,,,,,,,,,,,
,,,,,,,,,,W1590780,2020-10-29_23h44.23.822,swahili,2020.2.4,MacIntel,60,,,,,,,,,,0.512528259,0.040350918,1,0,0,1.6195,test_pile,1,0,1,0,1,PLATE - SAHANI,,,,,,,,,,,,,,,,,,,,,,,,,,,,,,,,,,,,,,,,,,,,,,,,,,,,,,,,,,,,,,,,,,,,,,,,,,,,,,,,
,,,,,,,,,,W1590780,2020-10-29_23h44.23.822,swahili,2020.2.4,MacIntel,60,,,,,,,,,,-0.301425914,0.040350918,1,0,0,0.40027,unsorted_card,2,0,2,0,1,,,,,,,,,,,,,,,,,,,,,,,,,,,,,,,,,,,,,,,,,,,,,,,,,,,,,,,,,,,,,,,,,,,,,,,,,,,,,,,,,
,,,,,,,,,,W1590780,2020-10-29_23h44.23.822,swahili,2020.2.4,MacIntel,60,,,,,,,,,,0.503697249,-0.466735382,1,0,0,1.516785,done_pile,3,0,3,0,1,GRAVE - KABURI,,,,,,,,,,,,,,,,,,,,,,,,,,,,,,,,,,,,,,,,,,,,,,,,,,,,,,,,,,,,,,,,,,,,,,,,,,,,,,,,
,,,,,,,,,,W1590780,2020-10-29_23h44.23.822,swahili,2020.2.4,MacIntel,60,,,,,,,,,,-0.169302232,-0.200114786,1,0,0,0.534285,unsorted_card,4,0,4,0,1,,,,,,,,,,,,,,,,,,,,,,,,,,,,,,,,,,,,,,,,,,,,,,,,,,,,,,,,,,,,,,,,,,,,,,,,,,,,,,,,,
,,,,,,,,,,W1590780,2020-10-29_23h44.23.822,swahili,2020.2.4,MacIntel,60,,,,,,,,,,0.615998257,0.033334895,1,0,0,0.66868,test_pile,5,0,5,0,1,MANURE - SAMADI,,,,,,,,,,,,,,,,,,,,,,,,,,,,,,,,,,,,,,,,,,,,,,,,,,,,,,,,,,,,,,,,,,,,,,,,,,,,,,,,
,,,,,,,,,,W1590780,2020-10-29_23h44.23.822,swahili,2020.2.4,MacIntel,60,,,,,,,,,,,,,,,,,,,,,,,,,,,,,,,,,,0,0,0,0,1,,,,,,,,,,,,,,,,,,,,,,,,,,,,,,,,,,,,,,,,,,,,,,,,,,,,,,,,,,,,,,,,
,,,,,,,,,,W1590780,2020-10-29_23h44.23.822,swahili,2020.2.4,MacIntel,60,,,,,,,,,,,,,,,,,,,,,,,,,,,,,,,,,,,,,,,return,,,,,,0.868315,2.655425,0.452842408,-0.064526331,1,0,0,0.58524,yes,PLATE,SAHANI,incorrect,0,0,0,0,1,,,,,,,,,,,,,,,,,,,,,,,,,,,,,,,,,,,,,,,,,
,,,,,,,,,,W1590780,2020-10-29_23h44.23.822,swahili,2020.2.4,MacIntel,60,,,,,,,,,,,,,,,,,,,,,,,,,,,,,,,,,,,,,,,,,,,,,,2.838395,0.507235541,0.057322901,1,0,0,0.93687,yes,MANURE,SAMADI,incorrect,1,0,1,0,1,,,,,,,,,,,,,,,,,,,,,,,,,,,,,,,,,,,,,,,,,
,,,,,,,,,,W1590780,2020-10-29_23h44.23.822,swahili,2020.2.4,MacIntel,60,,,,,,,,,,,,,,,,,,,,,,,,,,,,,,,,,,,,,,,,0,0,0,0,1,,,,,,,,,,,,,,,,,,,,,,,,,,,,,,,,,,,,,,,,,,,,,,,,,,,,,,,,,,
,,,,,,,,,,W1590780,2020-10-29_23h44.23.822,swahili,2020.2.4,MacIntel,60,,,,,,,,,,,,,,,,,,,,,,,,,,,,,,,,,,,,,,,,1,0,1,0,1,,,,,,,,,,,,,,,,,,,,,,,,,,,,,,,,,,,,,,,,,,,,,,,,,,,,,,,,,,
,,,,,,,,,,W1590780,2020-10-29_23h44.23.822,swahili,2020.2.4,MacIntel,60,,,,,,,,,,,,,,,,,,,,,,,,,,,,,,,,,,,,,,,,,,,,,,,,,,,,,,,,,,,,,,9,0,9,0,1,,,,,,,,,,,,,,,,,,,,,,,,,,,,,,,,,,,,
,,,,,,,,,,W1590780,2020-10-29_23h44.23.822,swahili,2020.2.4,MacIntel,60,,,,,,,,,,-0.23355666,-0.09613943,1,0,0,2.161595,unsorted_card,0,0,0,0,1,,,,,,,,,,,,,,,,,,,,,,,,,,,,,,,,,,,,,,,,,,,,,,,,,,,,,,,,,,,,,,,,,,,,,,,,,,,,,,,,,
,,,,,,,,,,W1590780,2020-10-29_23h44.23.822,swahili,2020.2.4,MacIntel,60,,,,,,,,,,0.448032451,-0.560731353,1,0,0,2.352835,done_pile,1,0,1,0,1,PLATE - SAHANI,,,,,,,,,,,,,,,,,,,,,,,,,,,,,,,,,,,,,,,,,,,,,,,,,,,,,,,,,,,,,,,,,,,,,,,,,,,,,,,,
,,,,,,,,,,W1590780,2020-10-29_23h44.23.822,swahili,2020.2.4,MacIntel,60,,,,,,,,,,-0.243111812,-0.21263587,1,0,0,0.567385,unsorted_card,2,0,2,0,1,,,,,,,,,,,,,,,,,,,,,,,,,,,,,,,,,,,,,,,,,,,,,,,,,,,,,,,,,,,,,,,,,,,,,,,,,,,,,,,,,
,,,,,,,,,,W1590780,2020-10-29_23h44.23.822,swahili,2020.2.4,MacIntel,60,,,,,,,,,,0.497892332,-0.512193122,1,0,0,2.72421,done_pile,3,0,3,0,1,MANURE - SAMADI,,,,,,,,,,,,,,,,,,,,,,,,,,,,,,,,,,,,,,,,,,,,,,,,,,,,,,,,,,,,,,,,,,,,,,,,,,,,,,,,
,,,,,,,,,,W1590780,2020-10-29_23h44.23.822,swahili,2020.2.4,MacIntel,60,,,,,,,,,,,,,,,,,,,,,,,,,,,,,,,,,,,,,,,,0,0,0,0,1,,,,,,,,,,,,,,,,,,,,,,,,,,,,,,,,,,,,,,,,,,,,,,,,,,,,,,,,,,
,,,,,,,,,,W1590780,2020-10-29_23h44.23.822,swahili,2020.2.4,MacIntel,60,,,,,,,,,,,,,,,,,,,,,,,,,,,,,,,,,,,,,,,,1,0,1,0,1,,,,,,,,,,,,,,,,,,,,,,,,,,,,,,,,,,,,,,,,,,,,,,,,,,,,,,,,,,
,,,,,,,,,,W1590780,2020-10-29_23h44.23.822,swahili,2020.2.4,MacIntel,60,,,,,,,,TALAKA,DIVORCE,,,,,,,,,,,,,,,,,,,,,,,,,,,,,,,,,,,,,4.74159,,,,,,,,,TAKALA,incorrect,,,,,,,,,,,return,6.35923,return,0.855785,return,3.026765,0,0,0,17,1,,,,,,,,,,,,,,,,,,,,,,,,,
,,,,,,,,,,W1590780,2020-10-29_23h44.23.822,swahili,2020.2.4,MacIntel,60,,,,,,,,MSHONI,TAILOR,,,,,,,,,,,,,,,,,,,,,,,,,,,,,,,,,,,,,6.43043,,,,,,,,,TAJIRI,incorrect,,,,,,,,,,,,,,,,,0,1,1,9,1,,,,,,,,,,,,,,,,,,,,,,,,,
,,,,,,,,,,W1590780,2020-10-29_23h44.23.822,swahili,2020.2.4,MacIntel,60,,,,,,,,YAMINI,OATH,,,,,,,,,,,,,,,,,,,,,,,,,,,,,,,,,,,,,2.456925,,,,,,,,,YAMINI,correct,,,,,,,,,,,,,,,,,0,2,2,6,1,,,,,,,,,,,,,,,,,,,,,,,,,
,,,,,,,,,,W1590780,2020-10-29_23h44.23.822,swahili,2020.2.4,MacIntel,60,,,,,,,,NAFAKA,CORN,,,,,,,,,,,,,,,,,,,,,,,,,,,,,,,,,,,,,6.41292,,,,,,,,,NAFAKA,correct,,,,,,,,,,,,,,,,,0,3,3,7,1,,,,,,,,,,,,,,,,,,,,,,,,,
,,,,,,,,,,W1590780,2020-10-29_23h44.23.822,swahili,2020.2.4,MacIntel,60,,,,,,,,DAFINA,TREASURE,,,,,,,,,,,,,,,,,,,,,,,,,,,,,,,,,,,,,8.87287,,,,,,,,,DEKILI,incorrect,,,,,,,,,,,,,,,,,0,4,4,19,1,,,,,,,,,,,,,,,,,,,,,,,,,
,,,,,,,,,,W1590780,2020-10-29_23h44.23.822,swahili,2020.2.4,MacIntel,60,,,,,,,,KABURI,GRAVE,,,,,,,,,,,,,,,,,,,,,,,,,,,,,,,,,,,,,12.429605,,,,,,,,,KUMBINI,incorrect,,,,,,,,,,,,,,,,,0,5,5,12,1,,,,,,,,,,,,,,,,,,,,,,,,,
,,,,,,,,,,W1590780,2020-10-29_23h44.23.822,swahili,2020.2.4,MacIntel,60,,,,,,,,WAKILI,AGENT,,,,,,,,,,,,,,,,,,,,,,,,,,,,,,,,,,,,,16.374525,,,,,,,,,SAKINI,incorrect,,,,,,,,,,,,,,,,,0,6,6,14,1,,,,,,,,,,,,,,,,,,,,,,,,,
,,,,,,,,,,W1590780,2020-10-29_23h44.23.822,swahili,2020.2.4,MacIntel,60,,,,,,,,RUSHWA,BRIBE,,,,,,,,,,,,,,,,,,,,,,,,,,,,,,,,,,,,,4.76222,,,,,,,,,RUSHWA,correct,,,,,,,,,,,,,,,,,0,7,7,15,1,,,,,,,,,,,,,,,,,,,,,,,,,
,,,,,,,,,,W1590780,2020-10-29_23h44.23.822,swahili,2020.2.4,MacIntel,60,,,,,,,,YATIMA,ORPHAN,,,,,,,,,,,,,,,,,,,,,,,,,,,,,,,,,,,,,2.872105,,,,,,,,,YATIMA,correct,,,,,,,,,,,,,,,,,0,8,8,16,1,,,,,,,,,,,,,,,,,,,,,,,,,
,,,,,,,,,,W1590780,2020-10-29_23h44.23.822,swahili,2020.2.4,MacIntel,60,,,,,,,,FAHILI,BULL,,,,,,,,,,,,,,,,,,,,,,,,,,,,,,,,,,,,,2.670935,,,,,,,,,FAHILI,correct,,,,,,,,,,,,,,,,,0,9,9,2,1,,,,,,,,,,,,,,,,,,,,,,,,,
,,,,,,,,,,W1590780,2020-10-29_23h44.23.822,swahili,2020.2.4,MacIntel,60,,,,,,,,LAWAMA,BLAME,,,,,,,,,,,,,,,,,,,,,,,,,,,,,,,,,,,,,5.03087,,,,,,,,,LAWAMA,correct,,,,,,,,,,,,,,,,,0,10,10,5,1,,,,,,,,,,,,,,,,,,,,,,,,,
,,,,,,,,,,W1590780,2020-10-29_23h44.23.822,swahili,2020.2.4,MacIntel,60,,,,,,,,ZABIBU,GRAPES,,,,,,,,,,,,,,,,,,,,,,,,,,,,,,,,,,,,,5.57792,,,,,,,,,KUBURI,incorrect,,,,,,,,,,,,,,,,,0,11,11,11,1,,,,,,,,,,,,,,,,,,,,,,,,,
,,,,,,,,,,W1590780,2020-10-29_23h44.23.822,swahili,2020.2.4,MacIntel,60,,,,,,,,HAMIRA,YEAST,,,,,,,,,,,,,,,,,,,,,,,,,,,,,,,,,,,,,5.69619,,,,,,,,,HABANI,incorrect,,,,,,,,,,,,,,,,,0,12,12,4,1,,,,,,,,,,,,,,,,,,,,,,,,,
,,,,,,,,,,W1590780,2020-10-29_23h44.23.822,swahili,2020.2.4,MacIntel,60,,,,,,,,TAJIRI,MERCHANT,,,,,,,,,,,,,,,,,,,,,,,,,,,,,,,,,,,,,2.75569,,,,,,,,,TAJIRI,correct,,,,,,,,,,,,,,,,,0,13,13,0,1,,,,,,,,,,,,,,,,,,,,,,,,,
,,,,,,,,,,W1590780,2020-10-29_23h44.23.822,swahili,2020.2.4,MacIntel,60,,,,,,,,SAMADI,MANURE,,,,,,,,,,,,,,,,,,,,,,,,,,,,,,,,,,,,,3.023475,,,,,,,,,SAHINI,incorrect,,,,,,,,,,,,,,,,,0,14,14,13,1,,,,,,,,,,,,,,,,,,,,,,,,,
,,,,,,,,,,W1590780,2020-10-29_23h44.23.822,swahili,2020.2.4,MacIntel,60,,,,,,,,JIBINI,CHEESE,,,,,,,,,,,,,,,,,,,,,,,,,,,,,,,,,,,,,4.110205,,,,,,,,,JIBIRI,incorrect,,,,,,,,,,,,,,,,,0,15,15,10,1,,,,,,,,,,,,,,,,,,,,,,,,,
,,,,,,,,,,W1590780,2020-10-29_23h44.23.822,swahili,2020.2.4,MacIntel,60,,,,,,,,MASHUA,BOAT,,,,,,,,,,,,,,,,,,,,,,,,,,,,,,,,,,,,,10.925665,,,,,,,,,RAWANI,incorrect,,,,,,,,,,,,,,,,,0,16,16,18,1,,,,,,,,,,,,,,,,,,,,,,,,,
,,,,,,,,,,W1590780,2020-10-29_23h44.23.822,swahili,2020.2.4,MacIntel,60,,,,,,,,UTENZI,POEM,,,,,,,,,,,,,,,,,,,,,,,,,,,,,,,,,,,,,5.41333,,,,,,,,,UTENZI,correct,,,,,,,,,,,,,,,,,0,17,17,8,1,,,,,,,,,,,,,,,,,,,,,,,,,
,,,,,,,,,,W1590780,2020-10-29_23h44.23.822,swahili,2020.2.4,MacIntel,60,,,,,,,,KASUKU,PARROT,,,,,,,,,,,,,,,,,,,,,,,,,,,,,,,,,,,,,22.106815,,,,,,,,,KASUKU,correct,,,,,,,,,,,,,,,,,0,18,18,1,1,,,,,,,,,,,,,,,,,,,,,,,,,
,,,,,,,,,,W1590780,2020-10-29_23h44.23.822,swahili,2020.2.4,MacIntel,60,,,,,,,,SAHANI,PLATE,,,,,,,,,,,,,,,,,,,,,,,,,,,,,,,,,,,,,5.795565,,,,,,,,,SAWANI,incorrect,,,,,,,,,,,,,,,,,0,19,19,3,1,,,,,,,,,,,,,,,,,,,,,,,,,
,,,,,,,,,,W1590780,2020-10-29_23h44.23.822,swahili,2020.2.4,MacIntel,60,,,,,,,,,,,,,,,,,,,,,,,,,,,,,,,,,,,,,,,,,,,,,,,,,,,,,,,,,,,,,,,,,,,,,,,,,,,,,,0,0,0,0,1,I bought all my goods from the ____ at the market. ,TAJIRI,,,,,,,,,,,,,,,,,,
,,,,,,,,,,W1590780,2020-10-29_23h44.23.822,swahili,2020.2.4,MacIntel,60,,,,,,,,,,,,,,,,,,,,,,,,,,,,,,,,,,,,,,,,,,,,,,,,,,,,,,,,,,,,,,,,,,,,,,,,,,,,,,0,1,1,1,1,The ____ is a bird that can learn to repeat words.,KASUKU,,,,,,,,,,,,,,,,,,
,,,,,,,,,,W1590780,2020-10-29_23h44.23.822,swahili,2020.2.4,MacIntel,60,,,,,,,,,,,,,,,,,,,,,,,,,,,,,,,,,,,,,,,,,,,,,,,,,,,,,,,,,,,,,,,,,,,,,,,,,,,,,,0,2,2,2,1,The ____ charged the matador's red cape. ,FAHILI,,,,,,,,,,,,,,,,,,
,,,,,,,,,,W1590780,2020-10-29_23h44.23.822,swahili,2020.2.4,MacIntel,60,,,,,,,,,,,,,,,,,,,,,,,,,,,,,,,,,,,,,,,,,,,,,,,,,,,,,,,,,,,,,,,,,,,,,,,,,,,,,,0,3,3,3,1,I filled my ____ with food at the buffet. ,SAHANI,,,,,,,,,,,,,,,,,,
,,,,,,,,,,W1590780,2020-10-29_23h44.23.822,swahili,2020.2.4,MacIntel,60,,,,,,,,,,,,,,,,,,,,,,,,,,,,,,,,,,,,,,,,,,,,,,,,,,,,,,,,,,,,,,,,,,,,,,,,,,,,,,0,4,4,4,1,_____ makes bread rise. ,HAMIRA,,,,,,,,,,,,,,,,,,
,,,,,,,,,,W1590780,2020-10-29_23h44.23.822,swahili,2020.2.4,MacIntel,60,,,,,,,,,,,,,,,,,,,,,,,,,,,,,,,,,,,,,,,,,,,,,,,,,,,,,,,,,,,,,,,,,,,,,,,,,,,,,,0,5,5,5,1,Shannon had no one else to  ____ for what happened.,LAWAMA,,,,,,,,,,,,,,,,,,
,,,,,,,,,,W1590780,2020-10-29_23h44.23.822,swahili,2020.2.4,MacIntel,60,,,,,,,,,,,,,,,,,,,,,,,,,,,,,,,,,,,,,,,,,,,,,,,,,,,,,,,,,,,,,,,,,,,,,,,,,,,,,,0,6,6,6,1,The president takes the  ____ of office to uphold the Constitution.,YAMINI,,,,,,,,,,,,,,,,,,
,,,,,,,,,,W1590780,2020-10-29_23h44.23.822,swahili,2020.2.4,MacIntel,60,,,,,,,,,,,,,,,,,,,,,,,,,,,,,,,,,,,,,,,,,,,,,,,,,,,,,,,,,,,,,,,,,,,,,,,,,,,,,,0,7,7,7,1,Kate doesn't like ____ on the cob because it gets stuck between her teeth. ,NAFAKA,,,,,,,,,,,,,,,,,,
,,,,,,,,,,W1590780,2020-10-29_23h44.23.822,swahili,2020.2.4,MacIntel,60,,,,,,,,,,,,,,,,,,,,,,,,,,,,,,,,,,,,,,,,,,,,,,,,,,,,,,,,,,,,,,,,,,,,,,,,,,,,,,0,8,8,8,1,David wrote Cynthia a romantic ____  but she thought it rhymed too much.,UTENZI,,,,,,,,,,,,,,,,,,
,,,,,,,,,,W1590780,2020-10-29_23h44.23.822,swahili,2020.2.4,MacIntel,60,,,,,,,,,,,,,,,,,,,,,,,,,,,,,,,,,,,,,,,,,,,,,,,,,,,,,,,,,,,,,,,,,,,,,,,,,,,,,,0,9,9,9,1,Charles went to the ____ to get his suit adjusted. ,MSHONI,,,,,,,,,,,,,,,,,,
,,,,,,,,,,W1590780,2020-10-29_23h44.23.822,swahili,2020.2.4,MacIntel,60,,,,,,,,,,,,,,,,,,,,,,,,,,,,,,,,,,,,,,,,,,,,,,,,,,,,,,,,,,,,,,,,,,,,,,,,,,,,,,0,10,10,10,1,Amy cooked a grilled ____ sandwich to go with her tomato soup.,JIBINI,,,,,,,,,,,,,,,,,,
,,,,,,,,,,W1590780,2020-10-29_23h44.23.822,swahili,2020.2.4,MacIntel,60,,,,,,,,,,,,,,,,,,,,,,,,,,,,,,,,,,,,,,,,,,,,,,,,,,,,,,,,,,,,,,,,,,,,,,,,,,,,,,0,11,11,11,1,Fermented _______ are used to make wine.,ZABIBU,,,,,,,,,,,,,,,,,,
,,,,,,,,,,W1590780,2020-10-29_23h44.23.822,swahili,2020.2.4,MacIntel,60,,,,,,,,,,,,,,,,,,,,,,,,,,,,,,,,,,,,,,,,,,,,,,,,,,,,,,,,,,,,,,,,,,,,,,,,,,,,,,0,12,12,12,1,She visited her father's ___ on the anniversary of his death. ,KABURI,,,,,,,,,,,,,,,,,,
,,,,,,,,,,W1590780,2020-10-29_23h44.23.822,swahili,2020.2.4,MacIntel,60,,,,,,,,,,,,,,,,,,,,,,,,,,,,,,,,,,,,,,,,,,,,,,,,,,,,,,,,,,,,,,,,,,,,,,,,,,,,,,0,13,13,13,1,"On a farm, there is a good chance you will step into a pile of ______.",SAMADI,,,,,,,,,,,,,,,,,,
,,,,,,,,,,W1590780,2020-10-29_23h44.23.822,swahili,2020.2.4,MacIntel,60,,,,,,,,,,,,,,,,,,,,,,,,,,,,,,,,,,,,,,,,,,,,,,,,,,,,,,,,,,,,,,,,,,,,,,,,,,,,,,0,14,14,14,1,"To buy a house, you may need to speak with a real estate ______.",WAKILI,,,,,,,,,,,,,,,,,,
,,,,,,,,,,W1590780,2020-10-29_23h44.23.822,swahili,2020.2.4,MacIntel,60,,,,,,,,,,,,,,,,,,,,,,,,,,,,,,,,,,,,,,,,,,,,,,,,,,,,,,,,,,,,,,,,,,,,,,,,,,,,,,0,15,15,15,1,The politician was arrested for taking a _____.,RUSHWA,,,,,,,,,,,,,,,,,,
,,,,,,,,,,W1590780,2020-10-29_23h44.23.822,swahili,2020.2.4,MacIntel,60,,,,,,,,,,,,,,,,,,,,,,,,,,,,,,,,,,,,,,,,,,,,,,,,,,,,,,,,,,,,,,,,,,,,,,,,,,,,,,0,16,16,16,1,The _____ is living with foster parents.,YATIMA,,,,,,,,,,,,,,,,,,
,,,,,,,,,,W1590780,2020-10-29_23h44.23.822,swahili,2020.2.4,MacIntel,60,,,,,,,,,,,,,,,,,,,,,,,,,,,,,,,,,,,,,,,,,,,,,,,,,,,,,,,,,,,,,,,,,,,,,,,,,,,,,,0,17,17,17,1,My aunt and uncle got a _________ after two years of marriage.,TALAKA,,,,,,,,,,,,,,,,,,
,,,,,,,,,,W1590780,2020-10-29_23h44.23.822,swahili,2020.2.4,MacIntel,60,,,,,,,,,,,,,,,,,,,,,,,,,,,,,,,,,,,,,,,,,,,,,,,,,,,,,,,,,,,,,,,,,,,,,,,,,,,,,,0,18,18,18,1,You need a ______ to go fishing in the middle of a lake.,MASHUA,,,,,,,,,,,,,,,,,,
,,,,,,,,,,W1590780,2020-10-29_23h44.23.822,swahili,2020.2.4,MacIntel,60,,,,,,,,,,,,,,,,,,,,,,,,,,,,,,,,,,,,,,,,,,,,,,,,,,,,,,,,,,,,,,,,,,,,,,,,,,,,,,0,19,19,19,1,Pirates looked for buried _________ at the bottom of the sea.,DAFINA,,,,,,,,,,,,,,,,,,
,,,,,,,,,,W1590780,2020-10-29_23h44.23.822,swahili,2020.2.4,MacIntel,60,,,,,,,,,,,,,,,,,,,,,,,,,,,,,,,,,,,,,,,,,,,,,,,,,,,,,,,,,,,,,,,,,,,,,,,,,,,,,,,,,,,Pirates looked for buried _________ at the bottom of the sea.,DAFINA,return,1.601325,DAFINA,correct,-0.01131393,-0.42551771,1,0,0,2.37816,b,0,0,0,19,1,,
,,,,,,,,,,W1590780,2020-10-29_23h44.23.822,swahili,2020.2.4,MacIntel,60,,,,,,,,,,,,,,,,,,,,,,,,,,,,,,,,,,,,,,,,,,,,,,,,,,,,,,,,,,,,,,,,,,,,,,,,,,,,,,,,,,,Shannon had no one else to  ____ for what happened.,LAWAMA,,,LAWAMA,correct,-0.635977456,-0.575138212,1,0,0,7.848445,a,0,1,1,5,1,,
,,,,,,,,,,W1590780,2020-10-29_23h44.23.822,swahili,2020.2.4,MacIntel,60,,,,,,,,,,,,,,,,,,,,,,,,,,,,,,,,,,,,,,,,,,,,,,,,,,,,,,,,,,,,,,,,,,,,,,,,,,,,,,,,,,,I bought all my goods from the ____ at the market. ,TAJIRI,,,TAJIRI,correct,0.459065865,-0.484152455,1,0,0,3.669765,c,0,2,2,0,1,,
,,,,,,,,,,W1590780,2020-10-29_23h44.23.822,swahili,2020.2.4,MacIntel,60,,,,,,,,,,,,,,,,,,,,,,,,,,,,,,,,,,,,,,,,,,,,,,,,,,,,,,,,,,,,,,,,,,,,,,,,,,,,,,,,,,,"To buy a house, you may need to speak with a real estate ______.",WAKILI,,,WAKILI,correct,0.584181528,-0.479701555,1,0,0,5.49123,c,0,3,3,14,1,,
,,,,,,,,,,W1590780,2020-10-29_23h44.23.822,swahili,2020.2.4,MacIntel,60,,,,,,,,,,,,,,,,,,,,,,,,,,,,,,,,,,,,,,,,,,,,,,,,,,,,,,,,,,,,,,,,,,,,,,,,,,,,,,,,,,,The _____ is living with foster parents.,YATIMA,,,YATIMA,correct,0.070228382,-0.488287106,1,0,0,1.76505,b,0,4,4,16,1,,
,,,,,,,,,,W1590780,2020-10-29_23h44.23.822,swahili,2020.2.4,MacIntel,60,,,,,,,,,,,,,,,,,,,,,,,,,,,,,,,,,,,,,,,,,,,,,,,,,,,,,,,,,,,,,,,,,,,,,,,,,,,,,,,,,,,Fermented _______ are used to make wine.,ZABIBU,,,ZABIBU,correct,0.539924714,-0.523613193,1,0,0,5.17439,c,0,5,5,11,1,,
,,,,,,,,,,W1590780,2020-10-29_23h44.23.822,swahili,2020.2.4,MacIntel,60,,,,,,,,,,,,,,,,,,,,,,,,,,,,,,,,,,,,,,,,,,,,,,,,,,,,,,,,,,,,,,,,,,,,,,,,,,,,,,,,,,,The ____ charged the matador's red cape. ,FAHILI,,,SAHANI,incorrect,-0.516539788,-0.480029516,1,0,0,10.9587,a,0,6,6,2,1,,
,,,,,,,,,,W1590780,2020-10-29_23h44.23.822,swahili,2020.2.4,MacIntel,60,,,,,,,,,,,,,,,,,,,,,,,,,,,,,,,,,,,,,,,,,,,,,,,,,,,,,,,,,,,,,,,,,,,,,,,,,,,,,,,,,,,Charles went to the ____ to get his suit adjusted. ,MSHONI,,,MSHONI,correct,-0.015141319,-0.434911451,1,0,0,5.825155,b,0,7,7,9,1,,
,,,,,,,,,,W1590780,2020-10-29_23h44.23.822,swahili,2020.2.4,MacIntel,60,,,,,,,,,,,,,,,,,,,,,,,,,,,,,,,,,,,,,,,,,,,,,,,,,,,,,,,,,,,,,,,,,,,,,,,,,,,,,,,,,,,The politician was arrested for taking a _____.,RUSHWA,,,RUSHWA,correct,0.037106746,-0.525873782,1,0,0,4.991295,b,0,8,8,15,1,,
,,,,,,,,,,W1590780,2020-10-29_23h44.23.822,swahili,2020.2.4,MacIntel,60,,,,,,,,,,,,,,,,,,,,,,,,,,,,,,,,,,,,,,,,,,,,,,,,,,,,,,,,,,,,,,,,,,,,,,,,,,,,,,,,,,,_____ makes bread rise. ,HAMIRA,,,HAMIRA,correct,0.013332773,-0.557252624,1,0,0,2.851075,b,0,9,9,4,1,,
,,,,,,,,,,W1590780,2020-10-29_23h44.23.822,swahili,2020.2.4,MacIntel,60,,,,,,,,,,,,,,,,,,,,,,,,,,,,,,,,,,,,,,,,,,,,,,,,,,,,,,,,,,,,,,,,,,,,,,,,,,,,,,,,,,,David wrote Cynthia a romantic ____  but she thought it rhymed too much.,UTENZI,,,UTENZI,correct,0.543121215,-0.565826462,1,0,0,2.13245,c,0,10,10,8,1,,
,,,,,,,,,,W1590780,2020-10-29_23h44.23.822,swahili,2020.2.4,MacIntel,60,,,,,,,,,,,,,,,,,,,,,,,,,,,,,,,,,,,,,,,,,,,,,,,,,,,,,,,,,,,,,,,,,,,,,,,,,,,,,,,,,,,You need a ______ to go fishing in the middle of a lake.,MASHUA,,,MASHUA,correct,0.543121215,-0.565826462,1,0,0,8.85156,c,0,11,11,18,1,,
,,,,,,,,,,W1590780,2020-10-29_23h44.23.822,swahili,2020.2.4,MacIntel,60,,,,,,,,,,,,,,,,,,,,,,,,,,,,,,,,,,,,,,,,,,,,,,,,,,,,,,,,,,,,,,,,,,,,,,,,,,,,,,,,,,,Amy cooked a grilled ____ sandwich to go with her tomato soup.,JIBINI,,,JIBINI,correct,-0.393264216,-0.517909014,1,0,0,2.483965,a,0,12,12,10,1,,
,,,,,,,,,,W1590780,2020-10-29_23h44.23.822,swahili,2020.2.4,MacIntel,60,,,,,,,,,,,,,,,,,,,,,,,,,,,,,,,,,,,,,,,,,,,,,,,,,,,,,,,,,,,,,,,,,,,,,,,,,,,,,,,,,,,"On a farm, there is a good chance you will step into a pile of ______.",SAMADI,,,SAMADI,correct,0.553204913,-0.450302193,1,0,0,3.8536,c,0,13,13,13,1,,
,,,,,,,,,,W1590780,2020-10-29_23h44.23.822,swahili,2020.2.4,MacIntel,60,,,,,,,,,,,,,,,,,,,,,,,,,,,,,,,,,,,,,,,,,,,,,,,,,,,,,,,,,,,,,,,,,,,,,,,,,,,,,,,,,,,The president takes the  ____ of office to uphold the Constitution.,YAMINI,,,YAMINI,correct,0.053709623,-0.485757121,1,0,0,7.17952,b,0,14,14,6,1,,
,,,,,,,,,,W1590780,2020-10-29_23h44.23.822,swahili,2020.2.4,MacIntel,60,,,,,,,,,,,,,,,,,,,,,,,,,,,,,,,,,,,,,,,,,,,,,,,,,,,,,,,,,,,,,,,,,,,,,,,,,,,,,,,,,,,My aunt and uncle got a _________ after two years of marriage.,TALAKA,,,TALAKA,correct,0.053709623,-0.480896271,1,0,0,2.267005,b,0,15,15,17,1,,
,,,,,,,,,,W1590780,2020-10-29_23h44.23.822,swahili,2020.2.4,MacIntel,60,,,,,,,,,,,,,,,,,,,,,,,,,,,,,,,,,,,,,,,,,,,,,,,,,,,,,,,,,,,,,,,,,,,,,,,,,,,,,,,,,,,I filled my ____ with food at the buffet. ,SAHANI,,,SAHANI,correct,-0.071963324,-0.498313343,1,0,0,4.337905,b,0,16,16,3,1,,
,,,,,,,,,,W1590780,2020-10-29_23h44.23.822,swahili,2020.2.4,MacIntel,60,,,,,,,,,,,,,,,,,,,,,,,,,,,,,,,,,,,,,,,,,,,,,,,,,,,,,,,,,,,,,,,,,,,,,,,,,,,,,,,,,,,She visited her father's ___ on the anniversary of his death. ,KABURI,,,KABURI,correct,0.643926649,-0.465622657,1,0,0,3.001985,c,0,17,17,12,1,,
,,,,,,,,,,W1590780,2020-10-29_23h44.23.822,swahili,2020.2.4,MacIntel,60,,,,,,,,,,,,,,,,,,,,,,,,,,,,,,,,,,,,,,,,,,,,,,,,,,,,,,,,,,,,,,,,,,,,,,,,,,,,,,,,,,,Kate doesn't like ____ on the cob because it gets stuck between her teeth. ,NAFAKA,,,NAFAKA,correct,-0.439066706,-0.419145896,1,0,0,2.882375,a,0,18,18,7,1,,
,,,,,,,,,,W1590780,2020-10-29_23h44.23.822,swahili,2020.2.4,MacIntel,60,,,,,,,,,,,,,,,,,,,,,,,,,,,,,,,,,,,,,,,,,,,,,,,,,,,,,,,,,,,,,,,,,,,,,,,,,,,,,,,,,,,The ____ is a bird that can learn to repeat words.,KASUKU,,,KASUKU,correct,-0.039777507,-0.492866848,1,0,0,2.231915,b,0,19,19,1,1,,
,,,,,,,,,,W1590780,2020-10-29_23h44.23.822,swahili,2020.2.4,MacIntel,60,,,,,,,,,,,,,,,,,,,,,,,,,,,,,,,,,,,,,,,,,,,,,,,,,,,,,,,,,,,,,,,,,,,,,,,,,,,,,,,,,,,,,,,,,,,,,,,,,,,,,return,3.429395
