condition,consent_key.keys,consent_key.rt,done_with_instructions.keys,done_with_instructions.rt,instr_loop.thisRepN,instr_loop.thisTrialN,instr_loop.thisN,instr_loop.thisIndex,instr_loop.ran,Student ID #,date,expName,psychopyVersion,OS,frameRate,instr_learning_key.keys,instr_learning_key.rt,card_gen_loop.thisRepN,card_gen_loop.thisTrialN,card_gen_loop.thisN,card_gen_loop.thisIndex,card_gen_loop.ran,swa,eng,choose_pile.x,choose_pile.y,choose_pile.leftButton,choose_pile.midButton,choose_pile.rightButton,choose_pile.time,choose_pile.clicked_name,choices.thisRepN,choices.thisTrialN,choices.thisN,choices.thisIndex,choices.ran,card_to_show,mouse_pick.x,mouse_pick.y,mouse_pick.leftButton,mouse_pick.midButton,mouse_pick.rightButton,mouse_pick.time,mouse_pick.clicked_name,key_instr_study.keys,key_instr_study.rt,next_study.keys,next_study.rt,study_loop.thisRepN,study_loop.thisTrialN,study_loop.thisN,study_loop.thisIndex,study_loop.ran,key_instr_test.keys,learn_loop.thisRepN,learn_loop.thisTrialN,learn_loop.thisN,learn_loop.thisIndex,learn_loop.ran,trials.thisRepN,trials.thisTrialN,trials.thisN,trials.thisIndex,trials.ran,key_instr_test.rt,duration,yes_or_no.x,yes_or_no.y,yes_or_no.leftButton,yes_or_no.midButton,yes_or_no.rightButton,yes_or_no.time,yes_or_no.clicked_name,test_response.stim,test_response.resp,test_response.eval,test_loop.thisRepN,test_loop.thisTrialN,test_loop.thisN,test_loop.thisIndex,test_loop.ran,instr_movie_key.keys,instr_movie_key.rt,return_to_exp.keys,return_to_exp.rt,instr_assess_key.keys,instr_assess_key.rt,assess_loop.thisRepN,assess_loop.thisTrialN,assess_loop.thisN,assess_loop.thisIndex,assess_loop.ran,ans_gen_loop.thisRepN,ans_gen_loop.thisTrialN,ans_gen_loop.thisN,ans_gen_loop.thisIndex,ans_gen_loop.ran,sen,ans,instr_transfer_key.keys,instr_transfer_key.rt,transfer_response.resp,transfer_response.eval,select_word.x,select_word.y,select_word.leftButton,select_word.midButton,select_word.rightButton,select_word.time,select_word.clicked_name,transfers.thisRepN,transfers.thisTrialN,transfers.thisN,transfers.thisIndex,transfers.ran,end_experiment.keys,end_experiment.rt
1,return,55.222625,return,23.490525,0,0,0,0,1,00001605716,2020-10-31_02h50.06.581,swahili,2020.2.4,MacIntel,60,,,,,,,,,,,,,,,,,,,,,,,,,,,,,,,,,,,,,,,,,,,,,,,,,,,,,,,,,,,,,,,,,,,,,,,,,,,,,,,,,,,,,,,,,,,,,,,,,,,,,,
,,,,,,,,,,00001605716,2020-10-31_02h50.06.581,swahili,2020.2.4,MacIntel,60,return,26.354315,0,0,0,0,1,TAJIRI,MERCHANT,,,,,,,,,,,,,,,,,,,,,,,,,,,,,,,,,,,,,,,,,,,,,,,,,,,,,,,,,,,,,,,,,,,,,,,,,,,,,,,,,,,,,,,,,,,,,
,,,,,,,,,,00001605716,2020-10-31_02h50.06.581,swahili,2020.2.4,MacIntel,60,,,0,1,1,1,1,KASUKU,PARROT,,,,,,,,,,,,,,,,,,,,,,,,,,,,,,,,,,,,,,,,,,,,,,,,,,,,,,,,,,,,,,,,,,,,,,,,,,,,,,,,,,,,,,,,,,,,,
,,,,,,,,,,00001605716,2020-10-31_02h50.06.581,swahili,2020.2.4,MacIntel,60,,,0,2,2,2,1,FAHILI,BULL,,,,,,,,,,,,,,,,,,,,,,,,,,,,,,,,,,,,,,,,,,,,,,,,,,,,,,,,,,,,,,,,,,,,,,,,,,,,,,,,,,,,,,,,,,,,,
,,,,,,,,,,00001605716,2020-10-31_02h50.06.581,swahili,2020.2.4,MacIntel,60,,,0,3,3,3,1,SAHANI,PLATE,,,,,,,,,,,,,,,,,,,,,,,,,,,,,,,,,,,,,,,,,,,,,,,,,,,,,,,,,,,,,,,,,,,,,,,,,,,,,,,,,,,,,,,,,,,,,
,,,,,,,,,,00001605716,2020-10-31_02h50.06.581,swahili,2020.2.4,MacIntel,60,,,0,4,4,4,1,HAMIRA,YEAST,,,,,,,,,,,,,,,,,,,,,,,,,,,,,,,,,,,,,,,,,,,,,,,,,,,,,,,,,,,,,,,,,,,,,,,,,,,,,,,,,,,,,,,,,,,,,
,,,,,,,,,,00001605716,2020-10-31_02h50.06.581,swahili,2020.2.4,MacIntel,60,,,0,5,5,5,1,LAWAMA,BLAME,,,,,,,,,,,,,,,,,,,,,,,,,,,,,,,,,,,,,,,,,,,,,,,,,,,,,,,,,,,,,,,,,,,,,,,,,,,,,,,,,,,,,,,,,,,,,
,,,,,,,,,,00001605716,2020-10-31_02h50.06.581,swahili,2020.2.4,MacIntel,60,,,0,6,6,6,1,YAMINI,OATH,,,,,,,,,,,,,,,,,,,,,,,,,,,,,,,,,,,,,,,,,,,,,,,,,,,,,,,,,,,,,,,,,,,,,,,,,,,,,,,,,,,,,,,,,,,,,
,,,,,,,,,,00001605716,2020-10-31_02h50.06.581,swahili,2020.2.4,MacIntel,60,,,0,7,7,7,1,NAFAKA,CORN,,,,,,,,,,,,,,,,,,,,,,,,,,,,,,,,,,,,,,,,,,,,,,,,,,,,,,,,,,,,,,,,,,,,,,,,,,,,,,,,,,,,,,,,,,,,,
,,,,,,,,,,00001605716,2020-10-31_02h50.06.581,swahili,2020.2.4,MacIntel,60,,,0,8,8,8,1,UTENZI,POEM,,,,,,,,,,,,,,,,,,,,,,,,,,,,,,,,,,,,,,,,,,,,,,,,,,,,,,,,,,,,,,,,,,,,,,,,,,,,,,,,,,,,,,,,,,,,,
,,,,,,,,,,00001605716,2020-10-31_02h50.06.581,swahili,2020.2.4,MacIntel,60,,,0,9,9,9,1,MSHONI,TAILOR,,,,,,,,,,,,,,,,,,,,,,,,,,,,,,,,,,,,,,,,,,,,,,,,,,,,,,,,,,,,,,,,,,,,,,,,,,,,,,,,,,,,,,,,,,,,,
,,,,,,,,,,00001605716,2020-10-31_02h50.06.581,swahili,2020.2.4,MacIntel,60,,,0,10,10,10,1,JIBINI,CHEESE,,,,,,,,,,,,,,,,,,,,,,,,,,,,,,,,,,,,,,,,,,,,,,,,,,,,,,,,,,,,,,,,,,,,,,,,,,,,,,,,,,,,,,,,,,,,,
,,,,,,,,,,00001605716,2020-10-31_02h50.06.581,swahili,2020.2.4,MacIntel,60,,,0,11,11,11,1,ZABIBU,GRAPES,,,,,,,,,,,,,,,,,,,,,,,,,,,,,,,,,,,,,,,,,,,,,,,,,,,,,,,,,,,,,,,,,,,,,,,,,,,,,,,,,,,,,,,,,,,,,
,,,,,,,,,,00001605716,2020-10-31_02h50.06.581,swahili,2020.2.4,MacIntel,60,,,0,12,12,12,1,KABURI,GRAVE,,,,,,,,,,,,,,,,,,,,,,,,,,,,,,,,,,,,,,,,,,,,,,,,,,,,,,,,,,,,,,,,,,,,,,,,,,,,,,,,,,,,,,,,,,,,,
,,,,,,,,,,00001605716,2020-10-31_02h50.06.581,swahili,2020.2.4,MacIntel,60,,,0,13,13,13,1,SAMADI,MANURE,,,,,,,,,,,,,,,,,,,,,,,,,,,,,,,,,,,,,,,,,,,,,,,,,,,,,,,,,,,,,,,,,,,,,,,,,,,,,,,,,,,,,,,,,,,,,
,,,,,,,,,,00001605716,2020-10-31_02h50.06.581,swahili,2020.2.4,MacIntel,60,,,0,14,14,14,1,WAKILI,AGENT,,,,,,,,,,,,,,,,,,,,,,,,,,,,,,,,,,,,,,,,,,,,,,,,,,,,,,,,,,,,,,,,,,,,,,,,,,,,,,,,,,,,,,,,,,,,,
,,,,,,,,,,00001605716,2020-10-31_02h50.06.581,swahili,2020.2.4,MacIntel,60,,,0,15,15,15,1,RUSHWA,BRIBE,,,,,,,,,,,,,,,,,,,,,,,,,,,,,,,,,,,,,,,,,,,,,,,,,,,,,,,,,,,,,,,,,,,,,,,,,,,,,,,,,,,,,,,,,,,,,
,,,,,,,,,,00001605716,2020-10-31_02h50.06.581,swahili,2020.2.4,MacIntel,60,,,0,16,16,16,1,YATIMA,ORPHAN,,,,,,,,,,,,,,,,,,,,,,,,,,,,,,,,,,,,,,,,,,,,,,,,,,,,,,,,,,,,,,,,,,,,,,,,,,,,,,,,,,,,,,,,,,,,,
,,,,,,,,,,00001605716,2020-10-31_02h50.06.581,swahili,2020.2.4,MacIntel,60,,,0,17,17,17,1,TALAKA,DIVORCE,,,,,,,,,,,,,,,,,,,,,,,,,,,,,,,,,,,,,,,,,,,,,,,,,,,,,,,,,,,,,,,,,,,,,,,,,,,,,,,,,,,,,,,,,,,,,
,,,,,,,,,,00001605716,2020-10-31_02h50.06.581,swahili,2020.2.4,MacIntel,60,,,0,18,18,18,1,MASHUA,BOAT,,,,,,,,,,,,,,,,,,,,,,,,,,,,,,,,,,,,,,,,,,,,,,,,,,,,,,,,,,,,,,,,,,,,,,,,,,,,,,,,,,,,,,,,,,,,,
,,,,,,,,,,00001605716,2020-10-31_02h50.06.581,swahili,2020.2.4,MacIntel,60,,,0,19,19,19,1,DAFINA,TREASURE,,,,,,,,,,,,,,,,,,,,,,,,,,,,,,,,,,,,,,,,,,,,,,,,,,,,,,,,,,,,,,,,,,,,,,,,,,,,,,,,,,,,,,,,,,,,,
,,,,,,,,,,00001605716,2020-10-31_02h50.06.581,swahili,2020.2.4,MacIntel,60,,,,,,,,,,-0.442138672,-0.046560977,1,0,1,14.835165,unsorted_card,0,0,0,0,1,,,,,,,,,,,,,,,,,,,,,,,,,,,,,,,,,,,,,,,,,,,,,,,,,,,,,,,,,,,,,,,,,,,,,,,,,,,,,,,,,
,,,,,,,,,,00001605716,2020-10-31_02h50.06.581,swahili,2020.2.4,MacIntel,60,,,,,,,,,,-0.442138672,-0.046560977,0,0,1,0.142015,unsorted_card,1,0,1,0,1,MERCHANT - TAJIRI,,,,,,,,,,,,,,,,,,,,,,,,,,,,,,,,,,,,,,,,,,,,,,,,,,,,,,,,,,,,,,,,,,,,,,,,,,,,,,,,
,,,,,,,,,,00001605716,2020-10-31_02h50.06.581,swahili,2020.2.4,MacIntel,60,,,,,,,,,,0.470003255,0.516205466,1,0,1,17.38157,study_pile,2,0,2,0,1,MERCHANT - TAJIRI,,,,,,,,,,,,,,,,,,,,,,,,,,,,,,,,,,,,,,,,,,,,,,,,,,,,,,,,,,,,,,,,,,,,,,,,,,,,,,,,
,,,,,,,,,,00001605716,2020-10-31_02h50.06.581,swahili,2020.2.4,MacIntel,60,,,,,,,,,,0.470003255,0.516205466,0,0,1,0.1462,study_pile,3,0,3,0,1,,,,,,,,,,,,,,,,,,,,,,,,,,,,,,,,,,,,,,,,,,,,,,,,,,,,,,,,,,,,,,,,,,,,,,,,,,,,,,,,,
,,,,,,,,,,00001605716,2020-10-31_02h50.06.581,swahili,2020.2.4,MacIntel,60,,,,,,,,,,-0.301904297,-0.034980207,1,0,1,0.96583,unsorted_card,4,0,4,0,1,,,,,,,,,,,,,,,,,,,,,,,,,,,,,,,,,,,,,,,,,,,,,,,,,,,,,,,,,,,,,,,,,,,,,,,,,,,,,,,,,
,,,,,,,,,,00001605716,2020-10-31_02h50.06.581,swahili,2020.2.4,MacIntel,60,,,,,,,,,,-0.301904297,-0.034980207,0,0,1,0.14874,unsorted_card,5,0,5,0,1,PARROT - KASUKU,,,,,,,,,,,,,,,,,,,,,,,,,,,,,,,,,,,,,,,,,,,,,,,,,,,,,,,,,,,,,,,,,,,,,,,,,,,,,,,,
,,,,,,,,,,00001605716,2020-10-31_02h50.06.581,swahili,2020.2.4,MacIntel,60,,,,,,,,,,0.380371094,0.522257537,1,0,1,3.498265,study_pile,6,0,6,0,1,PARROT - KASUKU,,,,,,,,,,,,,,,,,,,,,,,,,,,,,,,,,,,,,,,,,,,,,,,,,,,,,,,,,,,,,,,,,,,,,,,,,,,,,,,,
,,,,,,,,,,00001605716,2020-10-31_02h50.06.581,swahili,2020.2.4,MacIntel,60,,,,,,,,,,0.380371094,0.522257537,0,0,1,0.16348,study_pile,7,0,7,0,1,,,,,,,,,,,,,,,,,,,,,,,,,,,,,,,,,,,,,,,,,,,,,,,,,,,,,,,,,,,,,,,,,,,,,,,,,,,,,,,,,
,,,,,,,,,,00001605716,2020-10-31_02h50.06.581,swahili,2020.2.4,MacIntel,60,,,,,,,,,,-0.330523003,-0.003092646,1,0,1,0.79827,unsorted_card,8,0,8,0,1,,,,,,,,,,,,,,,,,,,,,,,,,,,,,,,,,,,,,,,,,,,,,,,,,,,,,,,,,,,,,,,,,,,,,,,,,,,,,,,,,
,,,,,,,,,,00001605716,2020-10-31_02h50.06.581,swahili,2020.2.4,MacIntel,60,,,,,,,,,,-0.330523003,-0.003092646,0,0,1,0.14775,unsorted_card,9,0,9,0,1,BULL - FAHILI,,,,,,,,,,,,,,,,,,,,,,,,,,,,,,,,,,,,,,,,,,,,,,,,,,,,,,,,,,,,,,,,,,,,,,,,,,,,,,,,
,,,,,,,,,,00001605716,2020-10-31_02h50.06.581,swahili,2020.2.4,MacIntel,60,,,,,,,,,,0.45867513,0.457207293,1,0,1,13.76444,study_pile,10,0,10,0,1,BULL - FAHILI,,,,,,,,,,,,,,,,,,,,,,,,,,,,,,,,,,,,,,,,,,,,,,,,,,,,,,,,,,,,,,,,,,,,,,,,,,,,,,,,
,,,,,,,,,,00001605716,2020-10-31_02h50.06.581,swahili,2020.2.4,MacIntel,60,,,,,,,,,,0.45867513,0.457207293,0,0,1,0.129245,study_pile,11,0,11,0,1,,,,,,,,,,,,,,,,,,,,,,,,,,,,,,,,,,,,,,,,,,,,,,,,,,,,,,,,,,,,,,,,,,,,,,,,,,,,,,,,,
,,,,,,,,,,00001605716,2020-10-31_02h50.06.581,swahili,2020.2.4,MacIntel,60,,,,,,,,,,-0.30227322,-0.105625761,1,0,1,0.650295,unsorted_card,12,0,12,0,1,,,,,,,,,,,,,,,,,,,,,,,,,,,,,,,,,,,,,,,,,,,,,,,,,,,,,,,,,,,,,,,,,,,,,,,,,,,,,,,,,
,,,,,,,,,,00001605716,2020-10-31_02h50.06.581,swahili,2020.2.4,MacIntel,60,,,,,,,,,,-0.30227322,-0.105625761,0,0,1,0.113095,unsorted_card,13,0,13,0,1,PLATE - SAHANI,,,,,,,,,,,,,,,,,,,,,,,,,,,,,,,,,,,,,,,,,,,,,,,,,,,,,,,,,,,,,,,,,,,,,,,,,,,,,,,,
,,,,,,,,,,00001605716,2020-10-31_02h50.06.581,swahili,2020.2.4,MacIntel,60,,,,,,,,,,0.451274957,0.506194808,1,0,1,1.983355,study_pile,14,0,14,0,1,PLATE - SAHANI,,,,,,,,,,,,,,,,,,,,,,,,,,,,,,,,,,,,,,,,,,,,,,,,,,,,,,,,,,,,,,,,,,,,,,,,,,,,,,,,
,,,,,,,,,,00001605716,2020-10-31_02h50.06.581,swahili,2020.2.4,MacIntel,60,,,,,,,,,,0.451274957,0.506194808,0,0,1,0.146435,study_pile,15,0,15,0,1,,,,,,,,,,,,,,,,,,,,,,,,,,,,,,,,,,,,,,,,,,,,,,,,,,,,,,,,,,,,,,,,,,,,,,,,,,,,,,,,,
,,,,,,,,,,00001605716,2020-10-31_02h50.06.581,swahili,2020.2.4,MacIntel,60,,,,,,,,,,-0.476893446,-0.037606577,1,0,1,0.5992,unsorted_card,16,0,16,0,1,,,,,,,,,,,,,,,,,,,,,,,,,,,,,,,,,,,,,,,,,,,,,,,,,,,,,,,,,,,,,,,,,,,,,,,,,,,,,,,,,
,,,,,,,,,,00001605716,2020-10-31_02h50.06.581,swahili,2020.2.4,MacIntel,60,,,,,,,,,,-0.476893446,-0.037606577,0,0,1,0.11415,unsorted_card,17,0,17,0,1,YEAST - HAMIRA,,,,,,,,,,,,,,,,,,,,,,,,,,,,,,,,,,,,,,,,,,,,,,,,,,,,,,,,,,,,,,,,,,,,,,,,,,,,,,,,
,,,,,,,,,,00001605716,2020-10-31_02h50.06.581,swahili,2020.2.4,MacIntel,60,,,,,,,,,,0.462391493,0.569094473,1,0,1,1.49843,study_pile,18,0,18,0,1,YEAST - HAMIRA,,,,,,,,,,,,,,,,,,,,,,,,,,,,,,,,,,,,,,,,,,,,,,,,,,,,,,,,,,,,,,,,,,,,,,,,,,,,,,,,
,,,,,,,,,,00001605716,2020-10-31_02h50.06.581,swahili,2020.2.4,MacIntel,60,,,,,,,,,,0.462391493,0.569094473,0,0,1,0.1124,study_pile,19,0,19,0,1,,,,,,,,,,,,,,,,,,,,,,,,,,,,,,,,,,,,,,,,,,,,,,,,,,,,,,,,,,,,,,,,,,,,,,,,,,,,,,,,,
,,,,,,,,,,00001605716,2020-10-31_02h50.06.581,swahili,2020.2.4,MacIntel,60,,,,,,,,,,-0.328038194,-0.079514312,1,0,1,0.765635,unsorted_card,20,0,20,0,1,,,,,,,,,,,,,,,,,,,,,,,,,,,,,,,,,,,,,,,,,,,,,,,,,,,,,,,,,,,,,,,,,,,,,,,,,,,,,,,,,
,,,,,,,,,,00001605716,2020-10-31_02h50.06.581,swahili,2020.2.4,MacIntel,60,,,,,,,,,,-0.328038194,-0.079514312,0,0,1,0.116445,unsorted_card,21,0,21,0,1,BLAME - LAWAMA,,,,,,,,,,,,,,,,,,,,,,,,,,,,,,,,,,,,,,,,,,,,,,,,,,,,,,,,,,,,,,,,,,,,,,,,,,,,,,,,
,,,,,,,,,,00001605716,2020-10-31_02h50.06.581,swahili,2020.2.4,MacIntel,60,,,,,,,,,,0.495876736,0.541165499,1,0,1,1.61388,study_pile,22,0,22,0,1,BLAME - LAWAMA,,,,,,,,,,,,,,,,,,,,,,,,,,,,,,,,,,,,,,,,,,,,,,,,,,,,,,,,,,,,,,,,,,,,,,,,,,,,,,,,
,,,,,,,,,,00001605716,2020-10-31_02h50.06.581,swahili,2020.2.4,MacIntel,60,,,,,,,,,,0.495876736,0.541165499,0,0,1,0.115005,study_pile,23,0,23,0,1,,,,,,,,,,,,,,,,,,,,,,,,,,,,,,,,,,,,,,,,,,,,,,,,,,,,,,,,,,,,,,,,,,,,,,,,,,,,,,,,,
,,,,,,,,,,00001605716,2020-10-31_02h50.06.581,swahili,2020.2.4,MacIntel,60,,,,,,,,,,-0.275271267,0.056200518,1,0,1,0.64747,unsorted_card,24,0,24,0,1,,,,,,,,,,,,,,,,,,,,,,,,,,,,,,,,,,,,,,,,,,,,,,,,,,,,,,,,,,,,,,,,,,,,,,,,,,,,,,,,,
,,,,,,,,,,00001605716,2020-10-31_02h50.06.581,swahili,2020.2.4,MacIntel,60,,,,,,,,,,-0.275271267,0.056200518,0,0,1,0.116315,unsorted_card,25,0,25,0,1,OATH - YAMINI,,,,,,,,,,,,,,,,,,,,,,,,,,,,,,,,,,,,,,,,,,,,,,,,,,,,,,,,,,,,,,,,,,,,,,,,,,,,,,,,
,,,,,,,,,,00001605716,2020-10-31_02h50.06.581,swahili,2020.2.4,MacIntel,60,,,,,,,,,,0.34524197,0.389578258,1,0,1,4.415135,study_pile,26,0,26,0,1,OATH - YAMINI,,,,,,,,,,,,,,,,,,,,,,,,,,,,,,,,,,,,,,,,,,,,,,,,,,,,,,,,,,,,,,,,,,,,,,,,,,,,,,,,
,,,,,,,,,,00001605716,2020-10-31_02h50.06.581,swahili,2020.2.4,MacIntel,60,,,,,,,,,,0.34524197,0.389578258,0,0,1,0.14729,study_pile,27,0,27,0,1,,,,,,,,,,,,,,,,,,,,,,,,,,,,,,,,,,,,,,,,,,,,,,,,,,,,,,,,,,,,,,,,,,,,,,,,,,,,,,,,,
,,,,,,,,,,00001605716,2020-10-31_02h50.06.581,swahili,2020.2.4,MacIntel,60,,,,,,,,,,-0.320784505,-0.122649589,1,0,1,0.614185,unsorted_card,28,0,28,0,1,,,,,,,,,,,,,,,,,,,,,,,,,,,,,,,,,,,,,,,,,,,,,,,,,,,,,,,,,,,,,,,,,,,,,,,,,,,,,,,,,
,,,,,,,,,,00001605716,2020-10-31_02h50.06.581,swahili,2020.2.4,MacIntel,60,,,,,,,,,,-0.320784505,-0.122649589,0,0,1,0.131175,unsorted_card,29,0,29,0,1,CORN - NAFAKA,,,,,,,,,,,,,,,,,,,,,,,,,,,,,,,,,,,,,,,,,,,,,,,,,,,,,,,,,,,,,,,,,,,,,,,,,,,,,,,,
,,,,,,,,,,00001605716,2020-10-31_02h50.06.581,swahili,2020.2.4,MacIntel,60,,,,,,,,,,0.539816623,0.474954324,1,0,1,14.048465,study_pile,30,0,30,0,1,CORN - NAFAKA,,,,,,,,,,,,,,,,,,,,,,,,,,,,,,,,,,,,,,,,,,,,,,,,,,,,,,,,,,,,,,,,,,,,,,,,,,,,,,,,
,,,,,,,,,,00001605716,2020-10-31_02h50.06.581,swahili,2020.2.4,MacIntel,60,,,,,,,,,,0.539816623,0.474954324,0,0,1,0.16398,study_pile,31,0,31,0,1,,,,,,,,,,,,,,,,,,,,,,,,,,,,,,,,,,,,,,,,,,,,,,,,,,,,,,,,,,,,,,,,,,,,,,,,,,,,,,,,,
,,,,,,,,,,00001605716,2020-10-31_02h50.06.581,swahili,2020.2.4,MacIntel,60,,,,,,,,,,-0.224804687,0.086070722,1,0,1,0.69803,unsorted_card,32,0,32,0,1,,,,,,,,,,,,,,,,,,,,,,,,,,,,,,,,,,,,,,,,,,,,,,,,,,,,,,,,,,,,,,,,,,,,,,,,,,,,,,,,,
,,,,,,,,,,00001605716,2020-10-31_02h50.06.581,swahili,2020.2.4,MacIntel,60,,,,,,,,,,-0.224804687,0.086070722,0,0,1,0.147815,unsorted_card,33,0,33,0,1,POEM - UTENZI,,,,,,,,,,,,,,,,,,,,,,,,,,,,,,,,,,,,,,,,,,,,,,,,,,,,,,,,,,,,,,,,,,,,,,,,,,,,,,,,
,,,,,,,,,,00001605716,2020-10-31_02h50.06.581,swahili,2020.2.4,MacIntel,60,,,,,,,,,,0.47258572,0.518403624,1,0,1,14.05025,study_pile,34,0,34,0,1,POEM - UTENZI,,,,,,,,,,,,,,,,,,,,,,,,,,,,,,,,,,,,,,,,,,,,,,,,,,,,,,,,,,,,,,,,,,,,,,,,,,,,,,,,
,,,,,,,,,,00001605716,2020-10-31_02h50.06.581,swahili,2020.2.4,MacIntel,60,,,,,,,,,,0.47258572,0.518403624,0,0,1,0.096525,study_pile,35,0,35,0,1,,,,,,,,,,,,,,,,,,,,,,,,,,,,,,,,,,,,,,,,,,,,,,,,,,,,,,,,,,,,,,,,,,,,,,,,,,,,,,,,,
,,,,,,,,,,00001605716,2020-10-31_02h50.06.581,swahili,2020.2.4,MacIntel,60,,,,,,,,,,-0.595182292,0.007232034,1,0,1,0.864815,unsorted_card,36,0,36,0,1,,,,,,,,,,,,,,,,,,,,,,,,,,,,,,,,,,,,,,,,,,,,,,,,,,,,,,,,,,,,,,,,,,,,,,,,,,,,,,,,,
,,,,,,,,,,00001605716,2020-10-31_02h50.06.581,swahili,2020.2.4,MacIntel,60,,,,,,,,,,-0.595182292,0.007232034,0,0,1,0.113215,unsorted_card,37,0,37,0,1,TAILOR - MSHONI,,,,,,,,,,,,,,,,,,,,,,,,,,,,,,,,,,,,,,,,,,,,,,,,,,,,,,,,,,,,,,,,,,,,,,,,,,,,,,,,
,,,,,,,,,,00001605716,2020-10-31_02h50.06.581,swahili,2020.2.4,MacIntel,60,,,,,,,,,,0.453417969,0.572929354,1,0,1,15.51746,study_pile,38,0,38,0,1,TAILOR - MSHONI,,,,,,,,,,,,,,,,,,,,,,,,,,,,,,,,,,,,,,,,,,,,,,,,,,,,,,,,,,,,,,,,,,,,,,,,,,,,,,,,
,,,,,,,,,,00001605716,2020-10-31_02h50.06.581,swahili,2020.2.4,MacIntel,60,,,,,,,,,,0.453417969,0.572929354,0,0,1,0.11259,study_pile,39,0,39,0,1,,,,,,,,,,,,,,,,,,,,,,,,,,,,,,,,,,,,,,,,,,,,,,,,,,,,,,,,,,,,,,,,,,,,,,,,,,,,,,,,,
,,,,,,,,,,00001605716,2020-10-31_02h50.06.581,swahili,2020.2.4,MacIntel,60,,,,,,,,,,-0.566943359,-0.056200518,1,0,1,0.648575,unsorted_card,40,0,40,0,1,,,,,,,,,,,,,,,,,,,,,,,,,,,,,,,,,,,,,,,,,,,,,,,,,,,,,,,,,,,,,,,,,,,,,,,,,,,,,,,,,
,,,,,,,,,,00001605716,2020-10-31_02h50.06.581,swahili,2020.2.4,MacIntel,60,,,,,,,,,,-0.566943359,-0.056200518,0,0,1,0.07895,unsorted_card,41,0,41,0,1,CHEESE - JIBINI,,,,,,,,,,,,,,,,,,,,,,,,,,,,,,,,,,,,,,,,,,,,,,,,,,,,,,,,,,,,,,,,,,,,,,,,,,,,,,,,
,,,,,,,,,,00001605716,2020-10-31_02h50.06.581,swahili,2020.2.4,MacIntel,60,,,,,,,,,,0.409499783,0.457273904,1,0,1,11.634185,study_pile,42,0,42,0,1,CHEESE - JIBINI,,,,,,,,,,,,,,,,,,,,,,,,,,,,,,,,,,,,,,,,,,,,,,,,,,,,,,,,,,,,,,,,,,,,,,,,,,,,,,,,
,,,,,,,,,,00001605716,2020-10-31_02h50.06.581,swahili,2020.2.4,MacIntel,60,,,,,,,,,,0.409499783,0.457273904,0,0,1,0.062695,study_pile,43,0,43,0,1,,,,,,,,,,,,,,,,,,,,,,,,,,,,,,,,,,,,,,,,,,,,,,,,,,,,,,,,,,,,,,,,,,,,,,,,,,,,,,,,,
,,,,,,,,,,00001605716,2020-10-31_02h50.06.581,swahili,2020.2.4,MacIntel,60,,,,,,,,,,-0.444308811,-0.043030603,1,0,1,0.833235,unsorted_card,44,0,44,0,1,,,,,,,,,,,,,,,,,,,,,,,,,,,,,,,,,,,,,,,,,,,,,,,,,,,,,,,,,,,,,,,,,,,,,,,,,,,,,,,,,
,,,,,,,,,,00001605716,2020-10-31_02h50.06.581,swahili,2020.2.4,MacIntel,60,,,,,,,,,,-0.444308811,-0.043030603,0,0,1,0.13074,unsorted_card,45,0,45,0,1,GRAPES - ZABIBU,,,,,,,,,,,,,,,,,,,,,,,,,,,,,,,,,,,,,,,,,,,,,,,,,,,,,,,,,,,,,,,,,,,,,,,,,,,,,,,,
,,,,,,,,,,00001605716,2020-10-31_02h50.06.581,swahili,2020.2.4,MacIntel,60,,,,,,,,,,0.519032118,0.510448386,1,0,1,11.63127,study_pile,46,0,46,0,1,GRAPES - ZABIBU,,,,,,,,,,,,,,,,,,,,,,,,,,,,,,,,,,,,,,,,,,,,,,,,,,,,,,,,,,,,,,,,,,,,,,,,,,,,,,,,
,,,,,,,,,,00001605716,2020-10-31_02h50.06.581,swahili,2020.2.4,MacIntel,60,,,,,,,,,,0.519032118,0.510448386,0,0,1,0.08002,study_pile,47,0,47,0,1,,,,,,,,,,,,,,,,,,,,,,,,,,,,,,,,,,,,,,,,,,,,,,,,,,,,,,,,,,,,,,,,,,,,,,,,,,,,,,,,,
,,,,,,,,,,00001605716,2020-10-31_02h50.06.581,swahili,2020.2.4,MacIntel,60,,,,,,,,,,-0.566227214,-0.002502664,1,0,1,0.83349,unsorted_card,48,0,48,0,1,,,,,,,,,,,,,,,,,,,,,,,,,,,,,,,,,,,,,,,,,,,,,,,,,,,,,,,,,,,,,,,,,,,,,,,,,,,,,,,,,
,,,,,,,,,,00001605716,2020-10-31_02h50.06.581,swahili,2020.2.4,MacIntel,60,,,,,,,,,,-0.566227214,-0.002502664,0,0,1,0.09672,unsorted_card,49,0,49,0,1,GRAVE - KABURI,,,,,,,,,,,,,,,,,,,,,,,,,,,,,,,,,,,,,,,,,,,,,,,,,,,,,,,,,,,,,,,,,,,,,,,,,,,,,,,,
,,,,,,,,,,00001605716,2020-10-31_02h50.06.581,swahili,2020.2.4,MacIntel,60,,,,,,,,,,0.373795573,0.459091428,1,0,1,10.581815,study_pile,50,0,50,0,1,GRAVE - KABURI,,,,,,,,,,,,,,,,,,,,,,,,,,,,,,,,,,,,,,,,,,,,,,,,,,,,,,,,,,,,,,,,,,,,,,,,,,,,,,,,
,,,,,,,,,,00001605716,2020-10-31_02h50.06.581,swahili,2020.2.4,MacIntel,60,,,,,,,,,,0.373795573,0.459091428,0,0,1,0.14707,study_pile,51,0,51,0,1,,,,,,,,,,,,,,,,,,,,,,,,,,,,,,,,,,,,,,,,,,,,,,,,,,,,,,,,,,,,,,,,,,,,,,,,,,,,,,,,,
,,,,,,,,,,00001605716,2020-10-31_02h50.06.581,swahili,2020.2.4,MacIntel,60,,,,,,,,,,-0.542941623,-0.12808313,1,0,1,0.81547,unsorted_card,52,0,52,0,1,,,,,,,,,,,,,,,,,,,,,,,,,,,,,,,,,,,,,,,,,,,,,,,,,,,,,,,,,,,,,,,,,,,,,,,,,,,,,,,,,
,,,,,,,,,,00001605716,2020-10-31_02h50.06.581,swahili,2020.2.4,MacIntel,60,,,,,,,,,,-0.542941623,-0.12808313,0,0,1,0.113035,unsorted_card,53,0,53,0,1,MANURE - SAMADI,,,,,,,,,,,,,,,,,,,,,,,,,,,,,,,,,,,,,,,,,,,,,,,,,,,,,,,,,,,,,,,,,,,,,,,,,,,,,,,,
,,,,,,,,,,00001605716,2020-10-31_02h50.06.581,swahili,2020.2.4,MacIntel,60,,,,,,,,,,0.497667101,0.412987211,1,0,1,7.550175,study_pile,54,0,54,0,1,MANURE - SAMADI,,,,,,,,,,,,,,,,,,,,,,,,,,,,,,,,,,,,,,,,,,,,,,,,,,,,,,,,,,,,,,,,,,,,,,,,,,,,,,,,
,,,,,,,,,,00001605716,2020-10-31_02h50.06.581,swahili,2020.2.4,MacIntel,60,,,,,,,,,,0.497667101,0.412987211,0,0,1,0.147535,study_pile,55,0,55,0,1,,,,,,,,,,,,,,,,,,,,,,,,,,,,,,,,,,,,,,,,,,,,,,,,,,,,,,,,,,,,,,,,,,,,,,,,,,,,,,,,,
,,,,,,,,,,00001605716,2020-10-31_02h50.06.581,swahili,2020.2.4,MacIntel,60,,,,,,,,,,-0.243359375,-0.052346605,1,0,1,1.4478,unsorted_card,56,0,56,0,1,,,,,,,,,,,,,,,,,,,,,,,,,,,,,,,,,,,,,,,,,,,,,,,,,,,,,,,,,,,,,,,,,,,,,,,,,,,,,,,,,
,,,,,,,,,,00001605716,2020-10-31_02h50.06.581,swahili,2020.2.4,MacIntel,60,,,,,,,,,,-0.243359375,-0.052346605,0,0,1,0.12987,unsorted_card,57,0,57,0,1,AGENT - WAKILI,,,,,,,,,,,,,,,,,,,,,,,,,,,,,,,,,,,,,,,,,,,,,,,,,,,,,,,,,,,,,,,,,,,,,,,,,,,,,,,,
,,,,,,,,,,00001605716,2020-10-31_02h50.06.581,swahili,2020.2.4,MacIntel,60,,,,,,,,,,0.357383898,0.381537378,1,0,1,15.066455,study_pile,58,0,58,0,1,AGENT - WAKILI,,,,,,,,,,,,,,,,,,,,,,,,,,,,,,,,,,,,,,,,,,,,,,,,,,,,,,,,,,,,,,,,,,,,,,,,,,,,,,,,
,,,,,,,,,,00001605716,2020-10-31_02h50.06.581,swahili,2020.2.4,MacIntel,60,,,,,,,,,,0.357383898,0.381537378,0,0,1,0.12986,study_pile,59,0,59,0,1,,,,,,,,,,,,,,,,,,,,,,,,,,,,,,,,,,,,,,,,,,,,,,,,,,,,,,,,,,,,,,,,,,,,,,,,,,,,,,,,,
,,,,,,,,,,00001605716,2020-10-31_02h50.06.581,swahili,2020.2.4,MacIntel,60,,,,,,,,,,-0.452023655,-0.077135353,1,0,1,0.41547,unsorted_card,60,0,60,0,1,,,,,,,,,,,,,,,,,,,,,,,,,,,,,,,,,,,,,,,,,,,,,,,,,,,,,,,,,,,,,,,,,,,,,,,,,,,,,,,,,
,,,,,,,,,,00001605716,2020-10-31_02h50.06.581,swahili,2020.2.4,MacIntel,60,,,,,,,,,,-0.452023655,-0.077135353,0,0,1,0.09695,unsorted_card,61,0,61,0,1,BRIBE - RUSHWA,,,,,,,,,,,,,,,,,,,,,,,,,,,,,,,,,,,,,,,,,,,,,,,,,,,,,,,,,,,,,,,,,,,,,,,,,,,,,,,,
,,,,,,,,,,00001605716,2020-10-31_02h50.06.581,swahili,2020.2.4,MacIntel,60,,,,,,,,,,0.338264974,0.392651873,1,0,1,9.615945,study_pile,62,0,62,0,1,BRIBE - RUSHWA,,,,,,,,,,,,,,,,,,,,,,,,,,,,,,,,,,,,,,,,,,,,,,,,,,,,,,,,,,,,,,,,,,,,,,,,,,,,,,,,
,,,,,,,,,,00001605716,2020-10-31_02h50.06.581,swahili,2020.2.4,MacIntel,60,,,,,,,,,,0.338264974,0.392651873,0,0,1,0.09621,study_pile,63,0,63,0,1,,,,,,,,,,,,,,,,,,,,,,,,,,,,,,,,,,,,,,,,,,,,,,,,,,,,,,,,,,,,,,,,,,,,,,,,,,,,,,,,,
,,,,,,,,,,00001605716,2020-10-31_02h50.06.581,swahili,2020.2.4,MacIntel,60,,,,,,,,,,-0.277815755,-0.050957293,1,0,1,0.58308,unsorted_card,64,0,64,0,1,,,,,,,,,,,,,,,,,,,,,,,,,,,,,,,,,,,,,,,,,,,,,,,,,,,,,,,,,,,,,,,,,,,,,,,,,,,,,,,,,
,,,,,,,,,,00001605716,2020-10-31_02h50.06.581,swahili,2020.2.4,MacIntel,60,,,,,,,,,,-0.277815755,-0.050957293,0,0,1,0.06309,unsorted_card,65,0,65,0,1,ORPHAN - YATIMA,,,,,,,,,,,,,,,,,,,,,,,,,,,,,,,,,,,,,,,,,,,,,,,,,,,,,,,,,,,,,,,,,,,,,,,,,,,,,,,,
,,,,,,,,,,00001605716,2020-10-31_02h50.06.581,swahili,2020.2.4,MacIntel,60,,,,,,,,,,0.496050347,0.563822701,1,0,1,8.431505,study_pile,66,0,66,0,1,ORPHAN - YATIMA,,,,,,,,,,,,,,,,,,,,,,,,,,,,,,,,,,,,,,,,,,,,,,,,,,,,,,,,,,,,,,,,,,,,,,,,,,,,,,,,
,,,,,,,,,,00001605716,2020-10-31_02h50.06.581,swahili,2020.2.4,MacIntel,60,,,,,,,,,,0.496050347,0.563822701,0,0,1,0.0799,study_pile,67,0,67,0,1,,,,,,,,,,,,,,,,,,,,,,,,,,,,,,,,,,,,,,,,,,,,,,,,,,,,,,,,,,,,,,,,,,,,,,,,,,,,,,,,,
,,,,,,,,,,00001605716,2020-10-31_02h50.06.581,swahili,2020.2.4,MacIntel,60,,,,,,,,,,-0.457020399,-0.182190164,1,0,1,0.716785,unsorted_card,68,0,68,0,1,,,,,,,,,,,,,,,,,,,,,,,,,,,,,,,,,,,,,,,,,,,,,,,,,,,,,,,,,,,,,,,,,,,,,,,,,,,,,,,,,
,,,,,,,,,,00001605716,2020-10-31_02h50.06.581,swahili,2020.2.4,MacIntel,60,,,,,,,,,,-0.457020399,-0.182190164,0,0,1,0.11404,unsorted_card,69,0,69,0,1,DIVORCE - TALAKA,,,,,,,,,,,,,,,,,,,,,,,,,,,,,,,,,,,,,,,,,,,,,,,,,,,,,,,,,,,,,,,,,,,,,,,,,,,,,,,,
,,,,,,,,,,00001605716,2020-10-31_02h50.06.581,swahili,2020.2.4,MacIntel,60,,,,,,,,,,0.451394314,0.439422199,1,0,1,4.53167,study_pile,70,0,70,0,1,DIVORCE - TALAKA,,,,,,,,,,,,,,,,,,,,,,,,,,,,,,,,,,,,,,,,,,,,,,,,,,,,,,,,,,,,,,,,,,,,,,,,,,,,,,,,
,,,,,,,,,,00001605716,2020-10-31_02h50.06.581,swahili,2020.2.4,MacIntel,60,,,,,,,,,,0.451394314,0.439422199,0,0,1,0.130755,study_pile,71,0,71,0,1,,,,,,,,,,,,,,,,,,,,,,,,,,,,,,,,,,,,,,,,,,,,,,,,,,,,,,,,,,,,,,,,,,,,,,,,,,,,,,,,,
,,,,,,,,,,00001605716,2020-10-31_02h50.06.581,swahili,2020.2.4,MacIntel,60,,,,,,,,,,-0.528873698,-0.252493149,1,0,1,0.597725,unsorted_card,72,0,72,0,1,,,,,,,,,,,,,,,,,,,,,,,,,,,,,,,,,,,,,,,,,,,,,,,,,,,,,,,,,,,,,,,,,,,,,,,,,,,,,,,,,
,,,,,,,,,,00001605716,2020-10-31_02h50.06.581,swahili,2020.2.4,MacIntel,60,,,,,,,,,,-0.453173828,-0.120489495,0,0,1,0.079945,unsorted_card,73,0,73,0,1,BOAT - MASHUA,,,,,,,,,,,,,,,,,,,,,,,,,,,,,,,,,,,,,,,,,,,,,,,,,,,,,,,,,,,,,,,,,,,,,,,,,,,,,,,,
,,,,,,,,,,00001605716,2020-10-31_02h50.06.581,swahili,2020.2.4,MacIntel,60,,,,,,,,,,0.52594401,0.533923949,1,0,1,18.564625,study_pile,74,0,74,0,1,BOAT - MASHUA,,,,,,,,,,,,,,,,,,,,,,,,,,,,,,,,,,,,,,,,,,,,,,,,,,,,,,,,,,,,,,,,,,,,,,,,,,,,,,,,
,,,,,,,,,,00001605716,2020-10-31_02h50.06.581,swahili,2020.2.4,MacIntel,60,,,,,,,,,,0.52594401,0.533923949,0,0,1,0.079655,study_pile,75,0,75,0,1,,,,,,,,,,,,,,,,,,,,,,,,,,,,,,,,,,,,,,,,,,,,,,,,,,,,,,,,,,,,,,,,,,,,,,,,,,,,,,,,,
,,,,,,,,,,00001605716,2020-10-31_02h50.06.581,swahili,2020.2.4,MacIntel,60,,,,,,,,,,-0.504014757,0.044029766,1,0,1,0.65123,unsorted_card,76,0,76,0,1,,,,,,,,,,,,,,,,,,,,,,,,,,,,,,,,,,,,,,,,,,,,,,,,,,,,,,,,,,,,,,,,,,,,,,,,,,,,,,,,,
,,,,,,,,,,00001605716,2020-10-31_02h50.06.581,swahili,2020.2.4,MacIntel,60,,,,,,,,,,-0.504014757,0.044029766,0,0,1,0.064205,unsorted_card,77,0,77,0,1,TREASURE - DAFINA,,,,,,,,,,,,,,,,,,,,,,,,,,,,,,,,,,,,,,,,,,,,,,,,,,,,,,,,,,,,,,,,,,,,,,,,,,,,,,,,
,,,,,,,,,,00001605716,2020-10-31_02h50.06.581,swahili,2020.2.4,MacIntel,60,,,,,,,,,,0.401182726,0.427765301,1,0,1,2.88038,study_pile,78,0,78,0,1,TREASURE - DAFINA,,,,,,,,,,,,,,,,,,,,,,,,,,,,,,,,,,,,,,,,,,,,,,,,,,,,,,,,,,,,,,,,,,,,,,,,,,,,,,,,
,,,,,,,,,,00001605716,2020-10-31_02h50.06.581,swahili,2020.2.4,MacIntel,60,,,,,,,,,,,,,,,,,,,,,,CHEESE - JIBINI,,,,,,,,return,10.80112,return,17.11192,0,0,0,0,1,,,,,,,,,,,,,,,,,,,,,,,,,,,,,,,,,,,,,,,,,,,,,,,,,,,,,,,,,,,,,,,,
,,,,,,,,,,00001605716,2020-10-31_02h50.06.581,swahili,2020.2.4,MacIntel,60,,,,,,,,,,,,,,,,,,,,,,DIVORCE - TALAKA,,,,,,,,,,return,7.95445,1,0,1,0,1,,,,,,,,,,,,,,,,,,,,,,,,,,,,,,,,,,,,,,,,,,,,,,,,,,,,,,,,,,,,,,,,
,,,,,,,,,,00001605716,2020-10-31_02h50.06.581,swahili,2020.2.4,MacIntel,60,,,,,,,,,,,,,,,,,,,,,,BLAME - LAWAMA,,,,,,,,,,return,24.289315,2,0,2,0,1,,,,,,,,,,,,,,,,,,,,,,,,,,,,,,,,,,,,,,,,,,,,,,,,,,,,,,,,,,,,,,,,
,,,,,,,,,,00001605716,2020-10-31_02h50.06.581,swahili,2020.2.4,MacIntel,60,,,,,,,,,,,,,,,,,,,,,,TREASURE - DAFINA,,,,,,,,,,return,21.057465,3,0,3,0,1,,,,,,,,,,,,,,,,,,,,,,,,,,,,,,,,,,,,,,,,,,,,,,,,,,,,,,,,,,,,,,,,
,,,,,,,,,,00001605716,2020-10-31_02h50.06.581,swahili,2020.2.4,MacIntel,60,,,,,,,,,,,,,,,,,,,,,,POEM - UTENZI,,,,,,,,,,return,6.963875,4,0,4,0,1,,,,,,,,,,,,,,,,,,,,,,,,,,,,,,,,,,,,,,,,,,,,,,,,,,,,,,,,,,,,,,,,
,,,,,,,,,,00001605716,2020-10-31_02h50.06.581,swahili,2020.2.4,MacIntel,60,,,,,,,,,,,,,,,,,,,,,,GRAPES - ZABIBU,,,,,,,,,,return,10.233655,5,0,5,0,1,,,,,,,,,,,,,,,,,,,,,,,,,,,,,,,,,,,,,,,,,,,,,,,,,,,,,,,,,,,,,,,,
,,,,,,,,,,00001605716,2020-10-31_02h50.06.581,swahili,2020.2.4,MacIntel,60,,,,,,,,,,,,,,,,,,,,,,TAILOR - MSHONI,,,,,,,,,,return,6.30022,6,0,6,0,1,,,,,,,,,,,,,,,,,,,,,,,,,,,,,,,,,,,,,,,,,,,,,,,,,,,,,,,,,,,,,,,,
,,,,,,,,,,00001605716,2020-10-31_02h50.06.581,swahili,2020.2.4,MacIntel,60,,,,,,,,,,,,,,,,,,,,,,CORN - NAFAKA,,,,,,,,,,return,1.964935,7,0,7,0,1,,,,,,,,,,,,,,,,,,,,,,,,,,,,,,,,,,,,,,,,,,,,,,,,,,,,,,,,,,,,,,,,
,,,,,,,,,,00001605716,2020-10-31_02h50.06.581,swahili,2020.2.4,MacIntel,60,,,,,,,,,,,,,,,,,,,,,,MERCHANT - TAJIRI,,,,,,,,,,return,11.83552,8,0,8,0,1,,,,,,,,,,,,,,,,,,,,,,,,,,,,,,,,,,,,,,,,,,,,,,,,,,,,,,,,,,,,,,,,
,,,,,,,,,,00001605716,2020-10-31_02h50.06.581,swahili,2020.2.4,MacIntel,60,,,,,,,,,,,,,,,,,,,,,,PARROT - KASUKU,,,,,,,,,,return,10.99278,9,0,9,0,1,,,,,,,,,,,,,,,,,,,,,,,,,,,,,,,,,,,,,,,,,,,,,,,,,,,,,,,,,,,,,,,,
,,,,,,,,,,00001605716,2020-10-31_02h50.06.581,swahili,2020.2.4,MacIntel,60,,,,,,,,,,,,,,,,,,,,,,GRAVE - KABURI,,,,,,,,,,return,10.05149,10,0,10,0,1,,,,,,,,,,,,,,,,,,,,,,,,,,,,,,,,,,,,,,,,,,,,,,,,,,,,,,,,,,,,,,,,
,,,,,,,,,,00001605716,2020-10-31_02h50.06.581,swahili,2020.2.4,MacIntel,60,,,,,,,,,,,,,,,,,,,,,,BOAT - MASHUA,,,,,,,,,,return,7.33267,11,0,11,0,1,,,,,,,,,,,,,,,,,,,,,,,,,,,,,,,,,,,,,,,,,,,,,,,,,,,,,,,,,,,,,,,,
,,,,,,,,,,00001605716,2020-10-31_02h50.06.581,swahili,2020.2.4,MacIntel,60,,,,,,,,,,,,,,,,,,,,,,ORPHAN - YATIMA,,,,,,,,,,return,8.74636,12,0,12,0,1,,,,,,,,,,,,,,,,,,,,,,,,,,,,,,,,,,,,,,,,,,,,,,,,,,,,,,,,,,,,,,,,
,,,,,,,,,,00001605716,2020-10-31_02h50.06.581,swahili,2020.2.4,MacIntel,60,,,,,,,,,,,,,,,,,,,,,,YEAST - HAMIRA,,,,,,,,,,return,38.450905,13,0,13,0,1,,,,,,,,,,,,,,,,,,,,,,,,,,,,,,,,,,,,,,,,,,,,,,,,,,,,,,,,,,,,,,,,
,,,,,,,,,,00001605716,2020-10-31_02h50.06.581,swahili,2020.2.4,MacIntel,60,,,,,,,,,,,,,,,,,,,,,,PLATE - SAHANI,,,,,,,,,,return,23.92454,14,0,14,0,1,,,,,,,,,,,,,,,,,,,,,,,,,,,,,,,,,,,,,,,,,,,,,,,,,,,,,,,,,,,,,,,,
,,,,,,,,,,00001605716,2020-10-31_02h50.06.581,swahili,2020.2.4,MacIntel,60,,,,,,,,,,,,,,,,,,,,,,AGENT - WAKILI,,,,,,,,,,return,6.76524,15,0,15,0,1,,,,,,,,,,,,,,,,,,,,,,,,,,,,,,,,,,,,,,,,,,,,,,,,,,,,,,,,,,,,,,,,
,,,,,,,,,,00001605716,2020-10-31_02h50.06.581,swahili,2020.2.4,MacIntel,60,,,,,,,,,,,,,,,,,,,,,,OATH - YAMINI,,,,,,,,,,return,9.58009,16,0,16,0,1,,,,,,,,,,,,,,,,,,,,,,,,,,,,,,,,,,,,,,,,,,,,,,,,,,,,,,,,,,,,,,,,
,,,,,,,,,,00001605716,2020-10-31_02h50.06.581,swahili,2020.2.4,MacIntel,60,,,,,,,,,,,,,,,,,,,,,,MANURE - SAMADI,,,,,,,,,,return,9.302535,17,0,17,0,1,,,,,,,,,,,,,,,,,,,,,,,,,,,,,,,,,,,,,,,,,,,,,,,,,,,,,,,,,,,,,,,,
,,,,,,,,,,00001605716,2020-10-31_02h50.06.581,swahili,2020.2.4,MacIntel,60,,,,,,,,,,,,,,,,,,,,,,BRIBE - RUSHWA,,,,,,,,,,return,3.246845,18,0,18,0,1,,,,,,,,,,,,,,,,,,,,,,,,,,,,,,,,,,,,,,,,,,,,,,,,,,,,,,,,,,,,,,,,
,,,,,,,,,,00001605716,2020-10-31_02h50.06.581,swahili,2020.2.4,MacIntel,60,,,,,,,,,,,,,,,,,,,,,,BULL - FAHILI,,,,,,,,,,return,29.159715,19,0,19,0,1,,,,,,,,,,,,,,,,,,,,,,,,,,,,,,,,,,,,,,,,,,,,,,,,,,,,,,,,,,,,,,,,
,,,,,,,,,,00001605716,2020-10-31_02h50.06.581,swahili,2020.2.4,MacIntel,60,,,,,,,,,,,,,,,,,,,,,,,,,,,,,,,,,,,,,,,,0,0,0,0,1,,,,,,,,,,,,,,,,,,,,,,,,,,,,,,,,,,,,,,,,,,,,,,,,,,,,,,,,,,
,,,,,,,,,,00001605716,2020-10-31_02h50.06.581,swahili,2020.2.4,MacIntel,60,,,,,,,,,,,,,,,,,,,,,,,,,,,,,,,,,,,,,,,,1,0,1,0,1,,,,,,,,,,,,,,,,,,,,,,,,,,,,,,,,,,,,,,,,,,,,,,,,,,,,,,,,,,
,,,,,,,,,,00001605716,2020-10-31_02h50.06.581,swahili,2020.2.4,MacIntel,60,,,,,,,,,,,,,,,,,,,,,,,,,,,,,,,,,,,,,,,,,,,,,0,0,0,0,1,,,,,,,,,,,,,,,,,,,,,,,,,,,,,,,,,,,,,,,,,,,,,,,,,,,,,
,,,,,,,,,,00001605716,2020-10-31_02h50.06.581,swahili,2020.2.4,MacIntel,60,,,,,,,,,,-0.323659939,0.001722366,1,0,1,5.382905,unsorted_card,0,0,0,0,1,,,,,,,,,,,,,,,,,,,,,,,,,,,,,,,,,,,,,,,,,,,,,,,,,,,,,,,,,,,,,,,,,,,,,,,,,,,,,,,,,
,,,,,,,,,,00001605716,2020-10-31_02h50.06.581,swahili,2020.2.4,MacIntel,60,,,,,,,,,,-0.323659939,0.001722366,0,0,1,0.15953,unsorted_card,1,0,1,0,1,MERCHANT - TAJIRI,,,,,,,,,,,,,,,,,,,,,,,,,,,,,,,,,,,,,,,,,,,,,,,,,,,,,,,,,,,,,,,,,,,,,,,,,,,,,,,,
,,,,,,,,,,00001605716,2020-10-31_02h50.06.581,swahili,2020.2.4,MacIntel,60,,,,,,,,,,-0.349761285,0.046285018,1,0,1,2.90098,unsorted_card,2,0,2,0,1,MERCHANT - TAJIRI,,,,,,,,,,,,,,,,,,,,,,,,,,,,,,,,,,,,,,,,,,,,,,,,,,,,,,,,,,,,,,,,,,,,,,,,,,,,,,,,
,,,,,,,,,,00001605716,2020-10-31_02h50.06.581,swahili,2020.2.4,MacIntel,60,,,,,,,,,,-0.166894531,0.241197853,0,0,1,0.781845,unsorted_card,3,0,3,0,1,MERCHANT - TAJIRI,,,,,,,,,,,,,,,,,,,,,,,,,,,,,,,,,,,,,,,,,,,,,,,,,,,,,,,,,,,,,,,,,,,,,,,,,,,,,,,,
,,,,,,,,,,00001605716,2020-10-31_02h50.06.581,swahili,2020.2.4,MacIntel,60,,,,,,,,,,0.417355686,0.548349954,1,0,1,4.21391,study_pile,4,0,4,0,1,MERCHANT - TAJIRI,,,,,,,,,,,,,,,,,,,,,,,,,,,,,,,,,,,,,,,,,,,,,,,,,,,,,,,,,,,,,,,,,,,,,,,,,,,,,,,,
,,,,,,,,,,00001605716,2020-10-31_02h50.06.581,swahili,2020.2.4,MacIntel,60,,,,,,,,,,0.417355686,0.548349954,0,0,1,0.147255,study_pile,5,0,5,0,1,,,,,,,,,,,,,,,,,,,,,,,,,,,,,,,,,,,,,,,,,,,,,,,,,,,,,,,,,,,,,,,,,,,,,,,,,,,,,,,,,
,,,,,,,,,,00001605716,2020-10-31_02h50.06.581,swahili,2020.2.4,MacIntel,60,,,,,,,,,,-0.25553928,0.047065317,1,0,1,0.8659,unsorted_card,6,0,6,0,1,,,,,,,,,,,,,,,,,,,,,,,,,,,,,,,,,,,,,,,,,,,,,,,,,,,,,,,,,,,,,,,,,,,,,,,,,,,,,,,,,
,,,,,,,,,,00001605716,2020-10-31_02h50.06.581,swahili,2020.2.4,MacIntel,60,,,,,,,,,,-0.25553928,0.047065317,0,0,1,0.114215,unsorted_card,7,0,7,0,1,PARROT - KASUKU,,,,,,,,,,,,,,,,,,,,,,,,,,,,,,,,,,,,,,,,,,,,,,,,,,,,,,,,,,,,,,,,,,,,,,,,,,,,,,,,
,,,,,,,,,,00001605716,2020-10-31_02h50.06.581,swahili,2020.2.4,MacIntel,60,,,,,,,,,,0.437147352,-0.004948234,1,0,1,1.64678,test_pile,8,0,8,0,1,PARROT - KASUKU,,,,,,,,,,,,,,,,,,,,,,,,,,,,,,,,,,,,,,,,,,,,,,,,,,,,,,,,,,,,,,,,,,,,,,,,,,,,,,,,
,,,,,,,,,,00001605716,2020-10-31_02h50.06.581,swahili,2020.2.4,MacIntel,60,,,,,,,,,,0.437147352,-0.004948234,0,0,1,0.11355,test_pile,9,0,9,0,1,,,,,,,,,,,,,,,,,,,,,,,,,,,,,,,,,,,,,,,,,,,,,,,,,,,,,,,,,,,,,,,,,,,,,,,,,,,,,,,,,
,,,,,,,,,,00001605716,2020-10-31_02h50.06.581,swahili,2020.2.4,MacIntel,60,,,,,,,,,,-0.333159722,-0.109974498,1,0,1,0.731915,unsorted_card,10,0,10,0,1,,,,,,,,,,,,,,,,,,,,,,,,,,,,,,,,,,,,,,,,,,,,,,,,,,,,,,,,,,,,,,,,,,,,,,,,,,,,,,,,,
,,,,,,,,,,00001605716,2020-10-31_02h50.06.581,swahili,2020.2.4,MacIntel,60,,,,,,,,,,-0.333159722,-0.109974498,0,0,1,0.13362,unsorted_card,11,0,11,0,1,BULL - FAHILI,,,,,,,,,,,,,,,,,,,,,,,,,,,,,,,,,,,,,,,,,,,,,,,,,,,,,,,,,,,,,,,,,,,,,,,,,,,,,,,,
,,,,,,,,,,00001605716,2020-10-31_02h50.06.581,swahili,2020.2.4,MacIntel,60,,,,,,,,,,0.457617188,0.005014845,1,0,1,5.98089,test_pile,12,0,12,0,1,BULL - FAHILI,,,,,,,,,,,,,,,,,,,,,,,,,,,,,,,,,,,,,,,,,,,,,,,,,,,,,,,,,,,,,,,,,,,,,,,,,,,,,,,,
,,,,,,,,,,00001605716,2020-10-31_02h50.06.581,swahili,2020.2.4,MacIntel,60,,,,,,,,,,0.342404514,-0.038577192,0,0,1,0.2319,test_pile,13,0,13,0,1,,,,,,,,,,,,,,,,,,,,,,,,,,,,,,,,,,,,,,,,,,,,,,,,,,,,,,,,,,,,,,,,,,,,,,,,,,,,,,,,,
,,,,,,,,,,00001605716,2020-10-31_02h50.06.581,swahili,2020.2.4,MacIntel,60,,,,,,,,,,-0.502815755,-0.04847366,1,0,1,0.33007,unsorted_card,14,0,14,0,1,,,,,,,,,,,,,,,,,,,,,,,,,,,,,,,,,,,,,,,,,,,,,,,,,,,,,,,,,,,,,,,,,,,,,,,,,,,,,,,,,
,,,,,,,,,,00001605716,2020-10-31_02h50.06.581,swahili,2020.2.4,MacIntel,60,,,,,,,,,,-0.502815755,-0.04847366,0,0,1,0.098055,unsorted_card,15,0,15,0,1,PLATE - SAHANI,,,,,,,,,,,,,,,,,,,,,,,,,,,,,,,,,,,,,,,,,,,,,,,,,,,,,,,,,,,,,,,,,,,,,,,,,,,,,,,,
,,,,,,,,,,00001605716,2020-10-31_02h50.06.581,swahili,2020.2.4,MacIntel,60,,,,,,,,,,0.573253038,0.61912873,1,0,1,2.18196,study_pile,16,0,16,0,1,PLATE - SAHANI,,,,,,,,,,,,,,,,,,,,,,,,,,,,,,,,,,,,,,,,,,,,,,,,,,,,,,,,,,,,,,,,,,,,,,,,,,,,,,,,
,,,,,,,,,,00001605716,2020-10-31_02h50.06.581,swahili,2020.2.4,MacIntel,60,,,,,,,,,,0.573253038,0.61912873,0,0,1,0.11266,study_pile,17,0,17,0,1,,,,,,,,,,,,,,,,,,,,,,,,,,,,,,,,,,,,,,,,,,,,,,,,,,,,,,,,,,,,,,,,,,,,,,,,,,,,,,,,,
,,,,,,,,,,00001605716,2020-10-31_02h50.06.581,swahili,2020.2.4,MacIntel,60,,,,,,,,,,-0.170095486,0.118243758,1,0,1,0.73361,unsorted_card,18,0,18,0,1,,,,,,,,,,,,,,,,,,,,,,,,,,,,,,,,,,,,,,,,,,,,,,,,,,,,,,,,,,,,,,,,,,,,,,,,,,,,,,,,,
,,,,,,,,,,00001605716,2020-10-31_02h50.06.581,swahili,2020.2.4,MacIntel,60,,,,,,,,,,-0.170095486,0.118243758,0,0,1,0.11187,unsorted_card,19,0,19,0,1,YEAST - HAMIRA,,,,,,,,,,,,,,,,,,,,,,,,,,,,,,,,,,,,,,,,,,,,,,,,,,,,,,,,,,,,,,,,,,,,,,,,,,,,,,,,
,,,,,,,,,,00001605716,2020-10-31_02h50.06.581,swahili,2020.2.4,MacIntel,60,,,,,,,,,,0.454356554,0.004186967,1,0,1,10.09812,test_pile,20,0,20,0,1,YEAST - HAMIRA,,,,,,,,,,,,,,,,,,,,,,,,,,,,,,,,,,,,,,,,,,,,,,,,,,,,,,,,,,,,,,,,,,,,,,,,,,,,,,,,
,,,,,,,,,,00001605716,2020-10-31_02h50.06.581,swahili,2020.2.4,MacIntel,60,,,,,,,,,,0.454356554,0.004186967,0,0,1,0.113175,test_pile,21,0,21,0,1,,,,,,,,,,,,,,,,,,,,,,,,,,,,,,,,,,,,,,,,,,,,,,,,,,,,,,,,,,,,,,,,,,,,,,,,,,,,,,,,,
,,,,,,,,,,00001605716,2020-10-31_02h50.06.581,swahili,2020.2.4,MacIntel,60,,,,,,,,,,-0.254551866,-0.075565241,1,0,1,0.54884,unsorted_card,22,0,22,0,1,,,,,,,,,,,,,,,,,,,,,,,,,,,,,,,,,,,,,,,,,,,,,,,,,,,,,,,,,,,,,,,,,,,,,,,,,,,,,,,,,
,,,,,,,,,,00001605716,2020-10-31_02h50.06.581,swahili,2020.2.4,MacIntel,60,,,,,,,,,,-0.254551866,-0.075565241,0,0,1,0.083835,unsorted_card,23,0,23,0,1,BLAME - LAWAMA,,,,,,,,,,,,,,,,,,,,,,,,,,,,,,,,,,,,,,,,,,,,,,,,,,,,,,,,,,,,,,,,,,,,,,,,,,,,,,,,
,,,,,,,,,,00001605716,2020-10-31_02h50.06.581,swahili,2020.2.4,MacIntel,60,,,,,,,,,,0.462706163,0.49840134,1,0,1,3.397095,study_pile,24,0,24,0,1,BLAME - LAWAMA,,,,,,,,,,,,,,,,,,,,,,,,,,,,,,,,,,,,,,,,,,,,,,,,,,,,,,,,,,,,,,,,,,,,,,,,,,,,,,,,
,,,,,,,,,,00001605716,2020-10-31_02h50.06.581,swahili,2020.2.4,MacIntel,60,,,,,,,,,,0.413585069,0.492844093,0,0,1,0.14768,study_pile,25,0,25,0,1,,,,,,,,,,,,,,,,,,,,,,,,,,,,,,,,,,,,,,,,,,,,,,,,,,,,,,,,,,,,,,,,,,,,,,,,,,,,,,,,,
,,,,,,,,,,00001605716,2020-10-31_02h50.06.581,swahili,2020.2.4,MacIntel,60,,,,,,,,,,-0.288270399,0.12511419,1,0,1,0.39726,unsorted_card,26,0,26,0,1,,,,,,,,,,,,,,,,,,,,,,,,,,,,,,,,,,,,,,,,,,,,,,,,,,,,,,,,,,,,,,,,,,,,,,,,,,,,,,,,,
,,,,,,,,,,00001605716,2020-10-31_02h50.06.581,swahili,2020.2.4,MacIntel,60,,,,,,,,,,-0.288270399,0.12511419,0,0,1,0.098765,unsorted_card,27,0,27,0,1,OATH - YAMINI,,,,,,,,,,,,,,,,,,,,,,,,,,,,,,,,,,,,,,,,,,,,,,,,,,,,,,,,,,,,,,,,,,,,,,,,,,,,,,,,
,,,,,,,,,,00001605716,2020-10-31_02h50.06.581,swahili,2020.2.4,MacIntel,60,,,,,,,,,,0.504356554,-0.020887256,1,0,1,2.183005,test_pile,28,0,28,0,1,OATH - YAMINI,,,,,,,,,,,,,,,,,,,,,,,,,,,,,,,,,,,,,,,,,,,,,,,,,,,,,,,,,,,,,,,,,,,,,,,,,,,,,,,,
,,,,,,,,,,00001605716,2020-10-31_02h50.06.581,swahili,2020.2.4,MacIntel,60,,,,,,,,,,0.463330078,-0.020887256,0,0,1,0.1146,test_pile,29,0,29,0,1,,,,,,,,,,,,,,,,,,,,,,,,,,,,,,,,,,,,,,,,,,,,,,,,,,,,,,,,,,,,,,,,,,,,,,,,,,,,,,,,,
,,,,,,,,,,00001605716,2020-10-31_02h50.06.581,swahili,2020.2.4,MacIntel,60,,,,,,,,,,-0.497043186,0.061367616,1,0,1,0.73233,unsorted_card,30,0,30,0,1,,,,,,,,,,,,,,,,,,,,,,,,,,,,,,,,,,,,,,,,,,,,,,,,,,,,,,,,,,,,,,,,,,,,,,,,,,,,,,,,,
,,,,,,,,,,00001605716,2020-10-31_02h50.06.581,swahili,2020.2.4,MacIntel,60,,,,,,,,,,-0.497043186,0.061367616,0,0,1,0.08212,unsorted_card,31,0,31,0,1,CORN - NAFAKA,,,,,,,,,,,,,,,,,,,,,,,,,,,,,,,,,,,,,,,,,,,,,,,,,,,,,,,,,,,,,,,,,,,,,,,,,,,,,,,,
,,,,,,,,,,00001605716,2020-10-31_02h50.06.581,swahili,2020.2.4,MacIntel,60,,,,,,,,,,0.57180447,-0.075137028,1,0,1,1.648495,test_pile,32,0,32,0,1,CORN - NAFAKA,,,,,,,,,,,,,,,,,,,,,,,,,,,,,,,,,,,,,,,,,,,,,,,,,,,,,,,,,,,,,,,,,,,,,,,,,,,,,,,,
,,,,,,,,,,00001605716,2020-10-31_02h50.06.581,swahili,2020.2.4,MacIntel,60,,,,,,,,,,0.57180447,-0.075137028,0,0,1,0.097555,test_pile,33,0,33,0,1,,,,,,,,,,,,,,,,,,,,,,,,,,,,,,,,,,,,,,,,,,,,,,,,,,,,,,,,,,,,,,,,,,,,,,,,,,,,,,,,,
,,,,,,,,,,00001605716,2020-10-31_02h50.06.581,swahili,2020.2.4,MacIntel,60,,,,,,,,,,-0.508561198,-0.070388627,1,0,1,0.581435,unsorted_card,34,0,34,0,1,,,,,,,,,,,,,,,,,,,,,,,,,,,,,,,,,,,,,,,,,,,,,,,,,,,,,,,,,,,,,,,,,,,,,,,,,,,,,,,,,
,,,,,,,,,,00001605716,2020-10-31_02h50.06.581,swahili,2020.2.4,MacIntel,60,,,,,,,,,,-0.508561198,-0.070388627,0,0,1,0.113675,unsorted_card,35,0,35,0,1,POEM - UTENZI,,,,,,,,,,,,,,,,,,,,,,,,,,,,,,,,,,,,,,,,,,,,,,,,,,,,,,,,,,,,,,,,,,,,,,,,,,,,,,,,
,,,,,,,,,,00001605716,2020-10-31_02h50.06.581,swahili,2020.2.4,MacIntel,60,,,,,,,,,,0.500488281,0.00678479,1,0,1,1.96452,test_pile,36,0,36,0,1,POEM - UTENZI,,,,,,,,,,,,,,,,,,,,,,,,,,,,,,,,,,,,,,,,,,,,,,,,,,,,,,,,,,,,,,,,,,,,,,,,,,,,,,,,
,,,,,,,,,,00001605716,2020-10-31_02h50.06.581,swahili,2020.2.4,MacIntel,60,,,,,,,,,,0.49858941,0.00678479,0,0,1,0.09792,test_pile,37,0,37,0,1,,,,,,,,,,,,,,,,,,,,,,,,,,,,,,,,,,,,,,,,,,,,,,,,,,,,,,,,,,,,,,,,,,,,,,,,,,,,,,,,,
,,,,,,,,,,00001605716,2020-10-31_02h50.06.581,swahili,2020.2.4,MacIntel,60,,,,,,,,,,-0.350336372,-0.013988276,1,0,1,0.615375,unsorted_card,38,0,38,0,1,,,,,,,,,,,,,,,,,,,,,,,,,,,,,,,,,,,,,,,,,,,,,,,,,,,,,,,,,,,,,,,,,,,,,,,,,,,,,,,,,
,,,,,,,,,,00001605716,2020-10-31_02h50.06.581,swahili,2020.2.4,MacIntel,60,,,,,,,,,,-0.350336372,-0.013988276,0,0,1,0.064935,unsorted_card,39,0,39,0,1,TAILOR - MSHONI,,,,,,,,,,,,,,,,,,,,,,,,,,,,,,,,,,,,,,,,,,,,,,,,,,,,,,,,,,,,,,,,,,,,,,,,,,,,,,,,
,,,,,,,,,,00001605716,2020-10-31_02h50.06.581,swahili,2020.2.4,MacIntel,60,,,,,,,,,,0.574338108,0.476162835,1,0,1,1.566145,study_pile,40,0,40,0,1,TAILOR - MSHONI,,,,,,,,,,,,,,,,,,,,,,,,,,,,,,,,,,,,,,,,,,,,,,,,,,,,,,,,,,,,,,,,,,,,,,,,,,,,,,,,
,,,,,,,,,,00001605716,2020-10-31_02h50.06.581,swahili,2020.2.4,MacIntel,60,,,,,,,,,,0.574338108,0.476162835,0,0,1,0.08062,study_pile,41,0,41,0,1,,,,,,,,,,,,,,,,,,,,,,,,,,,,,,,,,,,,,,,,,,,,,,,,,,,,,,,,,,,,,,,,,,,,,,,,,,,,,,,,,
,,,,,,,,,,00001605716,2020-10-31_02h50.06.581,swahili,2020.2.4,MacIntel,60,,,,,,,,,,-0.360671658,0.091961023,1,0,1,0.93159,unsorted_card,42,0,42,0,1,,,,,,,,,,,,,,,,,,,,,,,,,,,,,,,,,,,,,,,,,,,,,,,,,,,,,,,,,,,,,,,,,,,,,,,,,,,,,,,,,
,,,,,,,,,,00001605716,2020-10-31_02h50.06.581,swahili,2020.2.4,MacIntel,60,,,,,,,,,,-0.360671658,0.091961023,0,0,1,0.080905,unsorted_card,43,0,43,0,1,CHEESE - JIBINI,,,,,,,,,,,,,,,,,,,,,,,,,,,,,,,,,,,,,,,,,,,,,,,,,,,,,,,,,,,,,,,,,,,,,,,,,,,,,,,,
,,,,,,,,,,00001605716,2020-10-31_02h50.06.581,swahili,2020.2.4,MacIntel,60,,,,,,,,,,0.522683377,0.424311054,1,0,1,1.465395,study_pile,44,0,44,0,1,CHEESE - JIBINI,,,,,,,,,,,,,,,,,,,,,,,,,,,,,,,,,,,,,,,,,,,,,,,,,,,,,,,,,,,,,,,,,,,,,,,,,,,,,,,,
,,,,,,,,,,00001605716,2020-10-31_02h50.06.581,swahili,2020.2.4,MacIntel,60,,,,,,,,,,0.513275825,0.424311054,0,0,1,0.12923,study_pile,45,0,45,0,1,,,,,,,,,,,,,,,,,,,,,,,,,,,,,,,,,,,,,,,,,,,,,,,,,,,,,,,,,,,,,,,,,,,,,,,,,,,,,,,,,
,,,,,,,,,,00001605716,2020-10-31_02h50.06.581,swahili,2020.2.4,MacIntel,60,,,,,,,,,,-0.389675564,0.102780527,1,0,1,0.415735,unsorted_card,46,0,46,0,1,,,,,,,,,,,,,,,,,,,,,,,,,,,,,,,,,,,,,,,,,,,,,,,,,,,,,,,,,,,,,,,,,,,,,,,,,,,,,,,,,
,,,,,,,,,,00001605716,2020-10-31_02h50.06.581,swahili,2020.2.4,MacIntel,60,,,,,,,,,,-0.389675564,0.102780527,0,0,1,0.099005,unsorted_card,47,0,47,0,1,GRAPES - ZABIBU,,,,,,,,,,,,,,,,,,,,,,,,,,,,,,,,,,,,,,,,,,,,,,,,,,,,,,,,,,,,,,,,,,,,,,,,,,,,,,,,
,,,,,,,,,,00001605716,2020-10-31_02h50.06.581,swahili,2020.2.4,MacIntel,60,,,,,,,,,,0.526117622,0.024284409,1,0,1,1.764765,test_pile,48,0,48,0,1,GRAPES - ZABIBU,,,,,,,,,,,,,,,,,,,,,,,,,,,,,,,,,,,,,,,,,,,,,,,,,,,,,,,,,,,,,,,,,,,,,,,,,,,,,,,,
,,,,,,,,,,00001605716,2020-10-31_02h50.06.581,swahili,2020.2.4,MacIntel,60,,,,,,,,,,0.526117622,0.024284409,0,0,1,0.099605,test_pile,49,0,49,0,1,,,,,,,,,,,,,,,,,,,,,,,,,,,,,,,,,,,,,,,,,,,,,,,,,,,,,,,,,,,,,,,,,,,,,,,,,,,,,,,,,
,,,,,,,,,,00001605716,2020-10-31_02h50.06.581,swahili,2020.2.4,MacIntel,60,,,,,,,,,,-0.2871148,-0.030250837,1,0,1,0.630655,unsorted_card,50,0,50,0,1,,,,,,,,,,,,,,,,,,,,,,,,,,,,,,,,,,,,,,,,,,,,,,,,,,,,,,,,,,,,,,,,,,,,,,,,,,,,,,,,,
,,,,,,,,,,00001605716,2020-10-31_02h50.06.581,swahili,2020.2.4,MacIntel,60,,,,,,,,,,-0.2871148,-0.030250837,0,0,1,0.11721,unsorted_card,51,0,51,0,1,GRAVE - KABURI,,,,,,,,,,,,,,,,,,,,,,,,,,,,,,,,,,,,,,,,,,,,,,,,,,,,,,,,,,,,,,,,,,,,,,,,,,,,,,,,
,,,,,,,,,,00001605716,2020-10-31_02h50.06.581,swahili,2020.2.4,MacIntel,60,,,,,,,,,,0.437809245,0.372763779,1,0,1,3.048765,study_pile,52,0,52,0,1,GRAVE - KABURI,,,,,,,,,,,,,,,,,,,,,,,,,,,,,,,,,,,,,,,,,,,,,,,,,,,,,,,,,,,,,,,,,,,,,,,,,,,,,,,,
,,,,,,,,,,00001605716,2020-10-31_02h50.06.581,swahili,2020.2.4,MacIntel,60,,,,,,,,,,0.437011719,0.372763779,0,0,1,0.146665,study_pile,53,0,53,0,1,,,,,,,,,,,,,,,,,,,,,,,,,,,,,,,,,,,,,,,,,,,,,,,,,,,,,,,,,,,,,,,,,,,,,,,,,,,,,,,,,
,,,,,,,,,,00001605716,2020-10-31_02h50.06.581,swahili,2020.2.4,MacIntel,60,,,,,,,,,,-0.308577474,-0.008002817,1,0,1,0.397305,unsorted_card,54,0,54,0,1,,,,,,,,,,,,,,,,,,,,,,,,,,,,,,,,,,,,,,,,,,,,,,,,,,,,,,,,,,,,,,,,,,,,,,,,,,,,,,,,,
,,,,,,,,,,00001605716,2020-10-31_02h50.06.581,swahili,2020.2.4,MacIntel,60,,,,,,,,,,-0.308577474,-0.008002817,0,0,1,0.09995,unsorted_card,55,0,55,0,1,MANURE - SAMADI,,,,,,,,,,,,,,,,,,,,,,,,,,,,,,,,,,,,,,,,,,,,,,,,,,,,,,,,,,,,,,,,,,,,,,,,,,,,,,,,
,,,,,,,,,,00001605716,2020-10-31_02h50.06.581,swahili,2020.2.4,MacIntel,60,,,,,,,,,,0.573106554,0.481044458,1,0,1,1.54557,study_pile,56,0,56,0,1,MANURE - SAMADI,,,,,,,,,,,,,,,,,,,,,,,,,,,,,,,,,,,,,,,,,,,,,,,,,,,,,,,,,,,,,,,,,,,,,,,,,,,,,,,,
,,,,,,,,,,00001605716,2020-10-31_02h50.06.581,swahili,2020.2.4,MacIntel,60,,,,,,,,,,0.573106554,0.481044458,0,0,1,0.1318,study_pile,57,0,57,0,1,,,,,,,,,,,,,,,,,,,,,,,,,,,,,,,,,,,,,,,,,,,,,,,,,,,,,,,,,,,,,,,,,,,,,,,,,,,,,,,,,
,,,,,,,,,,00001605716,2020-10-31_02h50.06.581,swahili,2020.2.4,MacIntel,60,,,,,,,,,,-0.221185981,0.098993225,1,0,1,0.481765,unsorted_card,58,0,58,0,1,,,,,,,,,,,,,,,,,,,,,,,,,,,,,,,,,,,,,,,,,,,,,,,,,,,,,,,,,,,,,,,,,,,,,,,,,,,,,,,,,
,,,,,,,,,,00001605716,2020-10-31_02h50.06.581,swahili,2020.2.4,MacIntel,60,,,,,,,,,,-0.221185981,0.098993225,0,0,1,0.08174,unsorted_card,59,0,59,0,1,AGENT - WAKILI,,,,,,,,,,,,,,,,,,,,,,,,,,,,,,,,,,,,,,,,,,,,,,,,,,,,,,,,,,,,,,,,,,,,,,,,,,,,,,,,
,,,,,,,,,,00001605716,2020-10-31_02h50.06.581,swahili,2020.2.4,MacIntel,60,,,,,,,,,,0.656217448,0.039033952,1,0,1,1.78208,test_pile,60,0,60,0,1,AGENT - WAKILI,,,,,,,,,,,,,,,,,,,,,,,,,,,,,,,,,,,,,,,,,,,,,,,,,,,,,,,,,,,,,,,,,,,,,,,,,,,,,,,,
,,,,,,,,,,00001605716,2020-10-31_02h50.06.581,swahili,2020.2.4,MacIntel,60,,,,,,,,,,0.656217448,0.039033952,0,0,1,0.115465,test_pile,61,0,61,0,1,,,,,,,,,,,,,,,,,,,,,,,,,,,,,,,,,,,,,,,,,,,,,,,,,,,,,,,,,,,,,,,,,,,,,,,,,,,,,,,,,
,,,,,,,,,,00001605716,2020-10-31_02h50.06.581,swahili,2020.2.4,MacIntel,60,,,,,,,,,,-0.321446398,0.071168925,1,0,1,0.61688,unsorted_card,62,0,62,0,1,,,,,,,,,,,,,,,,,,,,,,,,,,,,,,,,,,,,,,,,,,,,,,,,,,,,,,,,,,,,,,,,,,,,,,,,,,,,,,,,,
,,,,,,,,,,00001605716,2020-10-31_02h50.06.581,swahili,2020.2.4,MacIntel,60,,,,,,,,,,-0.321446398,0.071168925,0,0,1,0.081085,unsorted_card,63,0,63,0,1,BRIBE - RUSHWA,,,,,,,,,,,,,,,,,,,,,,,,,,,,,,,,,,,,,,,,,,,,,,,,,,,,,,,,,,,,,,,,,,,,,,,,,,,,,,,,
,,,,,,,,,,00001605716,2020-10-31_02h50.06.581,swahili,2020.2.4,MacIntel,60,,,,,,,,,,0.417963325,-0.080227999,1,0,1,1.332025,test_pile,64,0,64,0,1,BRIBE - RUSHWA,,,,,,,,,,,,,,,,,,,,,,,,,,,,,,,,,,,,,,,,,,,,,,,,,,,,,,,,,,,,,,,,,,,,,,,,,,,,,,,,
,,,,,,,,,,00001605716,2020-10-31_02h50.06.581,swahili,2020.2.4,MacIntel,60,,,,,,,,,,0.417963325,-0.080227999,0,0,1,0.09663,test_pile,65,0,65,0,1,,,,,,,,,,,,,,,,,,,,,,,,,,,,,,,,,,,,,,,,,,,,,,,,,,,,,,,,,,,,,,,,,,,,,,,,,,,,,,,,,
,,,,,,,,,,00001605716,2020-10-31_02h50.06.581,swahili,2020.2.4,MacIntel,60,,,,,,,,,,-0.365218099,-0.041555649,1,0,1,0.43247,unsorted_card,66,0,66,0,1,,,,,,,,,,,,,,,,,,,,,,,,,,,,,,,,,,,,,,,,,,,,,,,,,,,,,,,,,,,,,,,,,,,,,,,,,,,,,,,,,
,,,,,,,,,,00001605716,2020-10-31_02h50.06.581,swahili,2020.2.4,MacIntel,60,,,,,,,,,,-0.365218099,-0.041555649,0,0,1,0.097045,unsorted_card,67,0,67,0,1,ORPHAN - YATIMA,,,,,,,,,,,,,,,,,,,,,,,,,,,,,,,,,,,,,,,,,,,,,,,,,,,,,,,,,,,,,,,,,,,,,,,,,,,,,,,,
,,,,,,,,,,00001605716,2020-10-31_02h50.06.581,swahili,2020.2.4,MacIntel,60,,,,,,,,,,0.420209418,-0.050719397,1,0,1,1.84856,test_pile,68,0,68,0,1,ORPHAN - YATIMA,,,,,,,,,,,,,,,,,,,,,,,,,,,,,,,,,,,,,,,,,,,,,,,,,,,,,,,,,,,,,,,,,,,,,,,,,,,,,,,,
,,,,,,,,,,00001605716,2020-10-31_02h50.06.581,swahili,2020.2.4,MacIntel,60,,,,,,,,,,0.380192057,-0.050719397,0,0,1,0.167055,test_pile,69,0,69,0,1,,,,,,,,,,,,,,,,,,,,,,,,,,,,,,,,,,,,,,,,,,,,,,,,,,,,,,,,,,,,,,,,,,,,,,,,,,,,,,,,,
,,,,,,,,,,00001605716,2020-10-31_02h50.06.581,swahili,2020.2.4,MacIntel,60,,,,,,,,,,-0.209114583,-0.050719397,1,0,1,0.364065,unsorted_card,70,0,70,0,1,,,,,,,,,,,,,,,,,,,,,,,,,,,,,,,,,,,,,,,,,,,,,,,,,,,,,,,,,,,,,,,,,,,,,,,,,,,,,,,,,
,,,,,,,,,,00001605716,2020-10-31_02h50.06.581,swahili,2020.2.4,MacIntel,60,,,,,,,,,,-0.209114583,-0.050719397,0,0,1,0.16569,unsorted_card,71,0,71,0,1,DIVORCE - TALAKA,,,,,,,,,,,,,,,,,,,,,,,,,,,,,,,,,,,,,,,,,,,,,,,,,,,,,,,,,,,,,,,,,,,,,,,,,,,,,,,,
,,,,,,,,,,00001605716,2020-10-31_02h50.06.581,swahili,2020.2.4,MacIntel,60,,,,,,,,,,0.447178819,-0.099364342,1,0,1,2.212845,test_pile,72,0,72,0,1,DIVORCE - TALAKA,,,,,,,,,,,,,,,,,,,,,,,,,,,,,,,,,,,,,,,,,,,,,,,,,,,,,,,,,,,,,,,,,,,,,,,,,,,,,,,,
,,,,,,,,,,00001605716,2020-10-31_02h50.06.581,swahili,2020.2.4,MacIntel,60,,,,,,,,,,0.447178819,-0.099364342,0,0,1,0.115225,test_pile,73,0,73,0,1,,,,,,,,,,,,,,,,,,,,,,,,,,,,,,,,,,,,,,,,,,,,,,,,,,,,,,,,,,,,,,,,,,,,,,,,,,,,,,,,,
,,,,,,,,,,00001605716,2020-10-31_02h50.06.581,swahili,2020.2.4,MacIntel,60,,,,,,,,,,-0.460715061,-0.083149361,1,0,1,0.534225,unsorted_card,74,0,74,0,1,,,,,,,,,,,,,,,,,,,,,,,,,,,,,,,,,,,,,,,,,,,,,,,,,,,,,,,,,,,,,,,,,,,,,,,,,,,,,,,,,
,,,,,,,,,,00001605716,2020-10-31_02h50.06.581,swahili,2020.2.4,MacIntel,60,,,,,,,,,,-0.460715061,-0.083149361,0,0,1,0.129515,unsorted_card,75,0,75,0,1,BOAT - MASHUA,,,,,,,,,,,,,,,,,,,,,,,,,,,,,,,,,,,,,,,,,,,,,,,,,,,,,,,,,,,,,,,,,,,,,,,,,,,,,,,,
,,,,,,,,,,00001605716,2020-10-31_02h50.06.581,swahili,2020.2.4,MacIntel,60,,,,,,,,,,0.476774089,0.430496346,1,0,1,1.249565,study_pile,76,0,76,0,1,BOAT - MASHUA,,,,,,,,,,,,,,,,,,,,,,,,,,,,,,,,,,,,,,,,,,,,,,,,,,,,,,,,,,,,,,,,,,,,,,,,,,,,,,,,
,,,,,,,,,,00001605716,2020-10-31_02h50.06.581,swahili,2020.2.4,MacIntel,60,,,,,,,,,,0.472639974,0.430496346,0,0,1,0.147245,study_pile,77,0,77,0,1,,,,,,,,,,,,,,,,,,,,,,,,,,,,,,,,,,,,,,,,,,,,,,,,,,,,,,,,,,,,,,,,,,,,,,,,,,,,,,,,,
,,,,,,,,,,00001605716,2020-10-31_02h50.06.581,swahili,2020.2.4,MacIntel,60,,,,,,,,,,-0.311306424,0.136114495,1,0,1,0.39848,unsorted_card,78,0,78,0,1,,,,,,,,,,,,,,,,,,,,,,,,,,,,,,,,,,,,,,,,,,,,,,,,,,,,,,,,,,,,,,,,,,,,,,,,,,,,,,,,,
,,,,,,,,,,00001605716,2020-10-31_02h50.06.581,swahili,2020.2.4,MacIntel,60,,,,,,,,,,-0.311306424,0.136114495,0,0,1,0.097995,unsorted_card,79,0,79,0,1,TREASURE - DAFINA,,,,,,,,,,,,,,,,,,,,,,,,,,,,,,,,,,,,,,,,,,,,,,,,,,,,,,,,,,,,,,,,,,,,,,,,,,,,,,,,
,,,,,,,,,,00001605716,2020-10-31_02h50.06.581,swahili,2020.2.4,MacIntel,60,,,,,,,,,,0.441113281,0.038662835,1,0,1,5.233685,test_pile,80,0,80,0,1,TREASURE - DAFINA,,,,,,,,,,,,,,,,,,,,,,,,,,,,,,,,,,,,,,,,,,,,,,,,,,,,,,,,,,,,,,,,,,,,,,,,,,,,,,,,
,,,,,,,,,,00001605716,2020-10-31_02h50.06.581,swahili,2020.2.4,MacIntel,60,,,,,,,,,,,,,,,,,,,,,,,0.43921441,0.038662835,0,0,1,0.1189,test_first,,,,,0,0,0,0,1,,,,,,,,,,,,,,,,,,,,,,,,,,,,,,,,,,,,,,,,,,,,,,,,,,,,,,,,,,,,,,,,
,,,,,,,,,,00001605716,2020-10-31_02h50.06.581,swahili,2020.2.4,MacIntel,60,,,,,,,,,,,,,,,,,,,,,,,,,,,,,,,,,,,,,,,return,,,,,,,,,,,5.191015,6.18009,0.368332248,-0.146258374,1,0,1,2.84643,yes,DIVORCE,TALAKA,incorrect,0,0,0,0,1,,,,,,,,,,,,,,,,,,,,,,,,,,,,,,,,,,,,
,,,,,,,,,,00001605716,2020-10-31_02h50.06.581,swahili,2020.2.4,MacIntel,60,,,,,,,,,,,,,,,,,,,,,,,,,,,,,,,,,,,,,,,,,,,,,,,,,,,4.881745,0.288330078,-0.158229294,1,0,1,0.96602,yes,ORPHAN,YATIMA,incorrect,1,0,1,0,1,,,,,,,,,,,,,,,,,,,,,,,,,,,,,,,,,,,,
,,,,,,,,,,00001605716,2020-10-31_02h50.06.581,swahili,2020.2.4,MacIntel,60,,,,,,,,,,,,,,,,,,,,,,,,,,,,,,,,,,,,,,,,,,,,,,,,,,,8.582155,0.527256944,0.149836328,1,0,1,0.867625,yes,TREASURE,FKJ,incorrect,2,0,2,0,1,,,,,,,,,,,,,,,,,,,,,,,,,,,,,,,,,,,,
,,,,,,,,,,00001605716,2020-10-31_02h50.06.581,swahili,2020.2.4,MacIntel,60,,,,,,,,,,,,,,,,,,,,,,,,,,,,,,,,,,,,,,,,,,,,,,,,,,,10.54798,0.390315755,-0.010429354,1,0,1,1.75048,yes,YEAST,AMITA,incorrect,3,0,3,0,1,,,,,,,,,,,,,,,,,,,,,,,,,,,,,,,,,,,,
,,,,,,,,,,00001605716,2020-10-31_02h50.06.581,swahili,2020.2.4,MacIntel,60,,,,,,,,,,,,,,,,,,,,,,,,,,,,,,,,,,,,,,,,,,,,,,,,,,,5.41651,0.329324002,-0.215742996,1,0,1,0.882785,yes,CORN,HALAKA,incorrect,4,0,4,0,1,,,,,,,,,,,,,,,,,,,,,,,,,,,,,,,,,,,,
,,,,,,,,,,00001605716,2020-10-31_02h50.06.581,swahili,2020.2.4,MacIntel,60,,,,,,,,,,,,,,,,,,,,,,,,,,,,,,,,,,,,,,,,,,,,,,,,,,,5.946745,0.509125434,-0.038453487,1,0,1,0.799565,yes,BRIBE,RUSHWA,incorrect,5,0,5,0,1,,,,,,,,,,,,,,,,,,,,,,,,,,,,,,,,,,,,
,,,,,,,,,,00001605716,2020-10-31_02h50.06.581,swahili,2020.2.4,MacIntel,60,,,,,,,,,,,,,,,,,,,,,,,,,,,,,,,,,,,,,,,,,,,,,,,,,,,10.93185,0.543495009,-0.047845615,1,0,1,1.01613,yes,BULL,AHIL,incorrect,6,0,6,0,1,,,,,,,,,,,,,,,,,,,,,,,,,,,,,,,,,,,,
,,,,,,,,,,00001605716,2020-10-31_02h50.06.581,swahili,2020.2.4,MacIntel,60,,,,,,,,,,,,,,,,,,,,,,,,,,,,,,,,,,,,,,,,,,,,,,,,,,,7.16504,0.461409505,-0.222042479,1,0,1,0.9338,yes,OATH,KKF,incorrect,7,0,7,0,1,,,,,,,,,,,,,,,,,,,,,,,,,,,,,,,,,,,,
,,,,,,,,,,00001605716,2020-10-31_02h50.06.581,swahili,2020.2.4,MacIntel,60,,,,,,,,,,,,,,,,,,,,,,,,,,,,,,,,,,,,,,,,,,,,,,,,,,,7.63133,0.415277778,-0.070835871,1,0,1,1.651165,yes,POEM,UTENZI,incorrect,8,0,8,0,1,,,,,,,,,,,,,,,,,,,,,,,,,,,,,,,,,,,,
,,,,,,,,,,00001605716,2020-10-31_02h50.06.581,swahili,2020.2.4,MacIntel,60,,,,,,,,,,,,,,,,,,,,,,,,,,,,,,,,,,,,,,,,,,,,,,,,,,,15.54843,0.437820095,-0.073367083,1,0,1,1.06572,yes,AGENT,WAKIRI,incorrect,9,0,9,0,1,,,,,,,,,,,,,,,,,,,,,,,,,,,,,,,,,,,,
,,,,,,,,,,00001605716,2020-10-31_02h50.06.581,swahili,2020.2.4,MacIntel,60,,,,,,,,,,,,,,,,,,,,,,,,,,,,,,,,,,,,,,,,,,,,,,,,,,,3.88074,0.353656684,-0.053231577,1,0,1,0.46599,yes,PARROT,JFJ,incorrect,10,0,10,0,1,,,,,,,,,,,,,,,,,,,,,,,,,,,,,,,,,,,,
,,,,,,,,,,00001605716,2020-10-31_02h50.06.581,swahili,2020.2.4,MacIntel,60,,,,,,,,,,,,,,,,,,,,,,,,,,,,,,,,,,,,,,,,,,,,,,,,,,,4.730085,0.585020616,0.092512942,1,0,1,0.698705,yes,GRAPES,ZABIBU,incorrect,11,0,11,0,1,,,,,,,,,,,,,,,,,,,,,,,,,,,,,,,,,,,,
,,,,,,,,,,00001605716,2020-10-31_02h50.06.581,swahili,2020.2.4,MacIntel,60,,,,,,,,,,,,,,,,,,,,,,,,,,,,,,,,,,,,,,,,0,0,0,0,1,,,,,,,,,,,,,,,,,,,,,,,,,,,,,,,,,,,,,,,,,,,,,,,,,,,,,,,,,,
,,,,,,,,,,00001605716,2020-10-31_02h50.06.581,swahili,2020.2.4,MacIntel,60,,,,,,,,,,,,,,,,,,,,,,CHEESE - JIBINI,,,,,,,,return,2.182435,return,9.601495,0,0,0,0,1,,,,,,,,,,,,,,,,,,,,,,,,,,,,,,,,,,,,,,,,,,,,,,,,,,,,,,,,,,,,,,,,
,,,,,,,,,,00001605716,2020-10-31_02h50.06.581,swahili,2020.2.4,MacIntel,60,,,,,,,,,,,,,,,,,,,,,,MERCHANT - TAJIRI,,,,,,,,,,return,8.117505,1,0,1,0,1,,,,,,,,,,,,,,,,,,,,,,,,,,,,,,,,,,,,,,,,,,,,,,,,,,,,,,,,,,,,,,,,
,,,,,,,,,,00001605716,2020-10-31_02h50.06.581,swahili,2020.2.4,MacIntel,60,,,,,,,,,,,,,,,,,,,,,,TAILOR - MSHONI,,,,,,,,,,return,5.268775,2,0,2,0,1,,,,,,,,,,,,,,,,,,,,,,,,,,,,,,,,,,,,,,,,,,,,,,,,,,,,,,,,,,,,,,,,
,,,,,,,,,,00001605716,2020-10-31_02h50.06.581,swahili,2020.2.4,MacIntel,60,,,,,,,,,,,,,,,,,,,,,,BOAT - MASHUA,,,,,,,,,,return,4.948725,3,0,3,0,1,,,,,,,,,,,,,,,,,,,,,,,,,,,,,,,,,,,,,,,,,,,,,,,,,,,,,,,,,,,,,,,,
,,,,,,,,,,00001605716,2020-10-31_02h50.06.581,swahili,2020.2.4,MacIntel,60,,,,,,,,,,,,,,,,,,,,,,GRAVE - KABURI,,,,,,,,,,return,7.87202,4,0,4,0,1,,,,,,,,,,,,,,,,,,,,,,,,,,,,,,,,,,,,,,,,,,,,,,,,,,,,,,,,,,,,,,,,
,,,,,,,,,,00001605716,2020-10-31_02h50.06.581,swahili,2020.2.4,MacIntel,60,,,,,,,,,,,,,,,,,,,,,,PLATE - SAHANI,,,,,,,,,,return,10.018115,5,0,5,0,1,,,,,,,,,,,,,,,,,,,,,,,,,,,,,,,,,,,,,,,,,,,,,,,,,,,,,,,,,,,,,,,,
,,,,,,,,,,00001605716,2020-10-31_02h50.06.581,swahili,2020.2.4,MacIntel,60,,,,,,,,,,,,,,,,,,,,,,MANURE - SAMADI,,,,,,,,,,return,8.832605,6,0,6,0,1,,,,,,,,,,,,,,,,,,,,,,,,,,,,,,,,,,,,,,,,,,,,,,,,,,,,,,,,,,,,,,,,
,,,,,,,,,,00001605716,2020-10-31_02h50.06.581,swahili,2020.2.4,MacIntel,60,,,,,,,,,,,,,,,,,,,,,,BLAME - LAWAMA,,,,,,,,,,return,4.434165,7,0,7,0,1,,,,,,,,,,,,,,,,,,,,,,,,,,,,,,,,,,,,,,,,,,,,,,,,,,,,,,,,,,,,,,,,
,,,,,,,,,,00001605716,2020-10-31_02h50.06.581,swahili,2020.2.4,MacIntel,60,,,,,,,,,,,,,,,,,,,,,,,,,,,,,,,,,,,,,,,,1,0,1,0,1,,,,,,,,,,,,,,,,,,,,,,,,,,,,,,,,,,,,,,,,,,,,,,,,,,,,,,,,,,
,,,,,,,,,,00001605716,2020-10-31_02h50.06.581,swahili,2020.2.4,MacIntel,60,,,,,,,,,,,,,,,,,,,,,,,,,,,,,,,,,,,,,,,,,,,,,1,0,1,0,1,,,,,,,,,,,,,,,,,,,,,,,,,,,,,,,,,,,,,,,,,,,,,,,,,,,,,
,,,,,,,,,,00001605716,2020-10-31_02h50.06.581,swahili,2020.2.4,MacIntel,60,,,,,,,,,,-0.318511285,-0.028100259,1,0,1,2.166605,unsorted_card,0,0,0,0,1,,,,,,,,,,,,,,,,,,,,,,,,,,,,,,,,,,,,,,,,,,,,,,,,,,,,,,,,,,,,,,,,,,,,,,,,,,,,,,,,,
,,,,,,,,,,00001605716,2020-10-31_02h50.06.581,swahili,2020.2.4,MacIntel,60,,,,,,,,,,-0.318511285,-0.028100259,0,0,1,0.080345,unsorted_card,1,0,1,0,1,MERCHANT - TAJIRI,,,,,,,,,,,,,,,,,,,,,,,,,,,,,,,,,,,,,,,,,,,,,,,,,,,,,,,,,,,,,,,,,,,,,,,,,,,,,,,,
,,,,,,,,,,00001605716,2020-10-31_02h50.06.581,swahili,2020.2.4,MacIntel,60,,,,,,,,,,-0.317301432,0.049939099,1,0,1,1.450535,unsorted_card,2,0,2,0,1,MERCHANT - TAJIRI,,,,,,,,,,,,,,,,,,,,,,,,,,,,,,,,,,,,,,,,,,,,,,,,,,,,,,,,,,,,,,,,,,,,,,,,,,,,,,,,
,,,,,,,,,,00001605716,2020-10-31_02h50.06.581,swahili,2020.2.4,MacIntel,60,,,,,,,,,,-0.317301432,0.049939099,0,0,1,0.197695,unsorted_card,3,0,3,0,1,MERCHANT - TAJIRI,,,,,,,,,,,,,,,,,,,,,,,,,,,,,,,,,,,,,,,,,,,,,,,,,,,,,,,,,,,,,,,,,,,,,,,,,,,,,,,,
,,,,,,,,,,00001605716,2020-10-31_02h50.06.581,swahili,2020.2.4,MacIntel,60,,,,,,,,,,0.388172743,0.527643499,1,0,1,0.76627,study_pile,4,0,4,0,1,MERCHANT - TAJIRI,,,,,,,,,,,,,,,,,,,,,,,,,,,,,,,,,,,,,,,,,,,,,,,,,,,,,,,,,,,,,,,,,,,,,,,,,,,,,,,,
,,,,,,,,,,00001605716,2020-10-31_02h50.06.581,swahili,2020.2.4,MacIntel,60,,,,,,,,,,0.388172743,0.527643499,0,0,1,0.07961,study_pile,5,0,5,0,1,,,,,,,,,,,,,,,,,,,,,,,,,,,,,,,,,,,,,,,,,,,,,,,,,,,,,,,,,,,,,,,,,,,,,,,,,,,,,,,,,
,,,,,,,,,,00001605716,2020-10-31_02h50.06.581,swahili,2020.2.4,MacIntel,60,,,,,,,,,,-0.42288954,-0.080323158,1,0,1,0.432285,unsorted_card,6,0,6,0,1,,,,,,,,,,,,,,,,,,,,,,,,,,,,,,,,,,,,,,,,,,,,,,,,,,,,,,,,,,,,,,,,,,,,,,,,,,,,,,,,,
,,,,,,,,,,00001605716,2020-10-31_02h50.06.581,swahili,2020.2.4,MacIntel,60,,,,,,,,,,-0.42288954,-0.080323158,0,0,1,0.049335,unsorted_card,7,0,7,0,1,PARROT - KASUKU,,,,,,,,,,,,,,,,,,,,,,,,,,,,,,,,,,,,,,,,,,,,,,,,,,,,,,,,,,,,,,,,,,,,,,,,,,,,,,,,
,,,,,,,,,,00001605716,2020-10-31_02h50.06.581,swahili,2020.2.4,MacIntel,60,,,,,,,,,,0.422661675,0.532258678,1,0,1,5.4663,study_pile,8,0,8,0,1,PARROT - KASUKU,,,,,,,,,,,,,,,,,,,,,,,,,,,,,,,,,,,,,,,,,,,,,,,,,,,,,,,,,,,,,,,,,,,,,,,,,,,,,,,,
,,,,,,,,,,00001605716,2020-10-31_02h50.06.581,swahili,2020.2.4,MacIntel,60,,,,,,,,,,0.422661675,0.532258678,0,0,1,0.06352,study_pile,9,0,9,0,1,,,,,,,,,,,,,,,,,,,,,,,,,,,,,,,,,,,,,,,,,,,,,,,,,,,,,,,,,,,,,,,,,,,,,,,,,,,,,,,,,
,,,,,,,,,,00001605716,2020-10-31_02h50.06.581,swahili,2020.2.4,MacIntel,60,,,,,,,,,,-0.293777127,0.069751066,1,0,1,0.66652,unsorted_card,10,0,10,0,1,,,,,,,,,,,,,,,,,,,,,,,,,,,,,,,,,,,,,,,,,,,,,,,,,,,,,,,,,,,,,,,,,,,,,,,,,,,,,,,,,
,,,,,,,,,,00001605716,2020-10-31_02h50.06.581,swahili,2020.2.4,MacIntel,60,,,,,,,,,,-0.293777127,0.069751066,0,0,1,0.047975,unsorted_card,11,0,11,0,1,BULL - FAHILI,,,,,,,,,,,,,,,,,,,,,,,,,,,,,,,,,,,,,,,,,,,,,,,,,,,,,,,,,,,,,,,,,,,,,,,,,,,,,,,,
,,,,,,,,,,00001605716,2020-10-31_02h50.06.581,swahili,2020.2.4,MacIntel,60,,,,,,,,,,0.394807943,0.035646315,1,0,1,1.74709,test_pile,12,0,12,0,1,BULL - FAHILI,,,,,,,,,,,,,,,,,,,,,,,,,,,,,,,,,,,,,,,,,,,,,,,,,,,,,,,,,,,,,,,,,,,,,,,,,,,,,,,,
,,,,,,,,,,00001605716,2020-10-31_02h50.06.581,swahili,2020.2.4,MacIntel,60,,,,,,,,,,0.394807943,0.035646315,0,0,1,0.06421,test_pile,13,0,13,0,1,,,,,,,,,,,,,,,,,,,,,,,,,,,,,,,,,,,,,,,,,,,,,,,,,,,,,,,,,,,,,,,,,,,,,,,,,,,,,,,,,
,,,,,,,,,,00001605716,2020-10-31_02h50.06.581,swahili,2020.2.4,MacIntel,60,,,,,,,,,,-0.423524306,-0.052127741,1,0,1,0.41579,unsorted_card,14,0,14,0,1,,,,,,,,,,,,,,,,,,,,,,,,,,,,,,,,,,,,,,,,,,,,,,,,,,,,,,,,,,,,,,,,,,,,,,,,,,,,,,,,,
,,,,,,,,,,00001605716,2020-10-31_02h50.06.581,swahili,2020.2.4,MacIntel,60,,,,,,,,,,-0.423524306,-0.052127741,0,0,1,0.07976,unsorted_card,15,0,15,0,1,PLATE - SAHANI,,,,,,,,,,,,,,,,,,,,,,,,,,,,,,,,,,,,,,,,,,,,,,,,,,,,,,,,,,,,,,,,,,,,,,,,,,,,,,,,
,,,,,,,,,,00001605716,2020-10-31_02h50.06.581,swahili,2020.2.4,MacIntel,60,,,,,,,,,,0.502164714,-0.030479217,1,0,1,2.465995,test_pile,16,0,16,0,1,PLATE - SAHANI,,,,,,,,,,,,,,,,,,,,,,,,,,,,,,,,,,,,,,,,,,,,,,,,,,,,,,,,,,,,,,,,,,,,,,,,,,,,,,,,
,,,,,,,,,,00001605716,2020-10-31_02h50.06.581,swahili,2020.2.4,MacIntel,60,,,,,,,,,,0.502164714,-0.030479217,0,0,1,0.06389,test_pile,17,0,17,0,1,,,,,,,,,,,,,,,,,,,,,,,,,,,,,,,,,,,,,,,,,,,,,,,,,,,,,,,,,,,,,,,,,,,,,,,,,,,,,,,,,
,,,,,,,,,,00001605716,2020-10-31_02h50.06.581,swahili,2020.2.4,MacIntel,60,,,,,,,,,,-0.489827474,-0.073014997,1,0,1,0.51608,unsorted_card,18,0,18,0,1,,,,,,,,,,,,,,,,,,,,,,,,,,,,,,,,,,,,,,,,,,,,,,,,,,,,,,,,,,,,,,,,,,,,,,,,,,,,,,,,,
,,,,,,,,,,00001605716,2020-10-31_02h50.06.581,swahili,2020.2.4,MacIntel,60,,,,,,,,,,-0.489827474,-0.073014997,0,0,1,0.06306,unsorted_card,19,0,19,0,1,YEAST - HAMIRA,,,,,,,,,,,,,,,,,,,,,,,,,,,,,,,,,,,,,,,,,,,,,,,,,,,,,,,,,,,,,,,,,,,,,,,,,,,,,,,,
,,,,,,,,,,00001605716,2020-10-31_02h50.06.581,swahili,2020.2.4,MacIntel,60,,,,,,,,,,0.441422526,0.452373249,1,0,1,4.332855,study_pile,20,0,20,0,1,YEAST - HAMIRA,,,,,,,,,,,,,,,,,,,,,,,,,,,,,,,,,,,,,,,,,,,,,,,,,,,,,,,,,,,,,,,,,,,,,,,,,,,,,,,,
,,,,,,,,,,00001605716,2020-10-31_02h50.06.581,swahili,2020.2.4,MacIntel,60,,,,,,,,,,0.441422526,0.452373249,0,0,1,0.080015,study_pile,21,0,21,0,1,,,,,,,,,,,,,,,,,,,,,,,,,,,,,,,,,,,,,,,,,,,,,,,,,,,,,,,,,,,,,,,,,,,,,,,,,,,,,,,,,
,,,,,,,,,,00001605716,2020-10-31_02h50.06.581,swahili,2020.2.4,MacIntel,60,,,,,,,,,,-0.538937717,-0.030926462,1,0,1,0.41566,unsorted_card,22,0,22,0,1,,,,,,,,,,,,,,,,,,,,,,,,,,,,,,,,,,,,,,,,,,,,,,,,,,,,,,,,,,,,,,,,,,,,,,,,,,,,,,,,,
,,,,,,,,,,00001605716,2020-10-31_02h50.06.581,swahili,2020.2.4,MacIntel,60,,,,,,,,,,-0.538937717,-0.030926462,0,0,1,0.082885,unsorted_card,23,0,23,0,1,BLAME - LAWAMA,,,,,,,,,,,,,,,,,,,,,,,,,,,,,,,,,,,,,,,,,,,,,,,,,,,,,,,,,,,,,,,,,,,,,,,,,,,,,,,,
,,,,,,,,,,00001605716,2020-10-31_02h50.06.581,swahili,2020.2.4,MacIntel,60,,,,,,,,,,0.381304253,0.026625305,1,0,1,6.84897,test_pile,24,0,24,0,1,BLAME - LAWAMA,,,,,,,,,,,,,,,,,,,,,,,,,,,,,,,,,,,,,,,,,,,,,,,,,,,,,,,,,,,,,,,,,,,,,,,,,,,,,,,,
,,,,,,,,,,00001605716,2020-10-31_02h50.06.581,swahili,2020.2.4,MacIntel,60,,,,,,,,,,0.381304253,0.026625305,0,0,1,0.06271,test_pile,25,0,25,0,1,,,,,,,,,,,,,,,,,,,,,,,,,,,,,,,,,,,,,,,,,,,,,,,,,,,,,,,,,,,,,,,,,,,,,,,,,,,,,,,,,
,,,,,,,,,,00001605716,2020-10-31_02h50.06.581,swahili,2020.2.4,MacIntel,60,,,,,,,,,,-0.4,-0.117044762,1,0,1,0.433695,unsorted_card,26,0,26,0,1,,,,,,,,,,,,,,,,,,,,,,,,,,,,,,,,,,,,,,,,,,,,,,,,,,,,,,,,,,,,,,,,,,,,,,,,,,,,,,,,,
,,,,,,,,,,00001605716,2020-10-31_02h50.06.581,swahili,2020.2.4,MacIntel,60,,,,,,,,,,-0.4,-0.117044762,0,0,1,0.047735,unsorted_card,27,0,27,0,1,OATH - YAMINI,,,,,,,,,,,,,,,,,,,,,,,,,,,,,,,,,,,,,,,,,,,,,,,,,,,,,,,,,,,,,,,,,,,,,,,,,,,,,,,,
,,,,,,,,,,00001605716,2020-10-31_02h50.06.581,swahili,2020.2.4,MacIntel,60,,,,,,,,,,0.555848524,0.045304887,1,0,1,1.76543,test_pile,28,0,28,0,1,OATH - YAMINI,,,,,,,,,,,,,,,,,,,,,,,,,,,,,,,,,,,,,,,,,,,,,,,,,,,,,,,,,,,,,,,,,,,,,,,,,,,,,,,,
,,,,,,,,,,00001605716,2020-10-31_02h50.06.581,swahili,2020.2.4,MacIntel,60,,,,,,,,,,0.555848524,0.045304887,0,0,1,0.097615,test_pile,29,0,29,0,1,,,,,,,,,,,,,,,,,,,,,,,,,,,,,,,,,,,,,,,,,,,,,,,,,,,,,,,,,,,,,,,,,,,,,,,,,,,,,,,,,
,,,,,,,,,,00001605716,2020-10-31_02h50.06.581,swahili,2020.2.4,MacIntel,60,,,,,,,,,,-0.335698785,-0.160551157,1,0,1,0.483025,unsorted_card,30,0,30,0,1,,,,,,,,,,,,,,,,,,,,,,,,,,,,,,,,,,,,,,,,,,,,,,,,,,,,,,,,,,,,,,,,,,,,,,,,,,,,,,,,,
,,,,,,,,,,00001605716,2020-10-31_02h50.06.581,swahili,2020.2.4,MacIntel,60,,,,,,,,,,-0.335698785,-0.160551157,0,0,1,0.06455,unsorted_card,31,0,31,0,1,CORN - NAFAKA,,,,,,,,,,,,,,,,,,,,,,,,,,,,,,,,,,,,,,,,,,,,,,,,,,,,,,,,,,,,,,,,,,,,,,,,,,,,,,,,
,,,,,,,,,,00001605716,2020-10-31_02h50.06.581,swahili,2020.2.4,MacIntel,60,,,,,,,,,,0.463812934,-0.05137599,1,0,1,1.832735,test_pile,32,0,32,0,1,CORN - NAFAKA,,,,,,,,,,,,,,,,,,,,,,,,,,,,,,,,,,,,,,,,,,,,,,,,,,,,,,,,,,,,,,,,,,,,,,,,,,,,,,,,
,,,,,,,,,,00001605716,2020-10-31_02h50.06.581,swahili,2020.2.4,MacIntel,60,,,,,,,,,,0.463812934,-0.05137599,0,0,1,0.079635,test_pile,33,0,33,0,1,,,,,,,,,,,,,,,,,,,,,,,,,,,,,,,,,,,,,,,,,,,,,,,,,,,,,,,,,,,,,,,,,,,,,,,,,,,,,,,,,
,,,,,,,,,,00001605716,2020-10-31_02h50.06.581,swahili,2020.2.4,MacIntel,60,,,,,,,,,,-0.389241536,-0.085214297,1,0,1,0.516425,unsorted_card,34,0,34,0,1,,,,,,,,,,,,,,,,,,,,,,,,,,,,,,,,,,,,,,,,,,,,,,,,,,,,,,,,,,,,,,,,,,,,,,,,,,,,,,,,,
,,,,,,,,,,00001605716,2020-10-31_02h50.06.581,swahili,2020.2.4,MacIntel,60,,,,,,,,,,-0.389241536,-0.085214297,0,0,1,0.08157,unsorted_card,35,0,35,0,1,POEM - UTENZI,,,,,,,,,,,,,,,,,,,,,,,,,,,,,,,,,,,,,,,,,,,,,,,,,,,,,,,,,,,,,,,,,,,,,,,,,,,,,,,,
,,,,,,,,,,00001605716,2020-10-31_02h50.06.581,swahili,2020.2.4,MacIntel,60,,,,,,,,,,0.525368924,0.005424026,1,0,1,1.231005,test_pile,36,0,36,0,1,POEM - UTENZI,,,,,,,,,,,,,,,,,,,,,,,,,,,,,,,,,,,,,,,,,,,,,,,,,,,,,,,,,,,,,,,,,,,,,,,,,,,,,,,,
,,,,,,,,,,00001605716,2020-10-31_02h50.06.581,swahili,2020.2.4,MacIntel,60,,,,,,,,,,0.525368924,0.005424026,0,0,1,0.05018,test_pile,37,0,37,0,1,,,,,,,,,,,,,,,,,,,,,,,,,,,,,,,,,,,,,,,,,,,,,,,,,,,,,,,,,,,,,,,,,,,,,,,,,,,,,,,,,
,,,,,,,,,,00001605716,2020-10-31_02h50.06.581,swahili,2020.2.4,MacIntel,60,,,,,,,,,,-0.396050347,-0.016386267,1,0,1,0.44784,unsorted_card,38,0,38,0,1,,,,,,,,,,,,,,,,,,,,,,,,,,,,,,,,,,,,,,,,,,,,,,,,,,,,,,,,,,,,,,,,,,,,,,,,,,,,,,,,,
,,,,,,,,,,00001605716,2020-10-31_02h50.06.581,swahili,2020.2.4,MacIntel,60,,,,,,,,,,-0.396050347,-0.016386267,0,0,1,0.050185,unsorted_card,39,0,39,0,1,TAILOR - MSHONI,,,,,,,,,,,,,,,,,,,,,,,,,,,,,,,,,,,,,,,,,,,,,,,,,,,,,,,,,,,,,,,,,,,,,,,,,,,,,,,,
,,,,,,,,,,00001605716,2020-10-31_02h50.06.581,swahili,2020.2.4,MacIntel,60,,,,,,,,,,0.458577474,-0.0011419,1,0,1,1.28185,test_pile,40,0,40,0,1,TAILOR - MSHONI,,,,,,,,,,,,,,,,,,,,,,,,,,,,,,,,,,,,,,,,,,,,,,,,,,,,,,,,,,,,,,,,,,,,,,,,,,,,,,,,
,,,,,,,,,,00001605716,2020-10-31_02h50.06.581,swahili,2020.2.4,MacIntel,60,,,,,,,,,,0.458577474,-0.0011419,0,0,1,0.046135,test_pile,41,0,41,0,1,,,,,,,,,,,,,,,,,,,,,,,,,,,,,,,,,,,,,,,,,,,,,,,,,,,,,,,,,,,,,,,,,,,,,,,,,,,,,,,,,
,,,,,,,,,,00001605716,2020-10-31_02h50.06.581,swahili,2020.2.4,MacIntel,60,,,,,,,,,,-0.548567708,-0.186576964,1,0,1,0.433405,unsorted_card,42,0,42,0,1,,,,,,,,,,,,,,,,,,,,,,,,,,,,,,,,,,,,,,,,,,,,,,,,,,,,,,,,,,,,,,,,,,,,,,,,,,,,,,,,,
,,,,,,,,,,00001605716,2020-10-31_02h50.06.581,swahili,2020.2.4,MacIntel,60,,,,,,,,,,-0.548567708,-0.186576964,0,0,1,0.080435,unsorted_card,43,0,43,0,1,CHEESE - JIBINI,,,,,,,,,,,,,,,,,,,,,,,,,,,,,,,,,,,,,,,,,,,,,,,,,,,,,,,,,,,,,,,,,,,,,,,,,,,,,,,,
,,,,,,,,,,00001605716,2020-10-31_02h50.06.581,swahili,2020.2.4,MacIntel,60,,,,,,,,,,0.577202691,0.032724954,1,0,1,1.416545,test_pile,44,0,44,0,1,CHEESE - JIBINI,,,,,,,,,,,,,,,,,,,,,,,,,,,,,,,,,,,,,,,,,,,,,,,,,,,,,,,,,,,,,,,,,,,,,,,,,,,,,,,,
,,,,,,,,,,00001605716,2020-10-31_02h50.06.581,swahili,2020.2.4,MacIntel,60,,,,,,,,,,0.577202691,0.032724954,0,0,1,0.078485,test_pile,45,0,45,0,1,,,,,,,,,,,,,,,,,,,,,,,,,,,,,,,,,,,,,,,,,,,,,,,,,,,,,,,,,,,,,,,,,,,,,,,,,,,,,,,,,
,,,,,,,,,,00001605716,2020-10-31_02h50.06.581,swahili,2020.2.4,MacIntel,60,,,,,,,,,,-0.272162543,-0.254167935,1,0,1,0.46587,unsorted_card,46,0,46,0,1,,,,,,,,,,,,,,,,,,,,,,,,,,,,,,,,,,,,,,,,,,,,,,,,,,,,,,,,,,,,,,,,,,,,,,,,,,,,,,,,,
,,,,,,,,,,00001605716,2020-10-31_02h50.06.581,swahili,2020.2.4,MacIntel,60,,,,,,,,,,-0.272162543,-0.064602999,0,0,1,0.081675,unsorted_card,47,0,47,0,1,GRAPES - ZABIBU,,,,,,,,,,,,,,,,,,,,,,,,,,,,,,,,,,,,,,,,,,,,,,,,,,,,,,,,,,,,,,,,,,,,,,,,,,,,,,,,
,,,,,,,,,,00001605716,2020-10-31_02h50.06.581,swahili,2020.2.4,MacIntel,60,,,,,,,,,,0.447450087,0.051880329,1,0,1,1.066075,test_pile,48,0,48,0,1,GRAPES - ZABIBU,,,,,,,,,,,,,,,,,,,,,,,,,,,,,,,,,,,,,,,,,,,,,,,,,,,,,,,,,,,,,,,,,,,,,,,,,,,,,,,,
,,,,,,,,,,00001605716,2020-10-31_02h50.06.581,swahili,2020.2.4,MacIntel,60,,,,,,,,,,0.447450087,0.051880329,0,0,1,0.08225,test_pile,49,0,49,0,1,,,,,,,,,,,,,,,,,,,,,,,,,,,,,,,,,,,,,,,,,,,,,,,,,,,,,,,,,,,,,,,,,,,,,,,,,,,,,,,,,
,,,,,,,,,,00001605716,2020-10-31_02h50.06.581,swahili,2020.2.4,MacIntel,60,,,,,,,,,,-0.360188802,-0.161978532,1,0,1,0.431935,unsorted_card,50,0,50,0,1,,,,,,,,,,,,,,,,,,,,,,,,,,,,,,,,,,,,,,,,,,,,,,,,,,,,,,,,,,,,,,,,,,,,,,,,,,,,,,,,,
,,,,,,,,,,00001605716,2020-10-31_02h50.06.581,swahili,2020.2.4,MacIntel,60,,,,,,,,,,-0.360188802,-0.161978532,0,0,1,0.06459,unsorted_card,51,0,51,0,1,GRAVE - KABURI,,,,,,,,,,,,,,,,,,,,,,,,,,,,,,,,,,,,,,,,,,,,,,,,,,,,,,,,,,,,,,,,,,,,,,,,,,,,,,,,
,,,,,,,,,,00001605716,2020-10-31_02h50.06.581,swahili,2020.2.4,MacIntel,60,,,,,,,,,,0.511669922,-0.013845539,1,0,1,1.14899,test_pile,52,0,52,0,1,GRAVE - KABURI,,,,,,,,,,,,,,,,,,,,,,,,,,,,,,,,,,,,,,,,,,,,,,,,,,,,,,,,,,,,,,,,,,,,,,,,,,,,,,,,
,,,,,,,,,,00001605716,2020-10-31_02h50.06.581,swahili,2020.2.4,MacIntel,60,,,,,,,,,,0.511669922,-0.013845539,0,0,1,0.062725,test_pile,53,0,53,0,1,,,,,,,,,,,,,,,,,,,,,,,,,,,,,,,,,,,,,,,,,,,,,,,,,,,,,,,,,,,,,,,,,,,,,,,,,,,,,,,,,
,,,,,,,,,,00001605716,2020-10-31_02h50.06.581,swahili,2020.2.4,MacIntel,60,,,,,,,,,,-0.524462891,-0.048416565,1,0,1,0.35004,unsorted_card,54,0,54,0,1,,,,,,,,,,,,,,,,,,,,,,,,,,,,,,,,,,,,,,,,,,,,,,,,,,,,,,,,,,,,,,,,,,,,,,,,,,,,,,,,,
,,,,,,,,,,00001605716,2020-10-31_02h50.06.581,swahili,2020.2.4,MacIntel,60,,,,,,,,,,-0.524462891,-0.048416565,0,0,1,0.064385,unsorted_card,55,0,55,0,1,MANURE - SAMADI,,,,,,,,,,,,,,,,,,,,,,,,,,,,,,,,,,,,,,,,,,,,,,,,,,,,,,,,,,,,,,,,,,,,,,,,,,,,,,,,
,,,,,,,,,,00001605716,2020-10-31_02h50.06.581,swahili,2020.2.4,MacIntel,60,,,,,,,,,,0.422477214,-0.016119823,1,0,1,2.01376,test_pile,56,0,56,0,1,MANURE - SAMADI,,,,,,,,,,,,,,,,,,,,,,,,,,,,,,,,,,,,,,,,,,,,,,,,,,,,,,,,,,,,,,,,,,,,,,,,,,,,,,,,
,,,,,,,,,,00001605716,2020-10-31_02h50.06.581,swahili,2020.2.4,MacIntel,60,,,,,,,,,,0.422477214,-0.016119823,0,0,1,0.06586,test_pile,57,0,57,0,1,,,,,,,,,,,,,,,,,,,,,,,,,,,,,,,,,,,,,,,,,,,,,,,,,,,,,,,,,,,,,,,,,,,,,,,,,,,,,,,,,
,,,,,,,,,,00001605716,2020-10-31_02h50.06.581,swahili,2020.2.4,MacIntel,60,,,,,,,,,,-0.295909288,-0.011875761,1,0,1,0.414595,unsorted_card,58,0,58,0,1,,,,,,,,,,,,,,,,,,,,,,,,,,,,,,,,,,,,,,,,,,,,,,,,,,,,,,,,,,,,,,,,,,,,,,,,,,,,,,,,,
,,,,,,,,,,00001605716,2020-10-31_02h50.06.581,swahili,2020.2.4,MacIntel,60,,,,,,,,,,-0.295909288,-0.011875761,0,0,1,0.066675,unsorted_card,59,0,59,0,1,AGENT - WAKILI,,,,,,,,,,,,,,,,,,,,,,,,,,,,,,,,,,,,,,,,,,,,,,,,,,,,,,,,,,,,,,,,,,,,,,,,,,,,,,,,
,,,,,,,,,,00001605716,2020-10-31_02h50.06.581,swahili,2020.2.4,MacIntel,60,,,,,,,,,,0.423253038,0.049092189,1,0,1,1.29719,test_pile,60,0,60,0,1,AGENT - WAKILI,,,,,,,,,,,,,,,,,,,,,,,,,,,,,,,,,,,,,,,,,,,,,,,,,,,,,,,,,,,,,,,,,,,,,,,,,,,,,,,,
,,,,,,,,,,00001605716,2020-10-31_02h50.06.581,swahili,2020.2.4,MacIntel,60,,,,,,,,,,0.423253038,0.049092189,0,0,1,0.08378,test_pile,61,0,61,0,1,,,,,,,,,,,,,,,,,,,,,,,,,,,,,,,,,,,,,,,,,,,,,,,,,,,,,,,,,,,,,,,,,,,,,,,,,,,,,,,,,
,,,,,,,,,,00001605716,2020-10-31_02h50.06.581,swahili,2020.2.4,MacIntel,60,,,,,,,,,,-0.278477648,0.010714829,1,0,1,0.497915,unsorted_card,62,0,62,0,1,,,,,,,,,,,,,,,,,,,,,,,,,,,,,,,,,,,,,,,,,,,,,,,,,,,,,,,,,,,,,,,,,,,,,,,,,,,,,,,,,
,,,,,,,,,,00001605716,2020-10-31_02h50.06.581,swahili,2020.2.4,MacIntel,60,,,,,,,,,,-0.278477648,0.010714829,0,0,1,0.063105,unsorted_card,63,0,63,0,1,BRIBE - RUSHWA,,,,,,,,,,,,,,,,,,,,,,,,,,,,,,,,,,,,,,,,,,,,,,,,,,,,,,,,,,,,,,,,,,,,,,,,,,,,,,,,
,,,,,,,,,,00001605716,2020-10-31_02h50.06.581,swahili,2020.2.4,MacIntel,60,,,,,,,,,,0.472433811,-0.055648599,1,0,1,1.13352,test_pile,64,0,64,0,1,BRIBE - RUSHWA,,,,,,,,,,,,,,,,,,,,,,,,,,,,,,,,,,,,,,,,,,,,,,,,,,,,,,,,,,,,,,,,,,,,,,,,,,,,,,,,
,,,,,,,,,,00001605716,2020-10-31_02h50.06.581,swahili,2020.2.4,MacIntel,60,,,,,,,,,,0.472433811,-0.055648599,0,0,1,0.07969,test_pile,65,0,65,0,1,,,,,,,,,,,,,,,,,,,,,,,,,,,,,,,,,,,,,,,,,,,,,,,,,,,,,,,,,,,,,,,,,,,,,,,,,,,,,,,,,
,,,,,,,,,,00001605716,2020-10-31_02h50.06.581,swahili,2020.2.4,MacIntel,60,,,,,,,,,,-0.419411892,-0.134230359,1,0,1,0.44577,unsorted_card,66,0,66,0,1,,,,,,,,,,,,,,,,,,,,,,,,,,,,,,,,,,,,,,,,,,,,,,,,,,,,,,,,,,,,,,,,,,,,,,,,,,,,,,,,,
,,,,,,,,,,00001605716,2020-10-31_02h50.06.581,swahili,2020.2.4,MacIntel,60,,,,,,,,,,-0.419411892,-0.134230359,0,0,1,0.064525,unsorted_card,67,0,67,0,1,ORPHAN - YATIMA,,,,,,,,,,,,,,,,,,,,,,,,,,,,,,,,,,,,,,,,,,,,,,,,,,,,,,,,,,,,,,,,,,,,,,,,,,,,,,,,
,,,,,,,,,,00001605716,2020-10-31_02h50.06.581,swahili,2020.2.4,MacIntel,60,,,,,,,,,,0.453249783,-0.09710909,1,0,1,2.167085,test_pile,68,0,68,0,1,ORPHAN - YATIMA,,,,,,,,,,,,,,,,,,,,,,,,,,,,,,,,,,,,,,,,,,,,,,,,,,,,,,,,,,,,,,,,,,,,,,,,,,,,,,,,
,,,,,,,,,,00001605716,2020-10-31_02h50.06.581,swahili,2020.2.4,MacIntel,60,,,,,,,,,,0.453249783,-0.09710909,0,0,1,0.080995,test_pile,69,0,69,0,1,,,,,,,,,,,,,,,,,,,,,,,,,,,,,,,,,,,,,,,,,,,,,,,,,,,,,,,,,,,,,,,,,,,,,,,,,,,,,,,,,
,,,,,,,,,,00001605716,2020-10-31_02h50.06.581,swahili,2020.2.4,MacIntel,60,,,,,,,,,,-0.39187283,-0.103132613,1,0,1,0.3976,unsorted_card,70,0,70,0,1,,,,,,,,,,,,,,,,,,,,,,,,,,,,,,,,,,,,,,,,,,,,,,,,,,,,,,,,,,,,,,,,,,,,,,,,,,,,,,,,,
,,,,,,,,,,00001605716,2020-10-31_02h50.06.581,swahili,2020.2.4,MacIntel,60,,,,,,,,,,-0.39187283,-0.103132613,0,0,1,0.082065,unsorted_card,71,0,71,0,1,DIVORCE - TALAKA,,,,,,,,,,,,,,,,,,,,,,,,,,,,,,,,,,,,,,,,,,,,,,,,,,,,,,,,,,,,,,,,,,,,,,,,,,,,,,,,
,,,,,,,,,,00001605716,2020-10-31_02h50.06.581,swahili,2020.2.4,MacIntel,60,,,,,,,,,,0.362076823,-0.021458206,1,0,1,1.283365,test_pile,72,0,72,0,1,DIVORCE - TALAKA,,,,,,,,,,,,,,,,,,,,,,,,,,,,,,,,,,,,,,,,,,,,,,,,,,,,,,,,,,,,,,,,,,,,,,,,,,,,,,,,
,,,,,,,,,,00001605716,2020-10-31_02h50.06.581,swahili,2020.2.4,MacIntel,60,,,,,,,,,,0.362076823,-0.021458206,0,0,1,0.096775,test_pile,73,0,73,0,1,,,,,,,,,,,,,,,,,,,,,,,,,,,,,,,,,,,,,,,,,,,,,,,,,,,,,,,,,,,,,,,,,,,,,,,,,,,,,,,,,
,,,,,,,,,,00001605716,2020-10-31_02h50.06.581,swahili,2020.2.4,MacIntel,60,,,,,,,,,,-0.578678385,-0.012741702,1,0,1,0.415115,unsorted_card,74,0,74,0,1,,,,,,,,,,,,,,,,,,,,,,,,,,,,,,,,,,,,,,,,,,,,,,,,,,,,,,,,,,,,,,,,,,,,,,,,,,,,,,,,,
,,,,,,,,,,00001605716,2020-10-31_02h50.06.581,swahili,2020.2.4,MacIntel,60,,,,,,,,,,-0.578678385,-0.012741702,0,0,1,0.04959,unsorted_card,75,0,75,0,1,BOAT - MASHUA,,,,,,,,,,,,,,,,,,,,,,,,,,,,,,,,,,,,,,,,,,,,,,,,,,,,,,,,,,,,,,,,,,,,,,,,,,,,,,,,
,,,,,,,,,,00001605716,2020-10-31_02h50.06.581,swahili,2020.2.4,MacIntel,60,,,,,,,,,,0.443305122,-0.044467494,1,0,1,2.53202,test_pile,76,0,76,0,1,BOAT - MASHUA,,,,,,,,,,,,,,,,,,,,,,,,,,,,,,,,,,,,,,,,,,,,,,,,,,,,,,,,,,,,,,,,,,,,,,,,,,,,,,,,
,,,,,,,,,,00001605716,2020-10-31_02h50.06.581,swahili,2020.2.4,MacIntel,60,,,,,,,,,,0.443305122,-0.044467494,0,0,1,0.113015,test_pile,77,0,77,0,1,,,,,,,,,,,,,,,,,,,,,,,,,,,,,,,,,,,,,,,,,,,,,,,,,,,,,,,,,,,,,,,,,,,,,,,,,,,,,,,,,
,,,,,,,,,,00001605716,2020-10-31_02h50.06.581,swahili,2020.2.4,MacIntel,60,,,,,,,,,,-0.409743924,-0.049472823,1,0,1,0.565635,unsorted_card,78,0,78,0,1,,,,,,,,,,,,,,,,,,,,,,,,,,,,,,,,,,,,,,,,,,,,,,,,,,,,,,,,,,,,,,,,,,,,,,,,,,,,,,,,,
,,,,,,,,,,00001605716,2020-10-31_02h50.06.581,swahili,2020.2.4,MacIntel,60,,,,,,,,,,-0.409743924,-0.049472823,0,0,1,0.08242,unsorted_card,79,0,79,0,1,TREASURE - DAFINA,,,,,,,,,,,,,,,,,,,,,,,,,,,,,,,,,,,,,,,,,,,,,,,,,,,,,,,,,,,,,,,,,,,,,,,,,,,,,,,,
,,,,,,,,,,00001605716,2020-10-31_02h50.06.581,swahili,2020.2.4,MacIntel,60,,,,,,,,,,0.408691406,-0.074118834,1,0,1,1.61647,test_pile,80,0,80,0,1,TREASURE - DAFINA,,,,,,,,,,,,,,,,,,,,,,,,,,,,,,,,,,,,,,,,,,,,,,,,,,,,,,,,,,,,,,,,,,,,,,,,,,,,,,,,
,,,,,,,,,,00001605716,2020-10-31_02h50.06.581,swahili,2020.2.4,MacIntel,60,,,,,,,,,,,,,,,,,,,,,,,0.408691406,-0.074118834,0,0,1,0.079415,test_first,,,,,0,0,0,0,1,,,,,,,,,,,,,,,,,,,,,,,,,,,,,,,,,,,,,,,,,,,,,,,,,,,,,,,,,,,,,,,,
,,,,,,,,,,00001605716,2020-10-31_02h50.06.581,swahili,2020.2.4,MacIntel,60,,,,,,,,,,,,,,,,,,,,,,,,,,,,,,,,,,,,,,,return,,,,,,,,,,,2.86083,6.22895,0.363313802,-0.12465743,1,0,1,1.049265,yes,CHEESE,JIBIRI,incorrect,0,0,0,0,1,,,,,,,,,,,,,,,,,,,,,,,,,,,,,,,,,,,,
,,,,,,,,,,00001605716,2020-10-31_02h50.06.581,swahili,2020.2.4,MacIntel,60,,,,,,,,,,,,,,,,,,,,,,,,,,,,,,,,,,,,,,,,,,,,,,,,,,,4.66427,0.352913411,-0.107900046,1,0,1,0.69957,yes,MANURE,SAMADI,incorrect,1,0,1,0,1,,,,,,,,,,,,,,,,,,,,,,,,,,,,,,,,,,,,
,,,,,,,,,,00001605716,2020-10-31_02h50.06.581,swahili,2020.2.4,MacIntel,60,,,,,,,,,,,,,,,,,,,,,,,,,,,,,,,,,,,,,,,,,,,,,,,,,,,13.55089,0.48859592,-0.090742996,1,0,1,0.533035,yes,PLATE,SAHADI,incorrect,2,0,2,0,1,,,,,,,,,,,,,,,,,,,,,,,,,,,,,,,,,,,,
,,,,,,,,,,00001605716,2020-10-31_02h50.06.581,swahili,2020.2.4,MacIntel,60,,,,,,,,,,,,,,,,,,,,,,,,,,,,,,,,,,,,,,,,,,,,,,,,,,,5.69701,0.367046441,-0.111230588,1,0,1,0.817335,yes,BRIBE,RUSHWA,incorrect,3,0,3,0,1,,,,,,,,,,,,,,,,,,,,,,,,,,,,,,,,,,,,
,,,,,,,,,,00001605716,2020-10-31_02h50.06.581,swahili,2020.2.4,MacIntel,60,,,,,,,,,,,,,,,,,,,,,,,,,,,,,,,,,,,,,,,,,,,,,,,,,,,10.33118,0.438226997,-0.092912607,1,0,1,0.85026,yes,CORN,KASUKU,incorrect,4,0,4,0,1,,,,,,,,,,,,,,,,,,,,,,,,,,,,,,,,,,,,
,,,,,,,,,,00001605716,2020-10-31_02h50.06.581,swahili,2020.2.4,MacIntel,60,,,,,,,,,,,,,,,,,,,,,,,,,,,,,,,,,,,,,,,,,,,,,,,,,,,7.149475,0.424761285,-0.07606958,1,0,1,0.54794,yes,TAILOR,MSHONI,incorrect,5,0,5,0,1,,,,,,,,,,,,,,,,,,,,,,,,,,,,,,,,,,,,
,,,,,,,,,,00001605716,2020-10-31_02h50.06.581,swahili,2020.2.4,MacIntel,60,,,,,,,,,,,,,,,,,,,,,,,,,,,,,,,,,,,,,,,,,,,,,,,,,,,5.663315,0.392415365,0.022257537,1,0,1,0.48305,yes,TREASURE,DAFINA,incorrect,6,0,6,0,1,,,,,,,,,,,,,,,,,,,,,,,,,,,,,,,,,,,,
,,,,,,,,,,00001605716,2020-10-31_02h50.06.581,swahili,2020.2.4,MacIntel,60,,,,,,,,,,,,,,,,,,,,,,,,,,,,,,,,,,,,,,,,,,,,,,,,,,,2.980335,0.395665148,-0.0514426,1,0,1,0.58306,yes,DIVORCE,TALAKA,incorrect,7,0,7,0,1,,,,,,,,,,,,,,,,,,,,,,,,,,,,,,,,,,,,
,,,,,,,,,,00001605716,2020-10-31_02h50.06.581,swahili,2020.2.4,MacIntel,60,,,,,,,,,,,,,,,,,,,,,,,,,,,,,,,,,,,,,,,,,,,,,,,,,,,3.496675,0.484157986,-0.039462165,1,0,1,0.500495,yes,ORPHAN,YATIMA,incorrect,8,0,8,0,1,,,,,,,,,,,,,,,,,,,,,,,,,,,,,,,,,,,,
,,,,,,,,,,00001605716,2020-10-31_02h50.06.581,swahili,2020.2.4,MacIntel,60,,,,,,,,,,,,,,,,,,,,,,,,,,,,,,,,,,,,,,,,,,,,,,,,,,,4.614175,0.41624349,-0.154508602,1,0,1,0.600085,yes,GRAPES,ZABIBU,incorrect,9,0,9,0,1,,,,,,,,,,,,,,,,,,,,,,,,,,,,,,,,,,,,
,,,,,,,,,,00001605716,2020-10-31_02h50.06.581,swahili,2020.2.4,MacIntel,60,,,,,,,,,,,,,,,,,,,,,,,,,,,,,,,,,,,,,,,,,,,,,,,,,,,4.59713,0.339046224,-0.024379568,1,0,1,0.601475,yes,AGENT,WAKILI,incorrect,10,0,10,0,1,,,,,,,,,,,,,,,,,,,,,,,,,,,,,,,,,,,,
,,,,,,,,,,00001605716,2020-10-31_02h50.06.581,swahili,2020.2.4,MacIntel,60,,,,,,,,,,,,,,,,,,,,,,,,,,,,,,,,,,,,,,,,,,,,,,,,,,,9.997595,0.485091146,-0.041822092,1,0,1,0.750395,yes,GRAVE,ZABUNY,incorrect,11,0,11,0,1,,,,,,,,,,,,,,,,,,,,,,,,,,,,,,,,,,,,
,,,,,,,,,,00001605716,2020-10-31_02h50.06.581,swahili,2020.2.4,MacIntel,60,,,,,,,,,,,,,,,,,,,,,,,,,,,,,,,,,,,,,,,,,,,,,,,,,,,17.94744,0.418484158,-0.007860079,1,0,1,0.58557,yes,BULL,FAHILA,incorrect,12,0,12,0,1,,,,,,,,,,,,,,,,,,,,,,,,,,,,,,,,,,,,
,,,,,,,,,,00001605716,2020-10-31_02h50.06.581,swahili,2020.2.4,MacIntel,60,,,,,,,,,,,,,,,,,,,,,,,,,,,,,,,,,,,,,,,,,,,,,,,,,,,10.56597,0.340592448,-0.134620509,1,0,1,0.665105,yes,BLAME,TALAKA,incorrect,13,0,13,0,1,,,,,,,,,,,,,,,,,,,,,,,,,,,,,,,,,,,,
,,,,,,,,,,00001605716,2020-10-31_02h50.06.581,swahili,2020.2.4,MacIntel,60,,,,,,,,,,,,,,,,,,,,,,,,,,,,,,,,,,,,,,,,,,,,,,,,,,,7.13238,0.457253689,-0.124257765,1,0,1,0.45128,yes,OATH,DAMINA,incorrect,14,0,14,0,1,,,,,,,,,,,,,,,,,,,,,,,,,,,,,,,,,,,,
,,,,,,,,,,00001605716,2020-10-31_02h50.06.581,swahili,2020.2.4,MacIntel,60,,,,,,,,,,,,,,,,,,,,,,,,,,,,,,,,,,,,,,,,,,,,,,,,,,,8.398975,0.395648872,-0.002464601,1,0,1,0.43325,yes,BOAT,DJJD,incorrect,15,0,15,0,1,,,,,,,,,,,,,,,,,,,,,,,,,,,,,,,,,,,,
,,,,,,,,,,00001605716,2020-10-31_02h50.06.581,swahili,2020.2.4,MacIntel,60,,,,,,,,,,,,,,,,,,,,,,,,,,,,,,,,,,,,,,,,,,,,,,,,,,,6.93119,0.490234375,0.038596224,1,0,1,0.449355,yes,POEM,GFB,incorrect,16,0,16,0,1,,,,,,,,,,,,,,,,,,,,,,,,,,,,,,,,,,,,
,,,,,,,,,,00001605716,2020-10-31_02h50.06.581,swahili,2020.2.4,MacIntel,60,,,,,,,,,,,,,,,,,,,,,,,,,,,,,,,,,,,,,,,,0,0,0,0,1,,,,,,,,,,,,,,,,,,,,,,,,,,,,,,,,,,,,,,,,,,,,,,,,,,,,,,,,,,
,,,,,,,,,,00001605716,2020-10-31_02h50.06.581,swahili,2020.2.4,MacIntel,60,,,,,,,,,,,,,,,,,,,,,,MERCHANT - TAJIRI,,,,,,,,return,0.933195,return,57.895725,0,0,0,0,1,,,,,,,,,,,,,,,,,,,,,,,,,,,,,,,,,,,,,,,,,,,,,,,,,,,,,,,,,,,,,,,,
,,,,,,,,,,00001605716,2020-10-31_02h50.06.581,swahili,2020.2.4,MacIntel,60,,,,,,,,,,,,,,,,,,,,,,YEAST - HAMIRA,,,,,,,,,,return,8.03502,1,0,1,0,1,,,,,,,,,,,,,,,,,,,,,,,,,,,,,,,,,,,,,,,,,,,,,,,,,,,,,,,,,,,,,,,,
,,,,,,,,,,00001605716,2020-10-31_02h50.06.581,swahili,2020.2.4,MacIntel,60,,,,,,,,,,,,,,,,,,,,,,PARROT - KASUKU,,,,,,,,,,return,6.51626,2,0,2,0,1,,,,,,,,,,,,,,,,,,,,,,,,,,,,,,,,,,,,,,,,,,,,,,,,,,,,,,,,,,,,,,,,
,,,,,,,,,,00001605716,2020-10-31_02h50.06.581,swahili,2020.2.4,MacIntel,60,,,,,,,,,,,,,,,,,,,,,,,,,,,,,,,,,,,,,,,,1,0,1,0,1,,,,,,,,,,,,,,,,,,,,,,,,,,,,,,,,,,,,,,,,,,,,,,,,,,,,,,,,,,
,,,,,,,,,,00001605716,2020-10-31_02h50.06.581,swahili,2020.2.4,MacIntel,60,,,,,,,,,,,,,,,,,,,,,,,,,,,,,,,,,,,,,,,,,,,,,2,0,2,0,1,,,,,,,,,,,,,,,,,,,,,,,,,,,,,,,,,,,,,,,,,,,,,,,,,,,,,
,,,,,,,,,,00001605716,2020-10-31_02h50.06.581,swahili,2020.2.4,MacIntel,60,,,,,,,,,,-0.323318142,-0.124752588,1,0,1,3.61707,unsorted_card,0,0,0,0,1,,,,,,,,,,,,,,,,,,,,,,,,,,,,,,,,,,,,,,,,,,,,,,,,,,,,,,,,,,,,,,,,,,,,,,,,,,,,,,,,,
,,,,,,,,,,00001605716,2020-10-31_02h50.06.581,swahili,2020.2.4,MacIntel,60,,,,,,,,,,-0.323318142,-0.124752588,0,0,1,0.081555,unsorted_card,1,0,1,0,1,MERCHANT - TAJIRI,,,,,,,,,,,,,,,,,,,,,,,,,,,,,,,,,,,,,,,,,,,,,,,,,,,,,,,,,,,,,,,,,,,,,,,,,,,,,,,,
,,,,,,,,,,00001605716,2020-10-31_02h50.06.581,swahili,2020.2.4,MacIntel,60,,,,,,,,,,0.494623481,0.045057476,1,0,1,2.216175,test_pile,2,0,2,0,1,MERCHANT - TAJIRI,,,,,,,,,,,,,,,,,,,,,,,,,,,,,,,,,,,,,,,,,,,,,,,,,,,,,,,,,,,,,,,,,,,,,,,,,,,,,,,,
,,,,,,,,,,00001605716,2020-10-31_02h50.06.581,swahili,2020.2.4,MacIntel,60,,,,,,,,,,0.494623481,0.045057476,0,0,1,0.09812,test_pile,3,0,3,0,1,,,,,,,,,,,,,,,,,,,,,,,,,,,,,,,,,,,,,,,,,,,,,,,,,,,,,,,,,,,,,,,,,,,,,,,,,,,,,,,,,
,,,,,,,,,,00001605716,2020-10-31_02h50.06.581,swahili,2020.2.4,MacIntel,60,,,,,,,,,,-0.241276042,-0.09192296,1,0,1,2.483725,unsorted_card,4,0,4,0,1,,,,,,,,,,,,,,,,,,,,,,,,,,,,,,,,,,,,,,,,,,,,,,,,,,,,,,,,,,,,,,,,,,,,,,,,,,,,,,,,,
,,,,,,,,,,00001605716,2020-10-31_02h50.06.581,swahili,2020.2.4,MacIntel,60,,,,,,,,,,-0.241276042,-0.09192296,0,0,1,0.065105,unsorted_card,5,0,5,0,1,PARROT - KASUKU,,,,,,,,,,,,,,,,,,,,,,,,,,,,,,,,,,,,,,,,,,,,,,,,,,,,,,,,,,,,,,,,,,,,,,,,,,,,,,,,
,,,,,,,,,,00001605716,2020-10-31_02h50.06.581,swahili,2020.2.4,MacIntel,60,,,,,,,,,,0.45422092,0.026596757,1,0,1,1.76409,test_pile,6,0,6,0,1,PARROT - KASUKU,,,,,,,,,,,,,,,,,,,,,,,,,,,,,,,,,,,,,,,,,,,,,,,,,,,,,,,,,,,,,,,,,,,,,,,,,,,,,,,,
,,,,,,,,,,00001605716,2020-10-31_02h50.06.581,swahili,2020.2.4,MacIntel,60,,,,,,,,,,0.45422092,0.026596757,0,0,1,0.09576,test_pile,7,0,7,0,1,,,,,,,,,,,,,,,,,,,,,,,,,,,,,,,,,,,,,,,,,,,,,,,,,,,,,,,,,,,,,,,,,,,,,,,,,,,,,,,,,
,,,,,,,,,,00001605716,2020-10-31_02h50.06.581,swahili,2020.2.4,MacIntel,60,,,,,,,,,,-0.536724175,-0.115760125,1,0,1,0.716495,unsorted_card,8,0,8,0,1,,,,,,,,,,,,,,,,,,,,,,,,,,,,,,,,,,,,,,,,,,,,,,,,,,,,,,,,,,,,,,,,,,,,,,,,,,,,,,,,,
,,,,,,,,,,00001605716,2020-10-31_02h50.06.581,swahili,2020.2.4,MacIntel,60,,,,,,,,,,-0.536724175,-0.115760125,0,0,1,0.08078,unsorted_card,9,0,9,0,1,BULL - FAHILI,,,,,,,,,,,,,,,,,,,,,,,,,,,,,,,,,,,,,,,,,,,,,,,,,,,,,,,,,,,,,,,,,,,,,,,,,,,,,,,,
,,,,,,,,,,00001605716,2020-10-31_02h50.06.581,swahili,2020.2.4,MacIntel,60,,,,,,,,,,0.393880208,0.020792098,1,0,1,3.33391,test_pile,10,0,10,0,1,BULL - FAHILI,,,,,,,,,,,,,,,,,,,,,,,,,,,,,,,,,,,,,,,,,,,,,,,,,,,,,,,,,,,,,,,,,,,,,,,,,,,,,,,,
,,,,,,,,,,00001605716,2020-10-31_02h50.06.581,swahili,2020.2.4,MacIntel,60,,,,,,,,,,0.393880208,0.020792098,0,0,1,0.12937,test_pile,11,0,11,0,1,,,,,,,,,,,,,,,,,,,,,,,,,,,,,,,,,,,,,,,,,,,,,,,,,,,,,,,,,,,,,,,,,,,,,,,,,,,,,,,,,
,,,,,,,,,,00001605716,2020-10-31_02h50.06.581,swahili,2020.2.4,MacIntel,60,,,,,,,,,,-0.314778646,-0.078039357,1,0,1,0.70094,unsorted_card,12,0,12,0,1,,,,,,,,,,,,,,,,,,,,,,,,,,,,,,,,,,,,,,,,,,,,,,,,,,,,,,,,,,,,,,,,,,,,,,,,,,,,,,,,,
,,,,,,,,,,00001605716,2020-10-31_02h50.06.581,swahili,2020.2.4,MacIntel,60,,,,,,,,,,-0.314778646,-0.078039357,0,0,1,0.08104,unsorted_card,13,0,13,0,1,PLATE - SAHANI,,,,,,,,,,,,,,,,,,,,,,,,,,,,,,,,,,,,,,,,,,,,,,,,,,,,,,,,,,,,,,,,,,,,,,,,,,,,,,,,
,,,,,,,,,,00001605716,2020-10-31_02h50.06.581,swahili,2020.2.4,MacIntel,60,,,,,,,,,,0.35851237,0.521515301,1,0,1,5.298505,study_pile,14,0,14,0,1,PLATE - SAHANI,,,,,,,,,,,,,,,,,,,,,,,,,,,,,,,,,,,,,,,,,,,,,,,,,,,,,,,,,,,,,,,,,,,,,,,,,,,,,,,,
,,,,,,,,,,00001605716,2020-10-31_02h50.06.581,swahili,2020.2.4,MacIntel,60,,,,,,,,,,0.35851237,0.521515301,0,0,1,0.081075,study_pile,15,0,15,0,1,,,,,,,,,,,,,,,,,,,,,,,,,,,,,,,,,,,,,,,,,,,,,,,,,,,,,,,,,,,,,,,,,,,,,,,,,,,,,,,,,
,,,,,,,,,,00001605716,2020-10-31_02h50.06.581,swahili,2020.2.4,MacIntel,60,,,,,,,,,,-0.221598307,-0.033134135,1,0,1,0.9006,unsorted_card,16,0,16,0,1,,,,,,,,,,,,,,,,,,,,,,,,,,,,,,,,,,,,,,,,,,,,,,,,,,,,,,,,,,,,,,,,,,,,,,,,,,,,,,,,,
,,,,,,,,,,00001605716,2020-10-31_02h50.06.581,swahili,2020.2.4,MacIntel,60,,,,,,,,,,-0.221598307,-0.033134135,0,0,1,0.09774,unsorted_card,17,0,17,0,1,YEAST - HAMIRA,,,,,,,,,,,,,,,,,,,,,,,,,,,,,,,,,,,,,,,,,,,,,,,,,,,,,,,,,,,,,,,,,,,,,,,,,,,,,,,,
,,,,,,,,,,00001605716,2020-10-31_02h50.06.581,swahili,2020.2.4,MacIntel,60,,,,,,,,,,0.388633898,-0.014073919,1,0,1,2.398445,test_pile,18,0,18,0,1,YEAST - HAMIRA,,,,,,,,,,,,,,,,,,,,,,,,,,,,,,,,,,,,,,,,,,,,,,,,,,,,,,,,,,,,,,,,,,,,,,,,,,,,,,,,
,,,,,,,,,,00001605716,2020-10-31_02h50.06.581,swahili,2020.2.4,MacIntel,60,,,,,,,,,,0.388633898,-0.014073919,0,0,1,0.09783,test_pile,19,0,19,0,1,,,,,,,,,,,,,,,,,,,,,,,,,,,,,,,,,,,,,,,,,,,,,,,,,,,,,,,,,,,,,,,,,,,,,,,,,,,,,,,,,
,,,,,,,,,,00001605716,2020-10-31_02h50.06.581,swahili,2020.2.4,MacIntel,60,,,,,,,,,,-0.313655599,-0.170866322,1,0,1,0.580905,unsorted_card,20,0,20,0,1,,,,,,,,,,,,,,,,,,,,,,,,,,,,,,,,,,,,,,,,,,,,,,,,,,,,,,,,,,,,,,,,,,,,,,,,,,,,,,,,,
,,,,,,,,,,00001605716,2020-10-31_02h50.06.581,swahili,2020.2.4,MacIntel,60,,,,,,,,,,-0.313655599,-0.170866322,0,0,1,0.08316,unsorted_card,21,0,21,0,1,BLAME - LAWAMA,,,,,,,,,,,,,,,,,,,,,,,,,,,,,,,,,,,,,,,,,,,,,,,,,,,,,,,,,,,,,,,,,,,,,,,,,,,,,,,,
,,,,,,,,,,00001605716,2020-10-31_02h50.06.581,swahili,2020.2.4,MacIntel,60,,,,,,,,,,0.39851888,-0.019307628,1,0,1,2.49778,test_pile,22,0,22,0,1,BLAME - LAWAMA,,,,,,,,,,,,,,,,,,,,,,,,,,,,,,,,,,,,,,,,,,,,,,,,,,,,,,,,,,,,,,,,,,,,,,,,,,,,,,,,
,,,,,,,,,,00001605716,2020-10-31_02h50.06.581,swahili,2020.2.4,MacIntel,60,,,,,,,,,,0.39851888,-0.019307628,0,0,1,0.09893,test_pile,23,0,23,0,1,,,,,,,,,,,,,,,,,,,,,,,,,,,,,,,,,,,,,,,,,,,,,,,,,,,,,,,,,,,,,,,,,,,,,,,,,,,,,,,,,
,,,,,,,,,,00001605716,2020-10-31_02h50.06.581,swahili,2020.2.4,MacIntel,60,,,,,,,,,,-0.237369792,-0.135857567,1,0,1,0.581095,unsorted_card,24,0,24,0,1,,,,,,,,,,,,,,,,,,,,,,,,,,,,,,,,,,,,,,,,,,,,,,,,,,,,,,,,,,,,,,,,,,,,,,,,,,,,,,,,,
,,,,,,,,,,00001605716,2020-10-31_02h50.06.581,swahili,2020.2.4,MacIntel,60,,,,,,,,,,-0.237369792,-0.135857567,0,0,1,0.08208,unsorted_card,25,0,25,0,1,OATH - YAMINI,,,,,,,,,,,,,,,,,,,,,,,,,,,,,,,,,,,,,,,,,,,,,,,,,,,,,,,,,,,,,,,,,,,,,,,,,,,,,,,,
,,,,,,,,,,00001605716,2020-10-31_02h50.06.581,swahili,2020.2.4,MacIntel,60,,,,,,,,,,0.401616753,-0.105416413,1,0,1,2.350175,test_pile,26,0,26,0,1,OATH - YAMINI,,,,,,,,,,,,,,,,,,,,,,,,,,,,,,,,,,,,,,,,,,,,,,,,,,,,,,,,,,,,,,,,,,,,,,,,,,,,,,,,
,,,,,,,,,,00001605716,2020-10-31_02h50.06.581,swahili,2020.2.4,MacIntel,60,,,,,,,,,,0.401616753,-0.105416413,0,0,1,0.07989,test_pile,27,0,27,0,1,,,,,,,,,,,,,,,,,,,,,,,,,,,,,,,,,,,,,,,,,,,,,,,,,,,,,,,,,,,,,,,,,,,,,,,,,,,,,,,,,
,,,,,,,,,,00001605716,2020-10-31_02h50.06.581,swahili,2020.2.4,MacIntel,60,,,,,,,,,,-0.353580729,-0.191058922,1,0,1,0.55052,unsorted_card,28,0,28,0,1,,,,,,,,,,,,,,,,,,,,,,,,,,,,,,,,,,,,,,,,,,,,,,,,,,,,,,,,,,,,,,,,,,,,,,,,,,,,,,,,,
,,,,,,,,,,00001605716,2020-10-31_02h50.06.581,swahili,2020.2.4,MacIntel,60,,,,,,,,,,-0.353580729,-0.191058922,0,0,1,0.064255,unsorted_card,29,0,29,0,1,CORN - NAFAKA,,,,,,,,,,,,,,,,,,,,,,,,,,,,,,,,,,,,,,,,,,,,,,,,,,,,,,,,,,,,,,,,,,,,,,,,,,,,,,,,
,,,,,,,,,,00001605716,2020-10-31_02h50.06.581,swahili,2020.2.4,MacIntel,60,,,,,,,,,,0.422905816,0.406316611,1,0,1,2.73246,study_pile,30,0,30,0,1,CORN - NAFAKA,,,,,,,,,,,,,,,,,,,,,,,,,,,,,,,,,,,,,,,,,,,,,,,,,,,,,,,,,,,,,,,,,,,,,,,,,,,,,,,,
,,,,,,,,,,00001605716,2020-10-31_02h50.06.581,swahili,2020.2.4,MacIntel,60,,,,,,,,,,0.422905816,0.406316611,0,0,1,0.097055,study_pile,31,0,31,0,1,,,,,,,,,,,,,,,,,,,,,,,,,,,,,,,,,,,,,,,,,,,,,,,,,,,,,,,,,,,,,,,,,,,,,,,,,,,,,,,,,
,,,,,,,,,,00001605716,2020-10-31_02h50.06.581,swahili,2020.2.4,MacIntel,60,,,,,,,,,,-0.270350477,-0.045552299,1,0,1,0.632985,unsorted_card,32,0,32,0,1,,,,,,,,,,,,,,,,,,,,,,,,,,,,,,,,,,,,,,,,,,,,,,,,,,,,,,,,,,,,,,,,,,,,,,,,,,,,,,,,,
,,,,,,,,,,00001605716,2020-10-31_02h50.06.581,swahili,2020.2.4,MacIntel,60,,,,,,,,,,-0.270350477,-0.045552299,0,0,1,0.08084,unsorted_card,33,0,33,0,1,POEM - UTENZI,,,,,,,,,,,,,,,,,,,,,,,,,,,,,,,,,,,,,,,,,,,,,,,,,,,,,,,,,,,,,,,,,,,,,,,,,,,,,,,,
,,,,,,,,,,00001605716,2020-10-31_02h50.06.581,swahili,2020.2.4,MacIntel,60,,,,,,,,,,0.479741753,-0.034133298,1,0,1,18.91385,test_pile,34,0,34,0,1,POEM - UTENZI,,,,,,,,,,,,,,,,,,,,,,,,,,,,,,,,,,,,,,,,,,,,,,,,,,,,,,,,,,,,,,,,,,,,,,,,,,,,,,,,
,,,,,,,,,,00001605716,2020-10-31_02h50.06.581,swahili,2020.2.4,MacIntel,60,,,,,,,,,,0.479741753,-0.034133298,0,0,1,0.048405,test_pile,35,0,35,0,1,,,,,,,,,,,,,,,,,,,,,,,,,,,,,,,,,,,,,,,,,,,,,,,,,,,,,,,,,,,,,,,,,,,,,,,,,,,,,,,,,
,,,,,,,,,,00001605716,2020-10-31_02h50.06.581,swahili,2020.2.4,MacIntel,60,,,,,,,,,,-0.467198351,-0.134582445,1,0,1,0.780655,unsorted_card,36,0,36,0,1,,,,,,,,,,,,,,,,,,,,,,,,,,,,,,,,,,,,,,,,,,,,,,,,,,,,,,,,,,,,,,,,,,,,,,,,,,,,,,,,,
,,,,,,,,,,00001605716,2020-10-31_02h50.06.581,swahili,2020.2.4,MacIntel,60,,,,,,,,,,-0.467198351,-0.134582445,0,0,1,0.081645,unsorted_card,37,0,37,0,1,TAILOR - MSHONI,,,,,,,,,,,,,,,,,,,,,,,,,,,,,,,,,,,,,,,,,,,,,,,,,,,,,,,,,,,,,,,,,,,,,,,,,,,,,,,,
,,,,,,,,,,00001605716,2020-10-31_02h50.06.581,swahili,2020.2.4,MacIntel,60,,,,,,,,,,0.353781467,0.056904689,1,0,1,2.10023,test_pile,38,0,38,0,1,TAILOR - MSHONI,,,,,,,,,,,,,,,,,,,,,,,,,,,,,,,,,,,,,,,,,,,,,,,,,,,,,,,,,,,,,,,,,,,,,,,,,,,,,,,,
,,,,,,,,,,00001605716,2020-10-31_02h50.06.581,swahili,2020.2.4,MacIntel,60,,,,,,,,,,0.353781467,0.056904689,0,0,1,0.079405,test_pile,39,0,39,0,1,,,,,,,,,,,,,,,,,,,,,,,,,,,,,,,,,,,,,,,,,,,,,,,,,,,,,,,,,,,,,,,,,,,,,,,,,,,,,,,,,
,,,,,,,,,,00001605716,2020-10-31_02h50.06.581,swahili,2020.2.4,MacIntel,60,,,,,,,,,,-0.41328125,-0.09386419,1,0,1,0.61704,unsorted_card,40,0,40,0,1,,,,,,,,,,,,,,,,,,,,,,,,,,,,,,,,,,,,,,,,,,,,,,,,,,,,,,,,,,,,,,,,,,,,,,,,,,,,,,,,,
,,,,,,,,,,00001605716,2020-10-31_02h50.06.581,swahili,2020.2.4,MacIntel,60,,,,,,,,,,-0.41328125,-0.09386419,0,0,1,0.09501,unsorted_card,41,0,41,0,1,CHEESE - JIBINI,,,,,,,,,,,,,,,,,,,,,,,,,,,,,,,,,,,,,,,,,,,,,,,,,,,,,,,,,,,,,,,,,,,,,,,,,,,,,,,,
,,,,,,,,,,00001605716,2020-10-31_02h50.06.581,swahili,2020.2.4,MacIntel,60,,,,,,,,,,0.439952257,0.048939936,1,0,1,1.632695,test_pile,42,0,42,0,1,CHEESE - JIBINI,,,,,,,,,,,,,,,,,,,,,,,,,,,,,,,,,,,,,,,,,,,,,,,,,,,,,,,,,,,,,,,,,,,,,,,,,,,,,,,,
,,,,,,,,,,00001605716,2020-10-31_02h50.06.581,swahili,2020.2.4,MacIntel,60,,,,,,,,,,0.439952257,0.048939936,0,0,1,0.098615,test_pile,43,0,43,0,1,,,,,,,,,,,,,,,,,,,,,,,,,,,,,,,,,,,,,,,,,,,,,,,,,,,,,,,,,,,,,,,,,,,,,,,,,,,,,,,,,
,,,,,,,,,,00001605716,2020-10-31_02h50.06.581,swahili,2020.2.4,MacIntel,60,,,,,,,,,,-0.303260634,-0.191791641,1,0,1,0.56526,unsorted_card,44,0,44,0,1,,,,,,,,,,,,,,,,,,,,,,,,,,,,,,,,,,,,,,,,,,,,,,,,,,,,,,,,,,,,,,,,,,,,,,,,,,,,,,,,,
,,,,,,,,,,00001605716,2020-10-31_02h50.06.581,swahili,2020.2.4,MacIntel,60,,,,,,,,,,-0.303260634,-0.191791641,0,0,1,0.047715,unsorted_card,45,0,45,0,1,GRAPES - ZABIBU,,,,,,,,,,,,,,,,,,,,,,,,,,,,,,,,,,,,,,,,,,,,,,,,,,,,,,,,,,,,,,,,,,,,,,,,,,,,,,,,
,,,,,,,,,,00001605716,2020-10-31_02h50.06.581,swahili,2020.2.4,MacIntel,60,,,,,,,,,,0.420106337,0.067981121,1,0,1,1.397695,test_pile,46,0,46,0,1,GRAPES - ZABIBU,,,,,,,,,,,,,,,,,,,,,,,,,,,,,,,,,,,,,,,,,,,,,,,,,,,,,,,,,,,,,,,,,,,,,,,,,,,,,,,,
,,,,,,,,,,00001605716,2020-10-31_02h50.06.581,swahili,2020.2.4,MacIntel,60,,,,,,,,,,0.420106337,0.067981121,0,0,1,0.098295,test_pile,47,0,47,0,1,,,,,,,,,,,,,,,,,,,,,,,,,,,,,,,,,,,,,,,,,,,,,,,,,,,,,,,,,,,,,,,,,,,,,,,,,,,,,,,,,
,,,,,,,,,,00001605716,2020-10-31_02h50.06.581,swahili,2020.2.4,MacIntel,60,,,,,,,,,,-0.223117405,-0.085956532,1,0,1,0.517405,unsorted_card,48,0,48,0,1,,,,,,,,,,,,,,,,,,,,,,,,,,,,,,,,,,,,,,,,,,,,,,,,,,,,,,,,,,,,,,,,,,,,,,,,,,,,,,,,,
,,,,,,,,,,00001605716,2020-10-31_02h50.06.581,swahili,2020.2.4,MacIntel,60,,,,,,,,,,-0.223117405,-0.085956532,0,0,1,0.09686,unsorted_card,49,0,49,0,1,GRAVE - KABURI,,,,,,,,,,,,,,,,,,,,,,,,,,,,,,,,,,,,,,,,,,,,,,,,,,,,,,,,,,,,,,,,,,,,,,,,,,,,,,,,
,,,,,,,,,,00001605716,2020-10-31_02h50.06.581,swahili,2020.2.4,MacIntel,60,,,,,,,,,,0.515652127,0.032572701,1,0,1,2.43238,test_pile,50,0,50,0,1,GRAVE - KABURI,,,,,,,,,,,,,,,,,,,,,,,,,,,,,,,,,,,,,,,,,,,,,,,,,,,,,,,,,,,,,,,,,,,,,,,,,,,,,,,,
,,,,,,,,,,00001605716,2020-10-31_02h50.06.581,swahili,2020.2.4,MacIntel,60,,,,,,,,,,0.515652127,0.032572701,0,0,1,0.11591,test_pile,51,0,51,0,1,,,,,,,,,,,,,,,,,,,,,,,,,,,,,,,,,,,,,,,,,,,,,,,,,,,,,,,,,,,,,,,,,,,,,,,,,,,,,,,,,
,,,,,,,,,,00001605716,2020-10-31_02h50.06.581,swahili,2020.2.4,MacIntel,60,,,,,,,,,,-0.469330512,-0.082882917,1,0,1,0.765675,unsorted_card,52,0,52,0,1,,,,,,,,,,,,,,,,,,,,,,,,,,,,,,,,,,,,,,,,,,,,,,,,,,,,,,,,,,,,,,,,,,,,,,,,,,,,,,,,,
,,,,,,,,,,00001605716,2020-10-31_02h50.06.581,swahili,2020.2.4,MacIntel,60,,,,,,,,,,-0.469330512,-0.082882917,0,0,1,0.097715,unsorted_card,53,0,53,0,1,MANURE - SAMADI,,,,,,,,,,,,,,,,,,,,,,,,,,,,,,,,,,,,,,,,,,,,,,,,,,,,,,,,,,,,,,,,,,,,,,,,,,,,,,,,
,,,,,,,,,,00001605716,2020-10-31_02h50.06.581,swahili,2020.2.4,MacIntel,60,,,,,,,,,,0.339067925,0.0535456,1,0,1,1.54781,test_pile,54,0,54,0,1,MANURE - SAMADI,,,,,,,,,,,,,,,,,,,,,,,,,,,,,,,,,,,,,,,,,,,,,,,,,,,,,,,,,,,,,,,,,,,,,,,,,,,,,,,,
,,,,,,,,,,00001605716,2020-10-31_02h50.06.581,swahili,2020.2.4,MacIntel,60,,,,,,,,,,0.339067925,0.0535456,0,0,1,0.09863,test_pile,55,0,55,0,1,,,,,,,,,,,,,,,,,,,,,,,,,,,,,,,,,,,,,,,,,,,,,,,,,,,,,,,,,,,,,,,,,,,,,,,,,,,,,,,,,
,,,,,,,,,,00001605716,2020-10-31_02h50.06.581,swahili,2020.2.4,MacIntel,60,,,,,,,,,,-0.465597873,0.011181105,1,0,1,0.48181,unsorted_card,56,0,56,0,1,,,,,,,,,,,,,,,,,,,,,,,,,,,,,,,,,,,,,,,,,,,,,,,,,,,,,,,,,,,,,,,,,,,,,,,,,,,,,,,,,
,,,,,,,,,,00001605716,2020-10-31_02h50.06.581,swahili,2020.2.4,MacIntel,60,,,,,,,,,,-0.465597873,0.011181105,0,0,1,0.09895,unsorted_card,57,0,57,0,1,AGENT - WAKILI,,,,,,,,,,,,,,,,,,,,,,,,,,,,,,,,,,,,,,,,,,,,,,,,,,,,,,,,,,,,,,,,,,,,,,,,,,,,,,,,
,,,,,,,,,,00001605716,2020-10-31_02h50.06.581,swahili,2020.2.4,MacIntel,60,,,,,,,,,,0.516503906,-0.014682932,1,0,1,5.582565,test_pile,58,0,58,0,1,AGENT - WAKILI,,,,,,,,,,,,,,,,,,,,,,,,,,,,,,,,,,,,,,,,,,,,,,,,,,,,,,,,,,,,,,,,,,,,,,,,,,,,,,,,
,,,,,,,,,,00001605716,2020-10-31_02h50.06.581,swahili,2020.2.4,MacIntel,60,,,,,,,,,,0.516503906,-0.014682932,0,0,1,0.133215,test_pile,59,0,59,0,1,,,,,,,,,,,,,,,,,,,,,,,,,,,,,,,,,,,,,,,,,,,,,,,,,,,,,,,,,,,,,,,,,,,,,,,,,,,,,,,,,
,,,,,,,,,,00001605716,2020-10-31_02h50.06.581,swahili,2020.2.4,MacIntel,60,,,,,,,,,,-0.352403429,-0.018451203,1,0,1,0.499215,unsorted_card,60,0,60,0,1,,,,,,,,,,,,,,,,,,,,,,,,,,,,,,,,,,,,,,,,,,,,,,,,,,,,,,,,,,,,,,,,,,,,,,,,,,,,,,,,,
,,,,,,,,,,00001605716,2020-10-31_02h50.06.581,swahili,2020.2.4,MacIntel,60,,,,,,,,,,-0.352403429,-0.018451203,0,0,1,0.11431,unsorted_card,61,0,61,0,1,BRIBE - RUSHWA,,,,,,,,,,,,,,,,,,,,,,,,,,,,,,,,,,,,,,,,,,,,,,,,,,,,,,,,,,,,,,,,,,,,,,,,,,,,,,,,
,,,,,,,,,,00001605716,2020-10-31_02h50.06.581,swahili,2020.2.4,MacIntel,60,,,,,,,,,,0.457926432,0.0569713,1,0,1,1.38143,test_pile,62,0,62,0,1,BRIBE - RUSHWA,,,,,,,,,,,,,,,,,,,,,,,,,,,,,,,,,,,,,,,,,,,,,,,,,,,,,,,,,,,,,,,,,,,,,,,,,,,,,,,,
,,,,,,,,,,00001605716,2020-10-31_02h50.06.581,swahili,2020.2.4,MacIntel,60,,,,,,,,,,0.457926432,0.0569713,0,0,1,0.081925,test_pile,63,0,63,0,1,,,,,,,,,,,,,,,,,,,,,,,,,,,,,,,,,,,,,,,,,,,,,,,,,,,,,,,,,,,,,,,,,,,,,,,,,,,,,,,,,
,,,,,,,,,,00001605716,2020-10-31_02h50.06.581,swahili,2020.2.4,MacIntel,60,,,,,,,,,,-0.349473741,-0.110621574,1,0,1,0.531635,unsorted_card,64,0,64,0,1,,,,,,,,,,,,,,,,,,,,,,,,,,,,,,,,,,,,,,,,,,,,,,,,,,,,,,,,,,,,,,,,,,,,,,,,,,,,,,,,,
,,,,,,,,,,00001605716,2020-10-31_02h50.06.581,swahili,2020.2.4,MacIntel,60,,,,,,,,,,-0.349473741,-0.110621574,0,0,1,0.097485,unsorted_card,65,0,65,0,1,ORPHAN - YATIMA,,,,,,,,,,,,,,,,,,,,,,,,,,,,,,,,,,,,,,,,,,,,,,,,,,,,,,,,,,,,,,,,,,,,,,,,,,,,,,,,
,,,,,,,,,,00001605716,2020-10-31_02h50.06.581,swahili,2020.2.4,MacIntel,60,,,,,,,,,,0.386121962,0.030869367,1,0,1,1.365795,test_pile,66,0,66,0,1,ORPHAN - YATIMA,,,,,,,,,,,,,,,,,,,,,,,,,,,,,,,,,,,,,,,,,,,,,,,,,,,,,,,,,,,,,,,,,,,,,,,,,,,,,,,,
,,,,,,,,,,00001605716,2020-10-31_02h50.06.581,swahili,2020.2.4,MacIntel,60,,,,,,,,,,0.386121962,0.030869367,0,0,1,0.11564,test_pile,67,0,67,0,1,,,,,,,,,,,,,,,,,,,,,,,,,,,,,,,,,,,,,,,,,,,,,,,,,,,,,,,,,,,,,,,,,,,,,,,,,,,,,,,,,
,,,,,,,,,,00001605716,2020-10-31_02h50.06.581,swahili,2020.2.4,MacIntel,60,,,,,,,,,,-0.339366319,0.008973432,1,0,1,0.44697,unsorted_card,68,0,68,0,1,,,,,,,,,,,,,,,,,,,,,,,,,,,,,,,,,,,,,,,,,,,,,,,,,,,,,,,,,,,,,,,,,,,,,,,,,,,,,,,,,
,,,,,,,,,,00001605716,2020-10-31_02h50.06.581,swahili,2020.2.4,MacIntel,60,,,,,,,,,,-0.339366319,0.008973432,0,0,1,0.11629,unsorted_card,69,0,69,0,1,DIVORCE - TALAKA,,,,,,,,,,,,,,,,,,,,,,,,,,,,,,,,,,,,,,,,,,,,,,,,,,,,,,,,,,,,,,,,,,,,,,,,,,,,,,,,
,,,,,,,,,,00001605716,2020-10-31_02h50.06.581,swahili,2020.2.4,MacIntel,60,,,,,,,,,,0.378917101,-0.012846376,1,0,1,1.265735,test_pile,70,0,70,0,1,DIVORCE - TALAKA,,,,,,,,,,,,,,,,,,,,,,,,,,,,,,,,,,,,,,,,,,,,,,,,,,,,,,,,,,,,,,,,,,,,,,,,,,,,,,,,
,,,,,,,,,,00001605716,2020-10-31_02h50.06.581,swahili,2020.2.4,MacIntel,60,,,,,,,,,,0.378917101,-0.012846376,0,0,1,0.0796,test_pile,71,0,71,0,1,,,,,,,,,,,,,,,,,,,,,,,,,,,,,,,,,,,,,,,,,,,,,,,,,,,,,,,,,,,,,,,,,,,,,,,,,,,,,,,,,
,,,,,,,,,,00001605716,2020-10-31_02h50.06.581,swahili,2020.2.4,MacIntel,60,,,,,,,,,,-0.307210286,-0.05121422,1,0,1,0.4165,unsorted_card,72,0,72,0,1,,,,,,,,,,,,,,,,,,,,,,,,,,,,,,,,,,,,,,,,,,,,,,,,,,,,,,,,,,,,,,,,,,,,,,,,,,,,,,,,,
,,,,,,,,,,00001605716,2020-10-31_02h50.06.581,swahili,2020.2.4,MacIntel,60,,,,,,,,,,-0.307210286,-0.05121422,0,0,1,0.13079,unsorted_card,73,0,73,0,1,BOAT - MASHUA,,,,,,,,,,,,,,,,,,,,,,,,,,,,,,,,,,,,,,,,,,,,,,,,,,,,,,,,,,,,,,,,,,,,,,,,,,,,,,,,
,,,,,,,,,,00001605716,2020-10-31_02h50.06.581,swahili,2020.2.4,MacIntel,60,,,,,,,,,,0.418858507,0.012208815,1,0,1,6.24972,test_pile,74,0,74,0,1,BOAT - MASHUA,,,,,,,,,,,,,,,,,,,,,,,,,,,,,,,,,,,,,,,,,,,,,,,,,,,,,,,,,,,,,,,,,,,,,,,,,,,,,,,,
,,,,,,,,,,00001605716,2020-10-31_02h50.06.581,swahili,2020.2.4,MacIntel,60,,,,,,,,,,0.418858507,0.012208815,0,0,1,0.114715,test_pile,75,0,75,0,1,,,,,,,,,,,,,,,,,,,,,,,,,,,,,,,,,,,,,,,,,,,,,,,,,,,,,,,,,,,,,,,,,,,,,,,,,,,,,,,,,
,,,,,,,,,,00001605716,2020-10-31_02h50.06.581,swahili,2020.2.4,MacIntel,60,,,,,,,,,,-0.488606771,-0.156849498,1,0,1,0.663655,unsorted_card,76,0,76,0,1,,,,,,,,,,,,,,,,,,,,,,,,,,,,,,,,,,,,,,,,,,,,,,,,,,,,,,,,,,,,,,,,,,,,,,,,,,,,,,,,,
,,,,,,,,,,00001605716,2020-10-31_02h50.06.581,swahili,2020.2.4,MacIntel,60,,,,,,,,,,-0.488606771,-0.156849498,0,0,1,0.114075,unsorted_card,77,0,77,0,1,TREASURE - DAFINA,,,,,,,,,,,,,,,,,,,,,,,,,,,,,,,,,,,,,,,,,,,,,,,,,,,,,,,,,,,,,,,,,,,,,,,,,,,,,,,,
,,,,,,,,,,00001605716,2020-10-31_02h50.06.581,swahili,2020.2.4,MacIntel,60,,,,,,,,,,0.361246745,0.023047351,1,0,1,1.897125,test_pile,78,0,78,0,1,TREASURE - DAFINA,,,,,,,,,,,,,,,,,,,,,,,,,,,,,,,,,,,,,,,,,,,,,,,,,,,,,,,,,,,,,,,,,,,,,,,,,,,,,,,,
,,,,,,,,,,00001605716,2020-10-31_02h50.06.581,swahili,2020.2.4,MacIntel,60,,,,,,,,,,,,,,,,,,,,,,,0.361246745,0.023047351,0,0,1,0.098615,test_first,,,,,0,0,0,0,1,,,,,,,,,,,,,,,,,,,,,,,,,,,,,,,,,,,,,,,,,,,,,,,,,,,,,,,,,,,,,,,,
,,,,,,,,,,00001605716,2020-10-31_02h50.06.581,swahili,2020.2.4,MacIntel,60,,,,,,,,,,,,,,,,,,,,,,,,,,,,,,,,,,,,,,,return,,,,,,,,,,,2.427995,13.38036,0.498735894,-0.007498477,1,0,1,0.567105,yes,YEAST,HAMIRI,incorrect,0,0,0,0,1,,,,,,,,,,,,,,,,,,,,,,,,,,,,,,,,,,,,
,,,,,,,,,,00001605716,2020-10-31_02h50.06.581,swahili,2020.2.4,MacIntel,60,,,,,,,,,,,,,,,,,,,,,,,,,,,,,,,,,,,,,,,,,,,,,,,,,,,8.48274,0.389664714,-0.100943971,1,0,1,0.547885,yes,BOAT,MASHUA,incorrect,1,0,1,0,1,,,,,,,,,,,,,,,,,,,,,,,,,,,,,,,,,,,,
,,,,,,,,,,00001605716,2020-10-31_02h50.06.581,swahili,2020.2.4,MacIntel,60,,,,,,,,,,,,,,,,,,,,,,,,,,,,,,,,,,,,,,,,,,,,,,,,,,,5.44812,0.330875651,-0.103551309,1,0,1,0.484115,yes,BRIBE,RUSHWA,incorrect,2,0,2,0,1,,,,,,,,,,,,,,,,,,,,,,,,,,,,,,,,,,,,
,,,,,,,,,,00001605716,2020-10-31_02h50.06.581,swahili,2020.2.4,MacIntel,60,,,,,,,,,,,,,,,,,,,,,,,,,,,,,,,,,,,,,,,,,,,,,,,,,,,5.333365,0.447634549,0.016367235,1,0,1,0.750085,yes,CHEESE,JIBINI,incorrect,3,0,3,0,1,,,,,,,,,,,,,,,,,,,,,,,,,,,,,,,,,,,,
,,,,,,,,,,00001605716,2020-10-31_02h50.06.581,swahili,2020.2.4,MacIntel,60,,,,,,,,,,,,,,,,,,,,,,,,,,,,,,,,,,,,,,,,,,,,,,,,,,,8.131795,0.451850043,-0.053345767,1,0,1,0.44904,yes,BULL,FAHILI,incorrect,4,0,4,0,1,,,,,,,,,,,,,,,,,,,,,,,,,,,,,,,,,,,,
,,,,,,,,,,00001605716,2020-10-31_02h50.06.581,swahili,2020.2.4,MacIntel,60,,,,,,,,,,,,,,,,,,,,,,,,,,,,,,,,,,,,,,,,,,,,,,,,,,,16.30068,0.408116319,-0.054249772,1,0,1,0.499875,yes,TAILOR,MSHONI,incorrect,5,0,5,0,1,,,,,,,,,,,,,,,,,,,,,,,,,,,,,,,,,,,,
,,,,,,,,,,00001605716,2020-10-31_02h50.06.581,swahili,2020.2.4,MacIntel,60,,,,,,,,,,,,,,,,,,,,,,,,,,,,,,,,,,,,,,,,,,,,,,,,,,,5.930455,0.409640842,-0.137903471,1,0,1,0.483185,yes,BLAME,LAMAWA,incorrect,6,0,6,0,1,,,,,,,,,,,,,,,,,,,,,,,,,,,,,,,,,,,,
,,,,,,,,,,00001605716,2020-10-31_02h50.06.581,swahili,2020.2.4,MacIntel,60,,,,,,,,,,,,,,,,,,,,,,,,,,,,,,,,,,,,,,,,,,,,,,,,,,,10.7001,0.376627604,-0.054754111,1,0,1,0.482195,yes,GRAPES,ZABIBU,incorrect,7,0,7,0,1,,,,,,,,,,,,,,,,,,,,,,,,,,,,,,,,,,,,
,,,,,,,,,,00001605716,2020-10-31_02h50.06.581,swahili,2020.2.4,MacIntel,60,,,,,,,,,,,,,,,,,,,,,,,,,,,,,,,,,,,,,,,,,,,,,,,,,,,9.06447,0.348708767,-0.053564632,1,0,1,0.54987,yes,GRAVE,DABURI,incorrect,8,0,8,0,1,,,,,,,,,,,,,,,,,,,,,,,,,,,,,,,,,,,,
