condition,consent_key.keys,consent_key.rt,done_with_instructions.keys,done_with_instructions.rt,instr_loop.thisRepN,instr_loop.thisTrialN,instr_loop.thisN,instr_loop.thisIndex,instr_loop.ran,Student ID #,date,expName,psychopyVersion,OS,frameRate,instr_learning_key.keys,instr_learning_key.rt,card_gen_loop.thisRepN,card_gen_loop.thisTrialN,card_gen_loop.thisN,card_gen_loop.thisIndex,card_gen_loop.ran,swa,eng,choose_pile.x,choose_pile.y,choose_pile.leftButton,choose_pile.midButton,choose_pile.rightButton,choose_pile.time,choose_pile.clicked_name,choices.thisRepN,choices.thisTrialN,choices.thisN,choices.thisIndex,choices.ran,card_to_show,mouse_pick.x,mouse_pick.y,mouse_pick.leftButton,mouse_pick.midButton,mouse_pick.rightButton,mouse_pick.time,mouse_pick.clicked_name,key_instr_study.keys,key_instr_study.rt,next_study.keys,next_study.rt,study_loop.thisRepN,study_loop.thisTrialN,study_loop.thisN,study_loop.thisIndex,study_loop.ran,key_instr_test.keys,learn_loop.thisRepN,learn_loop.thisTrialN,learn_loop.thisN,learn_loop.thisIndex,learn_loop.ran,trials.thisRepN,trials.thisTrialN,trials.thisN,trials.thisIndex,trials.ran,key_instr_test.rt,duration,yes_or_no.x,yes_or_no.y,yes_or_no.leftButton,yes_or_no.midButton,yes_or_no.rightButton,yes_or_no.time,yes_or_no.clicked_name,test_response.stim,test_response.resp,test_response.eval,test_loop.thisRepN,test_loop.thisTrialN,test_loop.thisN,test_loop.thisIndex,test_loop.ran,instr_movie_key.keys,instr_movie_key.rt,return_to_exp.keys,return_to_exp.rt,instr_assess_key.keys,instr_assess_key.rt,assess_loop.thisRepN,assess_loop.thisTrialN,assess_loop.thisN,assess_loop.thisIndex,assess_loop.ran,ans_gen_loop.thisRepN,ans_gen_loop.thisTrialN,ans_gen_loop.thisN,ans_gen_loop.thisIndex,ans_gen_loop.ran,sen,ans,instr_transfer_key.keys,instr_transfer_key.rt,transfer_response.resp,transfer_response.eval,select_word.x,select_word.y,select_word.leftButton,select_word.midButton,select_word.rightButton,select_word.time,select_word.clicked_name,transfers.thisRepN,transfers.thisTrialN,transfers.thisN,transfers.thisIndex,transfers.ran,end_experiment.keys,end_experiment.rt
2,return,13.146875,return,13.341705,0,0,0,0,1,00001582945,2020-10-27_15h51.00.415,swahili,2020.2.4,MacIntel,60,,,,,,,,,,,,,,,,,,,,,,,,,,,,,,,,,,,,,,,,,,,,,,,,,,,,,,,,,,,,,,,,,,,,,,,,,,,,,,,,,,,,,,,,,,,,,,,,,,,,,,
,,,return,5.118125,1,0,1,0,1,00001582945,2020-10-27_15h51.00.415,swahili,2020.2.4,MacIntel,60,,,,,,,,,,,,,,,,,,,,,,,,,,,,,,,,,,,,,,,,,,,,,,,,,,,,,,,,,,,,,,,,,,,,,,,,,,,,,,,,,,,,,,,,,,,,,,,,,,,,,,
,,,,,,,,,,00001582945,2020-10-27_15h51.00.415,swahili,2020.2.4,MacIntel,60,return,4.025835,0,0,0,0,1,TAJIRI,MERCHANT,,,,,,,,,,,,,,,,,,,,,,,,,,,,,,,,,,,,,,,,,,,,,,,,,,,,,,,,,,,,,,,,,,,,,,,,,,,,,,,,,,,,,,,,,,,,,
,,,,,,,,,,00001582945,2020-10-27_15h51.00.415,swahili,2020.2.4,MacIntel,60,,,0,1,1,1,1,KASUKU,PARROT,,,,,,,,,,,,,,,,,,,,,,,,,,,,,,,,,,,,,,,,,,,,,,,,,,,,,,,,,,,,,,,,,,,,,,,,,,,,,,,,,,,,,,,,,,,,,
,,,,,,,,,,00001582945,2020-10-27_15h51.00.415,swahili,2020.2.4,MacIntel,60,,,0,2,2,2,1,FAHILI,BULL,,,,,,,,,,,,,,,,,,,,,,,,,,,,,,,,,,,,,,,,,,,,,,,,,,,,,,,,,,,,,,,,,,,,,,,,,,,,,,,,,,,,,,,,,,,,,
,,,,,,,,,,00001582945,2020-10-27_15h51.00.415,swahili,2020.2.4,MacIntel,60,,,0,3,3,3,1,SAHANI,PLATE,,,,,,,,,,,,,,,,,,,,,,,,,,,,,,,,,,,,,,,,,,,,,,,,,,,,,,,,,,,,,,,,,,,,,,,,,,,,,,,,,,,,,,,,,,,,,
,,,,,,,,,,00001582945,2020-10-27_15h51.00.415,swahili,2020.2.4,MacIntel,60,,,0,4,4,4,1,HAMIRA,YEAST,,,,,,,,,,,,,,,,,,,,,,,,,,,,,,,,,,,,,,,,,,,,,,,,,,,,,,,,,,,,,,,,,,,,,,,,,,,,,,,,,,,,,,,,,,,,,
,,,,,,,,,,00001582945,2020-10-27_15h51.00.415,swahili,2020.2.4,MacIntel,60,,,0,5,5,5,1,LAWAMA,BLAME,,,,,,,,,,,,,,,,,,,,,,,,,,,,,,,,,,,,,,,,,,,,,,,,,,,,,,,,,,,,,,,,,,,,,,,,,,,,,,,,,,,,,,,,,,,,,
,,,,,,,,,,00001582945,2020-10-27_15h51.00.415,swahili,2020.2.4,MacIntel,60,,,0,6,6,6,1,YAMINI,OATH,,,,,,,,,,,,,,,,,,,,,,,,,,,,,,,,,,,,,,,,,,,,,,,,,,,,,,,,,,,,,,,,,,,,,,,,,,,,,,,,,,,,,,,,,,,,,
,,,,,,,,,,00001582945,2020-10-27_15h51.00.415,swahili,2020.2.4,MacIntel,60,,,0,7,7,7,1,NAFAKA,CORN,,,,,,,,,,,,,,,,,,,,,,,,,,,,,,,,,,,,,,,,,,,,,,,,,,,,,,,,,,,,,,,,,,,,,,,,,,,,,,,,,,,,,,,,,,,,,
,,,,,,,,,,00001582945,2020-10-27_15h51.00.415,swahili,2020.2.4,MacIntel,60,,,0,8,8,8,1,UTENZI,POEM,,,,,,,,,,,,,,,,,,,,,,,,,,,,,,,,,,,,,,,,,,,,,,,,,,,,,,,,,,,,,,,,,,,,,,,,,,,,,,,,,,,,,,,,,,,,,
,,,,,,,,,,00001582945,2020-10-27_15h51.00.415,swahili,2020.2.4,MacIntel,60,,,0,9,9,9,1,MSHONI,TAILOR,,,,,,,,,,,,,,,,,,,,,,,,,,,,,,,,,,,,,,,,,,,,,,,,,,,,,,,,,,,,,,,,,,,,,,,,,,,,,,,,,,,,,,,,,,,,,
,,,,,,,,,,00001582945,2020-10-27_15h51.00.415,swahili,2020.2.4,MacIntel,60,,,0,10,10,10,1,JIBINI,CHEESE,,,,,,,,,,,,,,,,,,,,,,,,,,,,,,,,,,,,,,,,,,,,,,,,,,,,,,,,,,,,,,,,,,,,,,,,,,,,,,,,,,,,,,,,,,,,,
,,,,,,,,,,00001582945,2020-10-27_15h51.00.415,swahili,2020.2.4,MacIntel,60,,,0,11,11,11,1,ZABIBU,GRAPES,,,,,,,,,,,,,,,,,,,,,,,,,,,,,,,,,,,,,,,,,,,,,,,,,,,,,,,,,,,,,,,,,,,,,,,,,,,,,,,,,,,,,,,,,,,,,
,,,,,,,,,,00001582945,2020-10-27_15h51.00.415,swahili,2020.2.4,MacIntel,60,,,0,12,12,12,1,KABURI,GRAVE,,,,,,,,,,,,,,,,,,,,,,,,,,,,,,,,,,,,,,,,,,,,,,,,,,,,,,,,,,,,,,,,,,,,,,,,,,,,,,,,,,,,,,,,,,,,,
,,,,,,,,,,00001582945,2020-10-27_15h51.00.415,swahili,2020.2.4,MacIntel,60,,,0,13,13,13,1,SAMADI,MANURE,,,,,,,,,,,,,,,,,,,,,,,,,,,,,,,,,,,,,,,,,,,,,,,,,,,,,,,,,,,,,,,,,,,,,,,,,,,,,,,,,,,,,,,,,,,,,
,,,,,,,,,,00001582945,2020-10-27_15h51.00.415,swahili,2020.2.4,MacIntel,60,,,0,14,14,14,1,WAKILI,AGENT,,,,,,,,,,,,,,,,,,,,,,,,,,,,,,,,,,,,,,,,,,,,,,,,,,,,,,,,,,,,,,,,,,,,,,,,,,,,,,,,,,,,,,,,,,,,,
,,,,,,,,,,00001582945,2020-10-27_15h51.00.415,swahili,2020.2.4,MacIntel,60,,,0,15,15,15,1,RUSHWA,BRIBE,,,,,,,,,,,,,,,,,,,,,,,,,,,,,,,,,,,,,,,,,,,,,,,,,,,,,,,,,,,,,,,,,,,,,,,,,,,,,,,,,,,,,,,,,,,,,
,,,,,,,,,,00001582945,2020-10-27_15h51.00.415,swahili,2020.2.4,MacIntel,60,,,0,16,16,16,1,YATIMA,ORPHAN,,,,,,,,,,,,,,,,,,,,,,,,,,,,,,,,,,,,,,,,,,,,,,,,,,,,,,,,,,,,,,,,,,,,,,,,,,,,,,,,,,,,,,,,,,,,,
,,,,,,,,,,00001582945,2020-10-27_15h51.00.415,swahili,2020.2.4,MacIntel,60,,,0,17,17,17,1,TALAKA,DIVORCE,,,,,,,,,,,,,,,,,,,,,,,,,,,,,,,,,,,,,,,,,,,,,,,,,,,,,,,,,,,,,,,,,,,,,,,,,,,,,,,,,,,,,,,,,,,,,
,,,,,,,,,,00001582945,2020-10-27_15h51.00.415,swahili,2020.2.4,MacIntel,60,,,0,18,18,18,1,MASHUA,BOAT,,,,,,,,,,,,,,,,,,,,,,,,,,,,,,,,,,,,,,,,,,,,,,,,,,,,,,,,,,,,,,,,,,,,,,,,,,,,,,,,,,,,,,,,,,,,,
,,,,,,,,,,00001582945,2020-10-27_15h51.00.415,swahili,2020.2.4,MacIntel,60,,,0,19,19,19,1,DAFINA,TREASURE,,,,,,,,,,,,,,,,,,,,,,,,,,,,,,,,,,,,,,,,,,,,,,,,,,,,,,,,,,,,,,,,,,,,,,,,,,,,,,,,,,,,,,,,,,,,,
,,,,,,,,,,00001582945,2020-10-27_15h51.00.415,swahili,2020.2.4,MacIntel,60,,,,,,,,,,-0.341845703,-0.059097222,1,0,0,7.6177,unsorted_card,0,0,0,0,1,,,,,,,,,,,,,,,,,,,,,,,,,,,,,,,,,,,,,,,,,,,,,,,,,,,,,,,,,,,,,,,,,,,,,,,,,,,,,,,,,
,,,,,,,,,,00001582945,2020-10-27_15h51.00.415,swahili,2020.2.4,MacIntel,60,,,,,,,,,,-0.341845703,-0.059097222,1,0,0,7.56291,unsorted_card,1,0,1,0,1,MERCHANT - TAJIRI,,,,,,,,,,,,,,,,,,,,,,,,,,,,,,,,,,,,,,,,,,,,,,,,,,,,,,,,,,,,,,,,,,,,,,,,,,,,,,,,
,,,,,,,,,,00001582945,2020-10-27_15h51.00.415,swahili,2020.2.4,MacIntel,60,,,,,,,,,,0.455962457,0.568324653,1,0,0,1.09842,study_pile,2,0,2,0,1,MERCHANT - TAJIRI,,,,,,,,,,,,,,,,,,,,,,,,,,,,,,,,,,,,,,,,,,,,,,,,,,,,,,,,,,,,,,,,,,,,,,,,,,,,,,,,
,,,,,,,,,,00001582945,2020-10-27_15h51.00.415,swahili,2020.2.4,MacIntel,60,,,,,,,,,,-0.44280599,-0.097222222,1,0,0,1.03221,unsorted_card,3,0,3,0,1,,,,,,,,,,,,,,,,,,,,,,,,,,,,,,,,,,,,,,,,,,,,,,,,,,,,,,,,,,,,,,,,,,,,,,,,,,,,,,,,,
,,,,,,,,,,00001582945,2020-10-27_15h51.00.415,swahili,2020.2.4,MacIntel,60,,,,,,,,,,0.459624566,0.418541667,1,0,0,4.69838,study_pile,4,0,4,0,1,PARROT - KASUKU,,,,,,,,,,,,,,,,,,,,,,,,,,,,,,,,,,,,,,,,,,,,,,,,,,,,,,,,,,,,,,,,,,,,,,,,,,,,,,,,
,,,,,,,,,,00001582945,2020-10-27_15h51.00.415,swahili,2020.2.4,MacIntel,60,,,,,,,,,,-0.220751953,-0.015078125,1,0,0,0.814225,unsorted_card,5,0,5,0,1,,,,,,,,,,,,,,,,,,,,,,,,,,,,,,,,,,,,,,,,,,,,,,,,,,,,,,,,,,,,,,,,,,,,,,,,,,,,,,,,,
,,,,,,,,,,00001582945,2020-10-27_15h51.00.415,swahili,2020.2.4,MacIntel,60,,,,,,,,,,0.425303819,0.404027778,1,0,0,3.23093,study_pile,6,0,6,0,1,BULL - FAHILI,,,,,,,,,,,,,,,,,,,,,,,,,,,,,,,,,,,,,,,,,,,,,,,,,,,,,,,,,,,,,,,,,,,,,,,,,,,,,,,,
,,,,,,,,,,00001582945,2020-10-27_15h51.00.415,swahili,2020.2.4,MacIntel,60,,,,,,,,,,-0.261821832,-0.047751736,1,0,0,1.08293,unsorted_card,7,0,7,0,1,,,,,,,,,,,,,,,,,,,,,,,,,,,,,,,,,,,,,,,,,,,,,,,,,,,,,,,,,,,,,,,,,,,,,,,,,,,,,,,,,
,,,,,,,,,,00001582945,2020-10-27_15h51.00.415,swahili,2020.2.4,MacIntel,60,,,,,,,,,,0.436615668,0.431041667,1,0,0,1.947315,study_pile,8,0,8,0,1,PLATE - SAHANI,,,,,,,,,,,,,,,,,,,,,,,,,,,,,,,,,,,,,,,,,,,,,,,,,,,,,,,,,,,,,,,,,,,,,,,,,,,,,,,,
,,,,,,,,,,00001582945,2020-10-27_15h51.00.415,swahili,2020.2.4,MacIntel,60,,,,,,,,,,-0.298931207,-0.032803819,1,0,0,0.616115,unsorted_card,9,0,9,0,1,,,,,,,,,,,,,,,,,,,,,,,,,,,,,,,,,,,,,,,,,,,,,,,,,,,,,,,,,,,,,,,,,,,,,,,,,,,,,,,,,
,,,,,,,,,,00001582945,2020-10-27_15h51.00.415,swahili,2020.2.4,MacIntel,60,,,,,,,,,,0.438015408,0.477248264,1,0,0,1.68012,study_pile,10,0,10,0,1,YEAST - HAMIRA,,,,,,,,,,,,,,,,,,,,,,,,,,,,,,,,,,,,,,,,,,,,,,,,,,,,,,,,,,,,,,,,,,,,,,,,,,,,,,,,
,,,,,,,,,,00001582945,2020-10-27_15h51.00.415,swahili,2020.2.4,MacIntel,60,,,,,,,,,,-0.228700087,-0.044427083,1,0,0,0.530665,unsorted_card,11,0,11,0,1,,,,,,,,,,,,,,,,,,,,,,,,,,,,,,,,,,,,,,,,,,,,,,,,,,,,,,,,,,,,,,,,,,,,,,,,,,,,,,,,,
,,,,,,,,,,00001582945,2020-10-27_15h51.00.415,swahili,2020.2.4,MacIntel,60,,,,,,,,,,0.401448568,0.460737847,1,0,0,2.24781,study_pile,12,0,12,0,1,BLAME - LAWAMA,,,,,,,,,,,,,,,,,,,,,,,,,,,,,,,,,,,,,,,,,,,,,,,,,,,,,,,,,,,,,,,,,,,,,,,,,,,,,,,,
,,,,,,,,,,00001582945,2020-10-27_15h51.00.415,swahili,2020.2.4,MacIntel,60,,,,,,,,,,-0.347135417,-0.105590278,1,0,0,0.58318,unsorted_card,13,0,13,0,1,,,,,,,,,,,,,,,,,,,,,,,,,,,,,,,,,,,,,,,,,,,,,,,,,,,,,,,,,,,,,,,,,,,,,,,,,,,,,,,,,
,,,,,,,,,,00001582945,2020-10-27_15h51.00.415,swahili,2020.2.4,MacIntel,60,,,,,,,,,,0.414811198,0.4584375,1,0,0,1.53285,study_pile,14,0,14,0,1,OATH - YAMINI,,,,,,,,,,,,,,,,,,,,,,,,,,,,,,,,,,,,,,,,,,,,,,,,,,,,,,,,,,,,,,,,,,,,,,,,,,,,,,,,
,,,,,,,,,,00001582945,2020-10-27_15h51.00.415,swahili,2020.2.4,MacIntel,60,,,,,,,,,,-0.261024306,0.002916667,1,0,0,0.498275,unsorted_card,15,0,15,0,1,,,,,,,,,,,,,,,,,,,,,,,,,,,,,,,,,,,,,,,,,,,,,,,,,,,,,,,,,,,,,,,,,,,,,,,,,,,,,,,,,
,,,,,,,,,,00001582945,2020-10-27_15h51.00.415,swahili,2020.2.4,MacIntel,60,,,,,,,,,,0.476909722,0.453411458,1,0,0,2.147285,study_pile,16,0,16,0,1,CORN - NAFAKA,,,,,,,,,,,,,,,,,,,,,,,,,,,,,,,,,,,,,,,,,,,,,,,,,,,,,,,,,,,,,,,,,,,,,,,,,,,,,,,,
,,,,,,,,,,00001582945,2020-10-27_15h51.00.415,swahili,2020.2.4,MacIntel,60,,,,,,,,,,-0.184868707,-0.059409722,1,0,0,0.53157,unsorted_card,17,0,17,0,1,,,,,,,,,,,,,,,,,,,,,,,,,,,,,,,,,,,,,,,,,,,,,,,,,,,,,,,,,,,,,,,,,,,,,,,,,,,,,,,,,
,,,,,,,,,,00001582945,2020-10-27_15h51.00.415,swahili,2020.2.4,MacIntel,60,,,,,,,,,,0.41569553,0.436015625,1,0,0,2.44779,study_pile,18,0,18,0,1,POEM - UTENZI,,,,,,,,,,,,,,,,,,,,,,,,,,,,,,,,,,,,,,,,,,,,,,,,,,,,,,,,,,,,,,,,,,,,,,,,,,,,,,,,
,,,,,,,,,,00001582945,2020-10-27_15h51.00.415,swahili,2020.2.4,MacIntel,60,,,,,,,,,,-0.2050727,0.022638889,1,0,0,0.697615,unsorted_card,19,0,19,0,1,,,,,,,,,,,,,,,,,,,,,,,,,,,,,,,,,,,,,,,,,,,,,,,,,,,,,,,,,,,,,,,,,,,,,,,,,,,,,,,,,
,,,,,,,,,,00001582945,2020-10-27_15h51.00.415,swahili,2020.2.4,MacIntel,60,,,,,,,,,,0.45641276,0.492543403,1,0,0,1.265325,study_pile,20,0,20,0,1,TAILOR - MSHONI,,,,,,,,,,,,,,,,,,,,,,,,,,,,,,,,,,,,,,,,,,,,,,,,,,,,,,,,,,,,,,,,,,,,,,,,,,,,,,,,
,,,,,,,,,,00001582945,2020-10-27_15h51.00.415,swahili,2020.2.4,MacIntel,60,,,,,,,,,,-0.184564887,-0.009565972,1,0,0,0.514225,unsorted_card,21,0,21,0,1,,,,,,,,,,,,,,,,,,,,,,,,,,,,,,,,,,,,,,,,,,,,,,,,,,,,,,,,,,,,,,,,,,,,,,,,,,,,,,,,,
,,,,,,,,,,00001582945,2020-10-27_15h51.00.415,swahili,2020.2.4,MacIntel,60,,,,,,,,,,0.458175998,0.496154514,1,0,0,2.18185,study_pile,22,0,22,0,1,CHEESE - JIBINI,,,,,,,,,,,,,,,,,,,,,,,,,,,,,,,,,,,,,,,,,,,,,,,,,,,,,,,,,,,,,,,,,,,,,,,,,,,,,,,,
,,,,,,,,,,00001582945,2020-10-27_15h51.00.415,swahili,2020.2.4,MacIntel,60,,,,,,,,,,-0.18843316,-0.140442708,1,0,0,0.598555,unsorted_card,23,0,23,0,1,,,,,,,,,,,,,,,,,,,,,,,,,,,,,,,,,,,,,,,,,,,,,,,,,,,,,,,,,,,,,,,,,,,,,,,,,,,,,,,,,
,,,,,,,,,,00001582945,2020-10-27_15h51.00.415,swahili,2020.2.4,MacIntel,60,,,,,,,,,,0.507242839,0.450555556,1,0,0,1.68253,study_pile,24,0,24,0,1,GRAPES - ZABIBU,,,,,,,,,,,,,,,,,,,,,,,,,,,,,,,,,,,,,,,,,,,,,,,,,,,,,,,,,,,,,,,,,,,,,,,,,,,,,,,,
,,,,,,,,,,00001582945,2020-10-27_15h51.00.415,swahili,2020.2.4,MacIntel,60,,,,,,,,,,-0.263357205,0.075868056,1,0,0,0.497335,unsorted_card,25,0,25,0,1,,,,,,,,,,,,,,,,,,,,,,,,,,,,,,,,,,,,,,,,,,,,,,,,,,,,,,,,,,,,,,,,,,,,,,,,,,,,,,,,,
,,,,,,,,,,00001582945,2020-10-27_15h51.00.415,swahili,2020.2.4,MacIntel,60,,,,,,,,,,0.45374349,0.458081597,1,0,0,1.06541,study_pile,26,0,26,0,1,GRAVE - KABURI,,,,,,,,,,,,,,,,,,,,,,,,,,,,,,,,,,,,,,,,,,,,,,,,,,,,,,,,,,,,,,,,,,,,,,,,,,,,,,,,
,,,,,,,,,,00001582945,2020-10-27_15h51.00.415,swahili,2020.2.4,MacIntel,60,,,,,,,,,,-0.223144531,-0.000208333,1,0,0,0.46452,unsorted_card,27,0,27,0,1,,,,,,,,,,,,,,,,,,,,,,,,,,,,,,,,,,,,,,,,,,,,,,,,,,,,,,,,,,,,,,,,,,,,,,,,,,,,,,,,,
,,,,,,,,,,00001582945,2020-10-27_15h51.00.415,swahili,2020.2.4,MacIntel,60,,,,,,,,,,0.40116645,0.456788194,1,0,0,2.898825,study_pile,28,0,28,0,1,MANURE - SAMADI,,,,,,,,,,,,,,,,,,,,,,,,,,,,,,,,,,,,,,,,,,,,,,,,,,,,,,,,,,,,,,,,,,,,,,,,,,,,,,,,
,,,,,,,,,,00001582945,2020-10-27_15h51.00.415,swahili,2020.2.4,MacIntel,60,,,,,,,,,,-0.276850043,-0.087647569,1,0,0,0.51435,unsorted_card,29,0,29,0,1,,,,,,,,,,,,,,,,,,,,,,,,,,,,,,,,,,,,,,,,,,,,,,,,,,,,,,,,,,,,,,,,,,,,,,,,,,,,,,,,,
,,,,,,,,,,00001582945,2020-10-27_15h51.00.415,swahili,2020.2.4,MacIntel,60,,,,,,,,,,0.479985894,0.42515625,1,0,0,1.48105,study_pile,30,0,30,0,1,AGENT - WAKILI,,,,,,,,,,,,,,,,,,,,,,,,,,,,,,,,,,,,,,,,,,,,,,,,,,,,,,,,,,,,,,,,,,,,,,,,,,,,,,,,
,,,,,,,,,,00001582945,2020-10-27_15h51.00.415,swahili,2020.2.4,MacIntel,60,,,,,,,,,,-0.192252604,-0.044513889,1,0,0,0.449625,unsorted_card,31,0,31,0,1,,,,,,,,,,,,,,,,,,,,,,,,,,,,,,,,,,,,,,,,,,,,,,,,,,,,,,,,,,,,,,,,,,,,,,,,,,,,,,,,,
,,,,,,,,,,00001582945,2020-10-27_15h51.00.415,swahili,2020.2.4,MacIntel,60,,,,,,,,,,0.461192491,0.452404514,1,0,0,2.12981,study_pile,32,0,32,0,1,BRIBE - RUSHWA,,,,,,,,,,,,,,,,,,,,,,,,,,,,,,,,,,,,,,,,,,,,,,,,,,,,,,,,,,,,,,,,,,,,,,,,,,,,,,,,
,,,,,,,,,,00001582945,2020-10-27_15h51.00.415,swahili,2020.2.4,MacIntel,60,,,,,,,,,,-0.175911458,-0.075616319,1,0,0,0.481795,unsorted_card,33,0,33,0,1,,,,,,,,,,,,,,,,,,,,,,,,,,,,,,,,,,,,,,,,,,,,,,,,,,,,,,,,,,,,,,,,,,,,,,,,,,,,,,,,,
,,,,,,,,,,00001582945,2020-10-27_15h51.00.415,swahili,2020.2.4,MacIntel,60,,,,,,,,,,0.431456163,0.439461806,1,0,0,1.047425,study_pile,34,0,34,0,1,ORPHAN - YATIMA,,,,,,,,,,,,,,,,,,,,,,,,,,,,,,,,,,,,,,,,,,,,,,,,,,,,,,,,,,,,,,,,,,,,,,,,,,,,,,,,
,,,,,,,,,,00001582945,2020-10-27_15h51.00.415,swahili,2020.2.4,MacIntel,60,,,,,,,,,,-0.219466146,0.045303819,1,0,0,0.49997,unsorted_card,35,0,35,0,1,,,,,,,,,,,,,,,,,,,,,,,,,,,,,,,,,,,,,,,,,,,,,,,,,,,,,,,,,,,,,,,,,,,,,,,,,,,,,,,,,
,,,,,,,,,,00001582945,2020-10-27_15h51.00.415,swahili,2020.2.4,MacIntel,60,,,,,,,,,,0.403412543,0.468793403,1,0,0,1.431125,study_pile,36,0,36,0,1,DIVORCE - TALAKA,,,,,,,,,,,,,,,,,,,,,,,,,,,,,,,,,,,,,,,,,,,,,,,,,,,,,,,,,,,,,,,,,,,,,,,,,,,,,,,,
,,,,,,,,,,00001582945,2020-10-27_15h51.00.415,swahili,2020.2.4,MacIntel,60,,,,,,,,,,-0.238151042,-0.069427083,1,0,0,0.564165,unsorted_card,37,0,37,0,1,,,,,,,,,,,,,,,,,,,,,,,,,,,,,,,,,,,,,,,,,,,,,,,,,,,,,,,,,,,,,,,,,,,,,,,,,,,,,,,,,
,,,,,,,,,,00001582945,2020-10-27_15h51.00.415,swahili,2020.2.4,MacIntel,60,,,,,,,,,,0.441829427,0.436267361,1,0,0,1.28293,study_pile,38,0,38,0,1,BOAT - MASHUA,,,,,,,,,,,,,,,,,,,,,,,,,,,,,,,,,,,,,,,,,,,,,,,,,,,,,,,,,,,,,,,,,,,,,,,,,,,,,,,,
,,,,,,,,,,00001582945,2020-10-27_15h51.00.415,swahili,2020.2.4,MacIntel,60,,,,,,,,,,-0.212494575,-0.000399306,1,0,0,0.56463,unsorted_card,39,0,39,0,1,,,,,,,,,,,,,,,,,,,,,,,,,,,,,,,,,,,,,,,,,,,,,,,,,,,,,,,,,,,,,,,,,,,,,,,,,,,,,,,,,
,,,,,,,,,,00001582945,2020-10-27_15h51.00.415,swahili,2020.2.4,MacIntel,60,,,,,,,,,,0.431429036,0.468368056,1,0,0,0.91761,study_pile,40,0,40,0,1,TREASURE - DAFINA,,,,,,,,,,,,,,,,,,,,,,,,,,,,,,,,,,,,,,,,,,,,,,,,,,,,,,,,,,,,,,,,,,,,,,,,,,,,,,,,
,,,,,,,,,,00001582945,2020-10-27_15h51.00.415,swahili,2020.2.4,MacIntel,60,,,,,,,,,,,,,,,,,,,,,,CHEESE - JIBINI,,,,,,,,return,5.93308,return,6.99688,0,0,0,0,1,,,,,,,,,,,,,,,,,,,,,,,,,,,,,,,,,,,,,,,,,,,,,,,,,,,,,,,,,,,,,,,,
,,,,,,,,,,00001582945,2020-10-27_15h51.00.415,swahili,2020.2.4,MacIntel,60,,,,,,,,,,,,,,,,,,,,,,BULL - FAHILI,,,,,,,,,,return,5.034365,1,0,1,0,1,,,,,,,,,,,,,,,,,,,,,,,,,,,,,,,,,,,,,,,,,,,,,,,,,,,,,,,,,,,,,,,,
,,,,,,,,,,00001582945,2020-10-27_15h51.00.415,swahili,2020.2.4,MacIntel,60,,,,,,,,,,,,,,,,,,,,,,BOAT - MASHUA,,,,,,,,,,return,2.51723,2,0,2,0,1,,,,,,,,,,,,,,,,,,,,,,,,,,,,,,,,,,,,,,,,,,,,,,,,,,,,,,,,,,,,,,,,
,,,,,,,,,,00001582945,2020-10-27_15h51.00.415,swahili,2020.2.4,MacIntel,60,,,,,,,,,,,,,,,,,,,,,,TREASURE - DAFINA,,,,,,,,,,return,1.900125,3,0,3,0,1,,,,,,,,,,,,,,,,,,,,,,,,,,,,,,,,,,,,,,,,,,,,,,,,,,,,,,,,,,,,,,,,
,,,,,,,,,,00001582945,2020-10-27_15h51.00.415,swahili,2020.2.4,MacIntel,60,,,,,,,,,,,,,,,,,,,,,,ORPHAN - YATIMA,,,,,,,,,,return,2.91603,4,0,4,0,1,,,,,,,,,,,,,,,,,,,,,,,,,,,,,,,,,,,,,,,,,,,,,,,,,,,,,,,,,,,,,,,,
,,,,,,,,,,00001582945,2020-10-27_15h51.00.415,swahili,2020.2.4,MacIntel,60,,,,,,,,,,,,,,,,,,,,,,PARROT - KASUKU,,,,,,,,,,return,2.88881,5,0,5,0,1,,,,,,,,,,,,,,,,,,,,,,,,,,,,,,,,,,,,,,,,,,,,,,,,,,,,,,,,,,,,,,,,
,,,,,,,,,,00001582945,2020-10-27_15h51.00.415,swahili,2020.2.4,MacIntel,60,,,,,,,,,,,,,,,,,,,,,,AGENT - WAKILI,,,,,,,,,,return,1.8646,6,0,6,0,1,,,,,,,,,,,,,,,,,,,,,,,,,,,,,,,,,,,,,,,,,,,,,,,,,,,,,,,,,,,,,,,,
,,,,,,,,,,00001582945,2020-10-27_15h51.00.415,swahili,2020.2.4,MacIntel,60,,,,,,,,,,,,,,,,,,,,,,CORN - NAFAKA,,,,,,,,,,return,1.75237,7,0,7,0,1,,,,,,,,,,,,,,,,,,,,,,,,,,,,,,,,,,,,,,,,,,,,,,,,,,,,,,,,,,,,,,,,
,,,,,,,,,,00001582945,2020-10-27_15h51.00.415,swahili,2020.2.4,MacIntel,60,,,,,,,,,,,,,,,,,,,,,,OATH - YAMINI,,,,,,,,,,return,1.953255,8,0,8,0,1,,,,,,,,,,,,,,,,,,,,,,,,,,,,,,,,,,,,,,,,,,,,,,,,,,,,,,,,,,,,,,,,
,,,,,,,,,,00001582945,2020-10-27_15h51.00.415,swahili,2020.2.4,MacIntel,60,,,,,,,,,,,,,,,,,,,,,,MERCHANT - TAJIRI,,,,,,,,,,return,1.884185,9,0,9,0,1,,,,,,,,,,,,,,,,,,,,,,,,,,,,,,,,,,,,,,,,,,,,,,,,,,,,,,,,,,,,,,,,
,,,,,,,,,,00001582945,2020-10-27_15h51.00.415,swahili,2020.2.4,MacIntel,60,,,,,,,,,,,,,,,,,,,,,,YEAST - HAMIRA,,,,,,,,,,return,0.834365,10,0,10,0,1,,,,,,,,,,,,,,,,,,,,,,,,,,,,,,,,,,,,,,,,,,,,,,,,,,,,,,,,,,,,,,,,
,,,,,,,,,,00001582945,2020-10-27_15h51.00.415,swahili,2020.2.4,MacIntel,60,,,,,,,,,,,,,,,,,,,,,,POEM - UTENZI,,,,,,,,,,return,1.33326,11,0,11,0,1,,,,,,,,,,,,,,,,,,,,,,,,,,,,,,,,,,,,,,,,,,,,,,,,,,,,,,,,,,,,,,,,
,,,,,,,,,,00001582945,2020-10-27_15h51.00.415,swahili,2020.2.4,MacIntel,60,,,,,,,,,,,,,,,,,,,,,,BLAME - LAWAMA,,,,,,,,,,return,1.297515,12,0,12,0,1,,,,,,,,,,,,,,,,,,,,,,,,,,,,,,,,,,,,,,,,,,,,,,,,,,,,,,,,,,,,,,,,
,,,,,,,,,,00001582945,2020-10-27_15h51.00.415,swahili,2020.2.4,MacIntel,60,,,,,,,,,,,,,,,,,,,,,,GRAVE - KABURI,,,,,,,,,,return,1.65057,13,0,13,0,1,,,,,,,,,,,,,,,,,,,,,,,,,,,,,,,,,,,,,,,,,,,,,,,,,,,,,,,,,,,,,,,,
,,,,,,,,,,00001582945,2020-10-27_15h51.00.415,swahili,2020.2.4,MacIntel,60,,,,,,,,,,,,,,,,,,,,,,DIVORCE - TALAKA,,,,,,,,,,return,0.549585,14,0,14,0,1,,,,,,,,,,,,,,,,,,,,,,,,,,,,,,,,,,,,,,,,,,,,,,,,,,,,,,,,,,,,,,,,
,,,,,,,,,,00001582945,2020-10-27_15h51.00.415,swahili,2020.2.4,MacIntel,60,,,,,,,,,,,,,,,,,,,,,,PLATE - SAHANI,,,,,,,,,,return,0.532005,15,0,15,0,1,,,,,,,,,,,,,,,,,,,,,,,,,,,,,,,,,,,,,,,,,,,,,,,,,,,,,,,,,,,,,,,,
,,,,,,,,,,00001582945,2020-10-27_15h51.00.415,swahili,2020.2.4,MacIntel,60,,,,,,,,,,,,,,,,,,,,,,BRIBE - RUSHWA,,,,,,,,,,return,0.618005,16,0,16,0,1,,,,,,,,,,,,,,,,,,,,,,,,,,,,,,,,,,,,,,,,,,,,,,,,,,,,,,,,,,,,,,,,
,,,,,,,,,,00001582945,2020-10-27_15h51.00.415,swahili,2020.2.4,MacIntel,60,,,,,,,,,,,,,,,,,,,,,,GRAPES - ZABIBU,,,,,,,,,,return,0.701625,17,0,17,0,1,,,,,,,,,,,,,,,,,,,,,,,,,,,,,,,,,,,,,,,,,,,,,,,,,,,,,,,,,,,,,,,,
,,,,,,,,,,00001582945,2020-10-27_15h51.00.415,swahili,2020.2.4,MacIntel,60,,,,,,,,,,,,,,,,,,,,,,TAILOR - MSHONI,,,,,,,,,,return,0.63698,18,0,18,0,1,,,,,,,,,,,,,,,,,,,,,,,,,,,,,,,,,,,,,,,,,,,,,,,,,,,,,,,,,,,,,,,,
,,,,,,,,,,00001582945,2020-10-27_15h51.00.415,swahili,2020.2.4,MacIntel,60,,,,,,,,,,,,,,,,,,,,,,MANURE - SAMADI,,,,,,,,,,return,0.436035,19,0,19,0,1,,,,,,,,,,,,,,,,,,,,,,,,,,,,,,,,,,,,,,,,,,,,,,,,,,,,,,,,,,,,,,,,
,,,,,,,,,,00001582945,2020-10-27_15h51.00.415,swahili,2020.2.4,MacIntel,60,,,,,,,,,,,,,,,,,,,,,,,,,,,,,,,,,,,,,,,,0,0,0,0,1,,,,,,,,,,,,,,,,,,,,,,,,,,,,,,,,,,,,,,,,,,,,,,,,,,,,,,,,,,
,,,,,,,,,,00001582945,2020-10-27_15h51.00.415,swahili,2020.2.4,MacIntel,60,,,,,,,,,,,,,,,,,,,,,,,,,,,,,,,,,,,,,,,,1,0,1,0,1,,,,,,,,,,,,,,,,,,,,,,,,,,,,,,,,,,,,,,,,,,,,,,,,,,,,,,,,,,
,,,,,,,,,,00001582945,2020-10-27_15h51.00.415,swahili,2020.2.4,MacIntel,60,,,,,,,,,,,,,,,,,,,,,,,,,,,,,,,,,,,,,,,,,,,,,0,0,0,0,1,,,,,,,,,,,,,,,,,,,,,,,,,,,,,,,,,,,,,,,,,,,,,,,,,,,,,
,,,,,,,,,,00001582945,2020-10-27_15h51.00.415,swahili,2020.2.4,MacIntel,60,,,,,,,,,,-0.248410373,-0.015694444,1,0,0,11.756255,unsorted_card,0,0,0,0,1,,,,,,,,,,,,,,,,,,,,,,,,,,,,,,,,,,,,,,,,,,,,,,,,,,,,,,,,,,,,,,,,,,,,,,,,,,,,,,,,,
,,,,,,,,,,00001582945,2020-10-27_15h51.00.415,swahili,2020.2.4,MacIntel,60,,,,,,,,,,0.461431207,0.521875,1,0,0,43.92875,study_pile,1,0,1,0,1,MERCHANT - TAJIRI,,,,,,,,,,,,,,,,,,,,,,,,,,,,,,,,,,,,,,,,,,,,,,,,,,,,,,,,,,,,,,,,,,,,,,,,,,,,,,,,
,,,,,,,,,,00001582945,2020-10-27_15h51.00.415,swahili,2020.2.4,MacIntel,60,,,,,,,,,,-0.255528429,0.102743056,1,0,0,0.632975,unsorted_card,2,0,2,0,1,,,,,,,,,,,,,,,,,,,,,,,,,,,,,,,,,,,,,,,,,,,,,,,,,,,,,,,,,,,,,,,,,,,,,,,,,,,,,,,,,
,,,,,,,,,,00001582945,2020-10-27_15h51.00.415,swahili,2020.2.4,MacIntel,60,,,,,,,,,,0.564029948,0.511866319,1,0,0,0.897085,study_pile,3,0,3,0,1,PARROT - KASUKU,,,,,,,,,,,,,,,,,,,,,,,,,,,,,,,,,,,,,,,,,,,,,,,,,,,,,,,,,,,,,,,,,,,,,,,,,,,,,,,,
,,,,,,,,,,00001582945,2020-10-27_15h51.00.415,swahili,2020.2.4,MacIntel,60,,,,,,,,,,-0.085644531,0.320104167,1,0,0,0.49845,unsorted_card,4,0,4,0,1,,,,,,,,,,,,,,,,,,,,,,,,,,,,,,,,,,,,,,,,,,,,,,,,,,,,,,,,,,,,,,,,,,,,,,,,,,,,,,,,,
,,,,,,,,,,00001582945,2020-10-27_15h51.00.415,swahili,2020.2.4,MacIntel,60,,,,,,,,,,0.519580078,0.512005208,1,0,0,0.56491,study_pile,5,0,5,0,1,BULL - FAHILI,,,,,,,,,,,,,,,,,,,,,,,,,,,,,,,,,,,,,,,,,,,,,,,,,,,,,,,,,,,,,,,,,,,,,,,,,,,,,,,,
,,,,,,,,,,00001582945,2020-10-27_15h51.00.415,swahili,2020.2.4,MacIntel,60,,,,,,,,,,-0.225656467,0.046388889,1,0,0,0.499125,unsorted_card,6,0,6,0,1,,,,,,,,,,,,,,,,,,,,,,,,,,,,,,,,,,,,,,,,,,,,,,,,,,,,,,,,,,,,,,,,,,,,,,,,,,,,,,,,,
,,,,,,,,,,00001582945,2020-10-27_15h51.00.415,swahili,2020.2.4,MacIntel,60,,,,,,,,,,0.478662109,0.4715625,1,0,0,0.51435,study_pile,7,0,7,0,1,PLATE - SAHANI,,,,,,,,,,,,,,,,,,,,,,,,,,,,,,,,,,,,,,,,,,,,,,,,,,,,,,,,,,,,,,,,,,,,,,,,,,,,,,,,
,,,,,,,,,,00001582945,2020-10-27_15h51.00.415,swahili,2020.2.4,MacIntel,60,,,,,,,,,,-0.178266059,0.069904514,1,0,0,0.465285,unsorted_card,8,0,8,0,1,,,,,,,,,,,,,,,,,,,,,,,,,,,,,,,,,,,,,,,,,,,,,,,,,,,,,,,,,,,,,,,,,,,,,,,,,,,,,,,,,
,,,,,,,,,,00001582945,2020-10-27_15h51.00.415,swahili,2020.2.4,MacIntel,60,,,,,,,,,,0.476904297,0.44375,1,0,0,0.58174,study_pile,9,0,9,0,1,YEAST - HAMIRA,,,,,,,,,,,,,,,,,,,,,,,,,,,,,,,,,,,,,,,,,,,,,,,,,,,,,,,,,,,,,,,,,,,,,,,,,,,,,,,,
,,,,,,,,,,00001582945,2020-10-27_15h51.00.415,swahili,2020.2.4,MacIntel,60,,,,,,,,,,-0.128765191,0.113845486,1,0,0,0.480865,unsorted_card,10,0,10,0,1,,,,,,,,,,,,,,,,,,,,,,,,,,,,,,,,,,,,,,,,,,,,,,,,,,,,,,,,,,,,,,,,,,,,,,,,,,,,,,,,,
,,,,,,,,,,00001582945,2020-10-27_15h51.00.415,swahili,2020.2.4,MacIntel,60,,,,,,,,,,0.399273003,0.453489583,1,0,0,0.51731,study_pile,11,0,11,0,1,BLAME - LAWAMA,,,,,,,,,,,,,,,,,,,,,,,,,,,,,,,,,,,,,,,,,,,,,,,,,,,,,,,,,,,,,,,,,,,,,,,,,,,,,,,,
,,,,,,,,,,00001582945,2020-10-27_15h51.00.415,swahili,2020.2.4,MacIntel,60,,,,,,,,,,-0.209375,0.051206597,1,0,0,0.42963,unsorted_card,12,0,12,0,1,,,,,,,,,,,,,,,,,,,,,,,,,,,,,,,,,,,,,,,,,,,,,,,,,,,,,,,,,,,,,,,,,,,,,,,,,,,,,,,,,
,,,,,,,,,,00001582945,2020-10-27_15h51.00.415,swahili,2020.2.4,MacIntel,60,,,,,,,,,,0.48914388,0.428385417,1,0,0,0.56723,study_pile,13,0,13,0,1,OATH - YAMINI,,,,,,,,,,,,,,,,,,,,,,,,,,,,,,,,,,,,,,,,,,,,,,,,,,,,,,,,,,,,,,,,,,,,,,,,,,,,,,,,
,,,,,,,,,,00001582945,2020-10-27_15h51.00.415,swahili,2020.2.4,MacIntel,60,,,,,,,,,,-0.319259983,-0.12046875,1,0,0,0.44636,unsorted_card,14,0,14,0,1,,,,,,,,,,,,,,,,,,,,,,,,,,,,,,,,,,,,,,,,,,,,,,,,,,,,,,,,,,,,,,,,,,,,,,,,,,,,,,,,,
,,,,,,,,,,00001582945,2020-10-27_15h51.00.415,swahili,2020.2.4,MacIntel,60,,,,,,,,,,0.506380208,0.505425347,1,0,0,0.532355,study_pile,15,0,15,0,1,CORN - NAFAKA,,,,,,,,,,,,,,,,,,,,,,,,,,,,,,,,,,,,,,,,,,,,,,,,,,,,,,,,,,,,,,,,,,,,,,,,,,,,,,,,
,,,,,,,,,,00001582945,2020-10-27_15h51.00.415,swahili,2020.2.4,MacIntel,60,,,,,,,,,,-0.217382812,0.095746528,1,0,0,0.53233,unsorted_card,16,0,16,0,1,,,,,,,,,,,,,,,,,,,,,,,,,,,,,,,,,,,,,,,,,,,,,,,,,,,,,,,,,,,,,,,,,,,,,,,,,,,,,,,,,
,,,,,,,,,,00001582945,2020-10-27_15h51.00.415,swahili,2020.2.4,MacIntel,60,,,,,,,,,,0.35944553,0.462543403,1,0,0,1.064915,study_pile,17,0,17,0,1,POEM - UTENZI,,,,,,,,,,,,,,,,,,,,,,,,,,,,,,,,,,,,,,,,,,,,,,,,,,,,,,,,,,,,,,,,,,,,,,,,,,,,,,,,
,,,,,,,,,,00001582945,2020-10-27_15h51.00.415,swahili,2020.2.4,MacIntel,60,,,,,,,,,,-0.244270833,0.048463542,1,0,0,0.448225,unsorted_card,18,0,18,0,1,,,,,,,,,,,,,,,,,,,,,,,,,,,,,,,,,,,,,,,,,,,,,,,,,,,,,,,,,,,,,,,,,,,,,,,,,,,,,,,,,
,,,,,,,,,,00001582945,2020-10-27_15h51.00.415,swahili,2020.2.4,MacIntel,60,,,,,,,,,,0.561121962,0.541614583,1,0,0,0.53232,study_pile,19,0,19,0,1,TAILOR - MSHONI,,,,,,,,,,,,,,,,,,,,,,,,,,,,,,,,,,,,,,,,,,,,,,,,,,,,,,,,,,,,,,,,,,,,,,,,,,,,,,,,
,,,,,,,,,,00001582945,2020-10-27_15h51.00.415,swahili,2020.2.4,MacIntel,60,,,,,,,,,,-0.309288194,-0.035364583,1,0,0,0.463575,unsorted_card,20,0,20,0,1,,,,,,,,,,,,,,,,,,,,,,,,,,,,,,,,,,,,,,,,,,,,,,,,,,,,,,,,,,,,,,,,,,,,,,,,,,,,,,,,,
,,,,,,,,,,00001582945,2020-10-27_15h51.00.415,swahili,2020.2.4,MacIntel,60,,,,,,,,,,0.530870226,0.470651042,1,0,0,0.583145,study_pile,21,0,21,0,1,CHEESE - JIBINI,,,,,,,,,,,,,,,,,,,,,,,,,,,,,,,,,,,,,,,,,,,,,,,,,,,,,,,,,,,,,,,,,,,,,,,,,,,,,,,,
,,,,,,,,,,00001582945,2020-10-27_15h51.00.415,swahili,2020.2.4,MacIntel,60,,,,,,,,,,-0.291916233,0.0596875,1,0,0,0.481395,unsorted_card,22,0,22,0,1,,,,,,,,,,,,,,,,,,,,,,,,,,,,,,,,,,,,,,,,,,,,,,,,,,,,,,,,,,,,,,,,,,,,,,,,,,,,,,,,,
,,,,,,,,,,00001582945,2020-10-27_15h51.00.415,swahili,2020.2.4,MacIntel,60,,,,,,,,,,0.426665582,0.455329861,1,0,0,0.800065,study_pile,23,0,23,0,1,GRAPES - ZABIBU,,,,,,,,,,,,,,,,,,,,,,,,,,,,,,,,,,,,,,,,,,,,,,,,,,,,,,,,,,,,,,,,,,,,,,,,,,,,,,,,
,,,,,,,,,,00001582945,2020-10-27_15h51.00.415,swahili,2020.2.4,MacIntel,60,,,,,,,,,,-0.244542101,-0.031197917,1,0,0,0.431785,unsorted_card,24,0,24,0,1,,,,,,,,,,,,,,,,,,,,,,,,,,,,,,,,,,,,,,,,,,,,,,,,,,,,,,,,,,,,,,,,,,,,,,,,,,,,,,,,,
,,,,,,,,,,00001582945,2020-10-27_15h51.00.415,swahili,2020.2.4,MacIntel,60,,,,,,,,,,0.378949653,0.425286458,1,0,0,0.94728,study_pile,25,0,25,0,1,GRAVE - KABURI,,,,,,,,,,,,,,,,,,,,,,,,,,,,,,,,,,,,,,,,,,,,,,,,,,,,,,,,,,,,,,,,,,,,,,,,,,,,,,,,
,,,,,,,,,,00001582945,2020-10-27_15h51.00.415,swahili,2020.2.4,MacIntel,60,,,,,,,,,,-0.173464627,0.120251736,1,0,0,0.46435,unsorted_card,26,0,26,0,1,,,,,,,,,,,,,,,,,,,,,,,,,,,,,,,,,,,,,,,,,,,,,,,,,,,,,,,,,,,,,,,,,,,,,,,,,,,,,,,,,
,,,,,,,,,,00001582945,2020-10-27_15h51.00.415,swahili,2020.2.4,MacIntel,60,,,,,,,,,,0.572721354,0.514444444,1,0,0,0.59875,study_pile,27,0,27,0,1,MANURE - SAMADI,,,,,,,,,,,,,,,,,,,,,,,,,,,,,,,,,,,,,,,,,,,,,,,,,,,,,,,,,,,,,,,,,,,,,,,,,,,,,,,,
,,,,,,,,,,00001582945,2020-10-27_15h51.00.415,swahili,2020.2.4,MacIntel,60,,,,,,,,,,-0.201144748,0.087795139,1,0,0,0.48149,unsorted_card,28,0,28,0,1,,,,,,,,,,,,,,,,,,,,,,,,,,,,,,,,,,,,,,,,,,,,,,,,,,,,,,,,,,,,,,,,,,,,,,,,,,,,,,,,,
,,,,,,,,,,00001582945,2020-10-27_15h51.00.415,swahili,2020.2.4,MacIntel,60,,,,,,,,,,0.55984158,0.510772569,1,0,0,0.647715,study_pile,29,0,29,0,1,AGENT - WAKILI,,,,,,,,,,,,,,,,,,,,,,,,,,,,,,,,,,,,,,,,,,,,,,,,,,,,,,,,,,,,,,,,,,,,,,,,,,,,,,,,
,,,,,,,,,,00001582945,2020-10-27_15h51.00.415,swahili,2020.2.4,MacIntel,60,,,,,,,,,,-0.128694661,0.194991319,1,0,0,0.548315,unsorted_card,30,0,30,0,1,,,,,,,,,,,,,,,,,,,,,,,,,,,,,,,,,,,,,,,,,,,,,,,,,,,,,,,,,,,,,,,,,,,,,,,,,,,,,,,,,
,,,,,,,,,,00001582945,2020-10-27_15h51.00.415,swahili,2020.2.4,MacIntel,60,,,,,,,,,,0.572249349,0.514314236,1,0,0,0.53149,study_pile,31,0,31,0,1,BRIBE - RUSHWA,,,,,,,,,,,,,,,,,,,,,,,,,,,,,,,,,,,,,,,,,,,,,,,,,,,,,,,,,,,,,,,,,,,,,,,,,,,,,,,,
,,,,,,,,,,00001582945,2020-10-27_15h51.00.415,swahili,2020.2.4,MacIntel,60,,,,,,,,,,-0.138650174,0.132491319,1,0,0,0.44954,unsorted_card,32,0,32,0,1,,,,,,,,,,,,,,,,,,,,,,,,,,,,,,,,,,,,,,,,,,,,,,,,,,,,,,,,,,,,,,,,,,,,,,,,,,,,,,,,,
,,,,,,,,,,00001582945,2020-10-27_15h51.00.415,swahili,2020.2.4,MacIntel,60,,,,,,,,,,0.529730903,0.493055556,1,0,0,0.58194,study_pile,33,0,33,0,1,ORPHAN - YATIMA,,,,,,,,,,,,,,,,,,,,,,,,,,,,,,,,,,,,,,,,,,,,,,,,,,,,,,,,,,,,,,,,,,,,,,,,,,,,,,,,
,,,,,,,,,,00001582945,2020-10-27_15h51.00.415,swahili,2020.2.4,MacIntel,60,,,,,,,,,,-0.21110026,0.090763889,1,0,0,0.514005,unsorted_card,34,0,34,0,1,,,,,,,,,,,,,,,,,,,,,,,,,,,,,,,,,,,,,,,,,,,,,,,,,,,,,,,,,,,,,,,,,,,,,,,,,,,,,,,,,
,,,,,,,,,,00001582945,2020-10-27_15h51.00.415,swahili,2020.2.4,MacIntel,60,,,,,,,,,,0.440955946,0.472708333,1,0,0,0.49974,study_pile,35,0,35,0,1,DIVORCE - TALAKA,,,,,,,,,,,,,,,,,,,,,,,,,,,,,,,,,,,,,,,,,,,,,,,,,,,,,,,,,,,,,,,,,,,,,,,,,,,,,,,,
,,,,,,,,,,00001582945,2020-10-27_15h51.00.415,swahili,2020.2.4,MacIntel,60,,,,,,,,,,-0.268288845,-0.031223958,1,0,0,0.44975,unsorted_card,36,0,36,0,1,,,,,,,,,,,,,,,,,,,,,,,,,,,,,,,,,,,,,,,,,,,,,,,,,,,,,,,,,,,,,,,,,,,,,,,,,,,,,,,,,
,,,,,,,,,,00001582945,2020-10-27_15h51.00.415,swahili,2020.2.4,MacIntel,60,,,,,,,,,,0.530419922,0.54453125,1,0,0,0.529845,study_pile,37,0,37,0,1,BOAT - MASHUA,,,,,,,,,,,,,,,,,,,,,,,,,,,,,,,,,,,,,,,,,,,,,,,,,,,,,,,,,,,,,,,,,,,,,,,,,,,,,,,,
,,,,,,,,,,00001582945,2020-10-27_15h51.00.415,swahili,2020.2.4,MacIntel,60,,,,,,,,,,-0.26007487,0.00578125,1,0,0,0.49803,unsorted_card,38,0,38,0,1,,,,,,,,,,,,,,,,,,,,,,,,,,,,,,,,,,,,,,,,,,,,,,,,,,,,,,,,,,,,,,,,,,,,,,,,,,,,,,,,,
,,,,,,,,,,00001582945,2020-10-27_15h51.00.415,swahili,2020.2.4,MacIntel,60,,,,,,,,,,0.4578125,0.379340278,1,0,0,0.648455,study_pile,39,0,39,0,1,TREASURE - DAFINA,,,,,,,,,,,,,,,,,,,,,,,,,,,,,,,,,,,,,,,,,,,,,,,,,,,,,,,,,,,,,,,,,,,,,,,,,,,,,,,,
,,,,,,,,,,00001582945,2020-10-27_15h51.00.415,swahili,2020.2.4,MacIntel,60,,,,,,,,,,,,,,,,,,,,,,CORN - NAFAKA,,,,,,,,return,1.362495,return,0.971895,0,0,0,0,1,,,,,,,,,,,,,,,,,,,,,,,,,,,,,,,,,,,,,,,,,,,,,,,,,,,,,,,,,,,,,,,,
,,,,,,,,,,00001582945,2020-10-27_15h51.00.415,swahili,2020.2.4,MacIntel,60,,,,,,,,,,,,,,,,,,,,,,ORPHAN - YATIMA,,,,,,,,,,return,0.163895,1,0,1,0,1,,,,,,,,,,,,,,,,,,,,,,,,,,,,,,,,,,,,,,,,,,,,,,,,,,,,,,,,,,,,,,,,
,,,,,,,,,,00001582945,2020-10-27_15h51.00.415,swahili,2020.2.4,MacIntel,60,,,,,,,,,,,,,,,,,,,,,,TREASURE - DAFINA,,,,,,,,,,return,0.297895,2,0,2,0,1,,,,,,,,,,,,,,,,,,,,,,,,,,,,,,,,,,,,,,,,,,,,,,,,,,,,,,,,,,,,,,,,
,,,,,,,,,,00001582945,2020-10-27_15h51.00.415,swahili,2020.2.4,MacIntel,60,,,,,,,,,,,,,,,,,,,,,,BOAT - MASHUA,,,,,,,,,,return,0.2675,3,0,3,0,1,,,,,,,,,,,,,,,,,,,,,,,,,,,,,,,,,,,,,,,,,,,,,,,,,,,,,,,,,,,,,,,,
,,,,,,,,,,00001582945,2020-10-27_15h51.00.415,swahili,2020.2.4,MacIntel,60,,,,,,,,,,,,,,,,,,,,,,CHEESE - JIBINI,,,,,,,,,,return,0.18325,4,0,4,0,1,,,,,,,,,,,,,,,,,,,,,,,,,,,,,,,,,,,,,,,,,,,,,,,,,,,,,,,,,,,,,,,,
,,,,,,,,,,00001582945,2020-10-27_15h51.00.415,swahili,2020.2.4,MacIntel,60,,,,,,,,,,,,,,,,,,,,,,BULL - FAHILI,,,,,,,,,,return,0.134285,5,0,5,0,1,,,,,,,,,,,,,,,,,,,,,,,,,,,,,,,,,,,,,,,,,,,,,,,,,,,,,,,,,,,,,,,,
,,,,,,,,,,00001582945,2020-10-27_15h51.00.415,swahili,2020.2.4,MacIntel,60,,,,,,,,,,,,,,,,,,,,,,GRAPES - ZABIBU,,,,,,,,,,return,0.134325,6,0,6,0,1,,,,,,,,,,,,,,,,,,,,,,,,,,,,,,,,,,,,,,,,,,,,,,,,,,,,,,,,,,,,,,,,
,,,,,,,,,,00001582945,2020-10-27_15h51.00.415,swahili,2020.2.4,MacIntel,60,,,,,,,,,,,,,,,,,,,,,,PLATE - SAHANI,,,,,,,,,,return,0.150765,7,0,7,0,1,,,,,,,,,,,,,,,,,,,,,,,,,,,,,,,,,,,,,,,,,,,,,,,,,,,,,,,,,,,,,,,,
,,,,,,,,,,00001582945,2020-10-27_15h51.00.415,swahili,2020.2.4,MacIntel,60,,,,,,,,,,,,,,,,,,,,,,MANURE - SAMADI,,,,,,,,,,return,0.167465,8,0,8,0,1,,,,,,,,,,,,,,,,,,,,,,,,,,,,,,,,,,,,,,,,,,,,,,,,,,,,,,,,,,,,,,,,
,,,,,,,,,,00001582945,2020-10-27_15h51.00.415,swahili,2020.2.4,MacIntel,60,,,,,,,,,,,,,,,,,,,,,,POEM - UTENZI,,,,,,,,,,return,0.16658,9,0,9,0,1,,,,,,,,,,,,,,,,,,,,,,,,,,,,,,,,,,,,,,,,,,,,,,,,,,,,,,,,,,,,,,,,
,,,,,,,,,,00001582945,2020-10-27_15h51.00.415,swahili,2020.2.4,MacIntel,60,,,,,,,,,,,,,,,,,,,,,,BRIBE - RUSHWA,,,,,,,,,,return,0.184925,10,0,10,0,1,,,,,,,,,,,,,,,,,,,,,,,,,,,,,,,,,,,,,,,,,,,,,,,,,,,,,,,,,,,,,,,,
,,,,,,,,,,00001582945,2020-10-27_15h51.00.415,swahili,2020.2.4,MacIntel,60,,,,,,,,,,,,,,,,,,,,,,OATH - YAMINI,,,,,,,,,,return,0.1662,11,0,11,0,1,,,,,,,,,,,,,,,,,,,,,,,,,,,,,,,,,,,,,,,,,,,,,,,,,,,,,,,,,,,,,,,,
,,,,,,,,,,00001582945,2020-10-27_15h51.00.415,swahili,2020.2.4,MacIntel,60,,,,,,,,,,,,,,,,,,,,,,AGENT - WAKILI,,,,,,,,,,return,0.167325,12,0,12,0,1,,,,,,,,,,,,,,,,,,,,,,,,,,,,,,,,,,,,,,,,,,,,,,,,,,,,,,,,,,,,,,,,
,,,,,,,,,,00001582945,2020-10-27_15h51.00.415,swahili,2020.2.4,MacIntel,60,,,,,,,,,,,,,,,,,,,,,,YEAST - HAMIRA,,,,,,,,,,return,0.16395,13,0,13,0,1,,,,,,,,,,,,,,,,,,,,,,,,,,,,,,,,,,,,,,,,,,,,,,,,,,,,,,,,,,,,,,,,
,,,,,,,,,,00001582945,2020-10-27_15h51.00.415,swahili,2020.2.4,MacIntel,60,,,,,,,,,,,,,,,,,,,,,,PARROT - KASUKU,,,,,,,,,,return,0.15513,14,0,14,0,1,,,,,,,,,,,,,,,,,,,,,,,,,,,,,,,,,,,,,,,,,,,,,,,,,,,,,,,,,,,,,,,,
,,,,,,,,,,00001582945,2020-10-27_15h51.00.415,swahili,2020.2.4,MacIntel,60,,,,,,,,,,,,,,,,,,,,,,MERCHANT - TAJIRI,,,,,,,,,,return,0.20123,15,0,15,0,1,,,,,,,,,,,,,,,,,,,,,,,,,,,,,,,,,,,,,,,,,,,,,,,,,,,,,,,,,,,,,,,,
,,,,,,,,,,00001582945,2020-10-27_15h51.00.415,swahili,2020.2.4,MacIntel,60,,,,,,,,,,,,,,,,,,,,,,GRAVE - KABURI,,,,,,,,,,return,0.182455,16,0,16,0,1,,,,,,,,,,,,,,,,,,,,,,,,,,,,,,,,,,,,,,,,,,,,,,,,,,,,,,,,,,,,,,,,
,,,,,,,,,,00001582945,2020-10-27_15h51.00.415,swahili,2020.2.4,MacIntel,60,,,,,,,,,,,,,,,,,,,,,,TAILOR - MSHONI,,,,,,,,,,return,0.197555,17,0,17,0,1,,,,,,,,,,,,,,,,,,,,,,,,,,,,,,,,,,,,,,,,,,,,,,,,,,,,,,,,,,,,,,,,
,,,,,,,,,,00001582945,2020-10-27_15h51.00.415,swahili,2020.2.4,MacIntel,60,,,,,,,,,,,,,,,,,,,,,,BLAME - LAWAMA,,,,,,,,,,return,0.185035,18,0,18,0,1,,,,,,,,,,,,,,,,,,,,,,,,,,,,,,,,,,,,,,,,,,,,,,,,,,,,,,,,,,,,,,,,
,,,,,,,,,,00001582945,2020-10-27_15h51.00.415,swahili,2020.2.4,MacIntel,60,,,,,,,,,,,,,,,,,,,,,,DIVORCE - TALAKA,,,,,,,,,,return,0.181415,19,0,19,0,1,,,,,,,,,,,,,,,,,,,,,,,,,,,,,,,,,,,,,,,,,,,,,,,,,,,,,,,,,,,,,,,,
,,,,,,,,,,00001582945,2020-10-27_15h51.00.415,swahili,2020.2.4,MacIntel,60,,,,,,,,,,,,,,,,,,,,,,,,,,,,,,,,,,,,,,,,0,0,0,0,1,,,,,,,,,,,,,,,,,,,,,,,,,,,,,,,,,,,,,,,,,,,,,,,,,,,,,,,,,,
,,,,,,,,,,00001582945,2020-10-27_15h51.00.415,swahili,2020.2.4,MacIntel,60,,,,,,,,,,,,,,,,,,,,,,,,,,,,,,,,,,,,,,,,1,0,1,0,1,,,,,,,,,,,,,,,,,,,,,,,,,,,,,,,,,,,,,,,,,,,,,,,,,,,,,,,,,,
,,,,,,,,,,00001582945,2020-10-27_15h51.00.415,swahili,2020.2.4,MacIntel,60,,,,,,,,,,,,,,,,,,,,,,,,,,,,,,,,,,,,,,,,,,,,,1,0,1,0,1,,,,,,,,,,,,,,,,,,,,,,,,,,,,,,,,,,,,,,,,,,,,,,,,,,,,,
,,,,,,,,,,00001582945,2020-10-27_15h51.00.415,swahili,2020.2.4,MacIntel,60,,,,,,,,,,-0.18523763,-0.030017361,1,0,0,1.15567,unsorted_card,0,0,0,0,1,,,,,,,,,,,,,,,,,,,,,,,,,,,,,,,,,,,,,,,,,,,,,,,,,,,,,,,,,,,,,,,,,,,,,,,,,,,,,,,,,
,,,,,,,,,,00001582945,2020-10-27_15h51.00.415,swahili,2020.2.4,MacIntel,60,,,,,,,,,,0.49390191,0.473333333,1,0,0,1.25016,study_pile,1,0,1,0,1,MERCHANT - TAJIRI,,,,,,,,,,,,,,,,,,,,,,,,,,,,,,,,,,,,,,,,,,,,,,,,,,,,,,,,,,,,,,,,,,,,,,,,,,,,,,,,
,,,,,,,,,,00001582945,2020-10-27_15h51.00.415,swahili,2020.2.4,MacIntel,60,,,,,,,,,,-0.282096354,0.01609375,1,0,0,0.530625,unsorted_card,2,0,2,0,1,,,,,,,,,,,,,,,,,,,,,,,,,,,,,,,,,,,,,,,,,,,,,,,,,,,,,,,,,,,,,,,,,,,,,,,,,,,,,,,,,
,,,,,,,,,,00001582945,2020-10-27_15h51.00.415,swahili,2020.2.4,MacIntel,60,,,,,,,,,,0.495507812,0.44828125,1,0,0,0.831535,study_pile,3,0,3,0,1,PARROT - KASUKU,,,,,,,,,,,,,,,,,,,,,,,,,,,,,,,,,,,,,,,,,,,,,,,,,,,,,,,,,,,,,,,,,,,,,,,,,,,,,,,,
,,,,,,,,,,00001582945,2020-10-27_15h51.00.415,swahili,2020.2.4,MacIntel,60,,,,,,,,,,-0.254161241,0.093697917,1,0,0,0.498645,unsorted_card,4,0,4,0,1,,,,,,,,,,,,,,,,,,,,,,,,,,,,,,,,,,,,,,,,,,,,,,,,,,,,,,,,,,,,,,,,,,,,,,,,,,,,,,,,,
,,,,,,,,,,00001582945,2020-10-27_15h51.00.415,swahili,2020.2.4,MacIntel,60,,,,,,,,,,0.464013672,0.477291667,1,0,0,0.94888,study_pile,5,0,5,0,1,BULL - FAHILI,,,,,,,,,,,,,,,,,,,,,,,,,,,,,,,,,,,,,,,,,,,,,,,,,,,,,,,,,,,,,,,,,,,,,,,,,,,,,,,,
,,,,,,,,,,00001582945,2020-10-27_15h51.00.415,swahili,2020.2.4,MacIntel,60,,,,,,,,,,-0.354638672,-0.000208333,1,0,0,0.51289,unsorted_card,6,0,6,0,1,,,,,,,,,,,,,,,,,,,,,,,,,,,,,,,,,,,,,,,,,,,,,,,,,,,,,,,,,,,,,,,,,,,,,,,,,,,,,,,,,
,,,,,,,,,,00001582945,2020-10-27_15h51.00.415,swahili,2020.2.4,MacIntel,60,,,,,,,,,,0.527175564,0.510616319,1,0,0,0.966465,study_pile,7,0,7,0,1,PLATE - SAHANI,,,,,,,,,,,,,,,,,,,,,,,,,,,,,,,,,,,,,,,,,,,,,,,,,,,,,,,,,,,,,,,,,,,,,,,,,,,,,,,,
,,,,,,,,,,00001582945,2020-10-27_15h51.00.415,swahili,2020.2.4,MacIntel,60,,,,,,,,,,-0.288302951,0.185598958,1,0,0,0.4824,unsorted_card,8,0,8,0,1,,,,,,,,,,,,,,,,,,,,,,,,,,,,,,,,,,,,,,,,,,,,,,,,,,,,,,,,,,,,,,,,,,,,,,,,,,,,,,,,,
,,,,,,,,,,00001582945,2020-10-27_15h51.00.415,swahili,2020.2.4,MacIntel,60,,,,,,,,,,0.546413845,0.540026042,1,0,0,0.596825,study_pile,9,0,9,0,1,YEAST - HAMIRA,,,,,,,,,,,,,,,,,,,,,,,,,,,,,,,,,,,,,,,,,,,,,,,,,,,,,,,,,,,,,,,,,,,,,,,,,,,,,,,,
,,,,,,,,,,00001582945,2020-10-27_15h51.00.415,swahili,2020.2.4,MacIntel,60,,,,,,,,,,-0.251736111,0.082526042,1,0,0,0.564835,unsorted_card,10,0,10,0,1,,,,,,,,,,,,,,,,,,,,,,,,,,,,,,,,,,,,,,,,,,,,,,,,,,,,,,,,,,,,,,,,,,,,,,,,,,,,,,,,,
,,,,,,,,,,00001582945,2020-10-27_15h51.00.415,swahili,2020.2.4,MacIntel,60,,,,,,,,,,0.403559028,0.474487847,1,0,0,0.866025,study_pile,11,0,11,0,1,BLAME - LAWAMA,,,,,,,,,,,,,,,,,,,,,,,,,,,,,,,,,,,,,,,,,,,,,,,,,,,,,,,,,,,,,,,,,,,,,,,,,,,,,,,,
,,,,,,,,,,00001582945,2020-10-27_15h51.00.415,swahili,2020.2.4,MacIntel,60,,,,,,,,,,-0.418538411,-0.049965278,1,0,0,1.69738,unsorted_card,12,0,12,0,1,,,,,,,,,,,,,,,,,,,,,,,,,,,,,,,,,,,,,,,,,,,,,,,,,,,,,,,,,,,,,,,,,,,,,,,,,,,,,,,,,
,,,,,,,,,,00001582945,2020-10-27_15h51.00.415,swahili,2020.2.4,MacIntel,60,,,,,,,,,,0.417279731,0.412161458,1,0,0,0.781265,study_pile,13,0,13,0,1,OATH - YAMINI,,,,,,,,,,,,,,,,,,,,,,,,,,,,,,,,,,,,,,,,,,,,,,,,,,,,,,,,,,,,,,,,,,,,,,,,,,,,,,,,
,,,,,,,,,,00001582945,2020-10-27_15h51.00.415,swahili,2020.2.4,MacIntel,60,,,,,,,,,,-0.356911892,0.031041667,1,0,0,0.466325,unsorted_card,14,0,14,0,1,,,,,,,,,,,,,,,,,,,,,,,,,,,,,,,,,,,,,,,,,,,,,,,,,,,,,,,,,,,,,,,,,,,,,,,,,,,,,,,,,
,,,,,,,,,,00001582945,2020-10-27_15h51.00.415,swahili,2020.2.4,MacIntel,60,,,,,,,,,,0.500987413,0.551684028,1,0,0,0.682355,study_pile,15,0,15,0,1,CORN - NAFAKA,,,,,,,,,,,,,,,,,,,,,,,,,,,,,,,,,,,,,,,,,,,,,,,,,,,,,,,,,,,,,,,,,,,,,,,,,,,,,,,,
,,,,,,,,,,00001582945,2020-10-27_15h51.00.415,swahili,2020.2.4,MacIntel,60,,,,,,,,,,-0.295480686,-0.014288194,1,0,0,0.398905,unsorted_card,16,0,16,0,1,,,,,,,,,,,,,,,,,,,,,,,,,,,,,,,,,,,,,,,,,,,,,,,,,,,,,,,,,,,,,,,,,,,,,,,,,,,,,,,,,
,,,,,,,,,,00001582945,2020-10-27_15h51.00.415,swahili,2020.2.4,MacIntel,60,,,,,,,,,,0.377788628,0.428515625,1,0,0,0.56457,study_pile,17,0,17,0,1,POEM - UTENZI,,,,,,,,,,,,,,,,,,,,,,,,,,,,,,,,,,,,,,,,,,,,,,,,,,,,,,,,,,,,,,,,,,,,,,,,,,,,,,,,
,,,,,,,,,,00001582945,2020-10-27_15h51.00.415,swahili,2020.2.4,MacIntel,60,,,,,,,,,,-0.259071181,0.082786458,1,0,0,0.39806,unsorted_card,18,0,18,0,1,,,,,,,,,,,,,,,,,,,,,,,,,,,,,,,,,,,,,,,,,,,,,,,,,,,,,,,,,,,,,,,,,,,,,,,,,,,,,,,,,
,,,,,,,,,,00001582945,2020-10-27_15h51.00.415,swahili,2020.2.4,MacIntel,60,,,,,,,,,,0.705843099,0.481006944,1,0,0,0.71596,study_pile,19,0,19,0,1,TAILOR - MSHONI,,,,,,,,,,,,,,,,,,,,,,,,,,,,,,,,,,,,,,,,,,,,,,,,,,,,,,,,,,,,,,,,,,,,,,,,,,,,,,,,
,,,,,,,,,,00001582945,2020-10-27_15h51.00.415,swahili,2020.2.4,MacIntel,60,,,,,,,,,,-0.179144965,-0.031128472,1,0,0,0.44987,unsorted_card,20,0,20,0,1,,,,,,,,,,,,,,,,,,,,,,,,,,,,,,,,,,,,,,,,,,,,,,,,,,,,,,,,,,,,,,,,,,,,,,,,,,,,,,,,,
,,,,,,,,,,00001582945,2020-10-27_15h51.00.415,swahili,2020.2.4,MacIntel,60,,,,,,,,,,0.407177734,0.388081597,1,0,0,0.5315,study_pile,21,0,21,0,1,CHEESE - JIBINI,,,,,,,,,,,,,,,,,,,,,,,,,,,,,,,,,,,,,,,,,,,,,,,,,,,,,,,,,,,,,,,,,,,,,,,,,,,,,,,,
,,,,,,,,,,00001582945,2020-10-27_15h51.00.415,swahili,2020.2.4,MacIntel,60,,,,,,,,,,-0.24187283,0.064748264,1,0,0,0.48156,unsorted_card,22,0,22,0,1,,,,,,,,,,,,,,,,,,,,,,,,,,,,,,,,,,,,,,,,,,,,,,,,,,,,,,,,,,,,,,,,,,,,,,,,,,,,,,,,,
,,,,,,,,,,00001582945,2020-10-27_15h51.00.415,swahili,2020.2.4,MacIntel,60,,,,,,,,,,0.418391927,0.366319444,1,0,0,0.697945,study_pile,23,0,23,0,1,GRAPES - ZABIBU,,,,,,,,,,,,,,,,,,,,,,,,,,,,,,,,,,,,,,,,,,,,,,,,,,,,,,,,,,,,,,,,,,,,,,,,,,,,,,,,
,,,,,,,,,,00001582945,2020-10-27_15h51.00.415,swahili,2020.2.4,MacIntel,60,,,,,,,,,,-0.37649197,-0.071553819,1,0,0,0.43032,unsorted_card,24,0,24,0,1,,,,,,,,,,,,,,,,,,,,,,,,,,,,,,,,,,,,,,,,,,,,,,,,,,,,,,,,,,,,,,,,,,,,,,,,,,,,,,,,,
,,,,,,,,,,00001582945,2020-10-27_15h51.00.415,swahili,2020.2.4,MacIntel,60,,,,,,,,,,0.607156033,0.541727431,1,0,0,0.71543,study_pile,25,0,25,0,1,GRAVE - KABURI,,,,,,,,,,,,,,,,,,,,,,,,,,,,,,,,,,,,,,,,,,,,,,,,,,,,,,,,,,,,,,,,,,,,,,,,,,,,,,,,
,,,,,,,,,,00001582945,2020-10-27_15h51.00.415,swahili,2020.2.4,MacIntel,60,,,,,,,,,,-0.273692491,0.071484375,1,0,0,0.38207,unsorted_card,26,0,26,0,1,,,,,,,,,,,,,,,,,,,,,,,,,,,,,,,,,,,,,,,,,,,,,,,,,,,,,,,,,,,,,,,,,,,,,,,,,,,,,,,,,
,,,,,,,,,,00001582945,2020-10-27_15h51.00.415,swahili,2020.2.4,MacIntel,60,,,,,,,,,,0.359488932,-0.1203125,1,0,0,1.41477,test_pile,27,0,27,0,1,MANURE - SAMADI,,,,,,,,,,,,,,,,,,,,,,,,,,,,,,,,,,,,,,,,,,,,,,,,,,,,,,,,,,,,,,,,,,,,,,,,,,,,,,,,
,,,,,,,,,,00001582945,2020-10-27_15h51.00.415,swahili,2020.2.4,MacIntel,60,,,,,,,,,,-0.308799913,0.010060764,1,0,0,0.78158,unsorted_card,28,0,28,0,1,,,,,,,,,,,,,,,,,,,,,,,,,,,,,,,,,,,,,,,,,,,,,,,,,,,,,,,,,,,,,,,,,,,,,,,,,,,,,,,,,
,,,,,,,,,,00001582945,2020-10-27_15h51.00.415,swahili,2020.2.4,MacIntel,60,,,,,,,,,,0.476600477,0.440260417,1,0,0,2.598195,study_pile,29,0,29,0,1,AGENT - WAKILI,,,,,,,,,,,,,,,,,,,,,,,,,,,,,,,,,,,,,,,,,,,,,,,,,,,,,,,,,,,,,,,,,,,,,,,,,,,,,,,,
,,,,,,,,,,00001582945,2020-10-27_15h51.00.415,swahili,2020.2.4,MacIntel,60,,,,,,,,,,-0.491525608,-0.054930556,1,0,0,0.53086,unsorted_card,30,0,30,0,1,,,,,,,,,,,,,,,,,,,,,,,,,,,,,,,,,,,,,,,,,,,,,,,,,,,,,,,,,,,,,,,,,,,,,,,,,,,,,,,,,
,,,,,,,,,,00001582945,2020-10-27_15h51.00.415,swahili,2020.2.4,MacIntel,60,,,,,,,,,,0.395410156,0.427256944,1,0,0,0.848795,study_pile,31,0,31,0,1,BRIBE - RUSHWA,,,,,,,,,,,,,,,,,,,,,,,,,,,,,,,,,,,,,,,,,,,,,,,,,,,,,,,,,,,,,,,,,,,,,,,,,,,,,,,,
,,,,,,,,,,00001582945,2020-10-27_15h51.00.415,swahili,2020.2.4,MacIntel,60,,,,,,,,,,-0.226752387,-0.103802083,1,0,0,0.548745,unsorted_card,32,0,32,0,1,,,,,,,,,,,,,,,,,,,,,,,,,,,,,,,,,,,,,,,,,,,,,,,,,,,,,,,,,,,,,,,,,,,,,,,,,,,,,,,,,
,,,,,,,,,,00001582945,2020-10-27_15h51.00.415,swahili,2020.2.4,MacIntel,60,,,,,,,,,,0.513633898,0.427595486,1,0,0,0.599935,study_pile,33,0,33,0,1,ORPHAN - YATIMA,,,,,,,,,,,,,,,,,,,,,,,,,,,,,,,,,,,,,,,,,,,,,,,,,,,,,,,,,,,,,,,,,,,,,,,,,,,,,,,,
,,,,,,,,,,00001582945,2020-10-27_15h51.00.415,swahili,2020.2.4,MacIntel,60,,,,,,,,,,-0.369992405,-0.151553819,1,0,0,0.481045,unsorted_card,34,0,34,0,1,,,,,,,,,,,,,,,,,,,,,,,,,,,,,,,,,,,,,,,,,,,,,,,,,,,,,,,,,,,,,,,,,,,,,,,,,,,,,,,,,
,,,,,,,,,,00001582945,2020-10-27_15h51.00.415,swahili,2020.2.4,MacIntel,60,,,,,,,,,,0.458913845,0.543663194,1,0,0,0.54745,study_pile,35,0,35,0,1,DIVORCE - TALAKA,,,,,,,,,,,,,,,,,,,,,,,,,,,,,,,,,,,,,,,,,,,,,,,,,,,,,,,,,,,,,,,,,,,,,,,,,,,,,,,,
,,,,,,,,,,00001582945,2020-10-27_15h51.00.415,swahili,2020.2.4,MacIntel,60,,,,,,,,,,-0.240885417,0.085416667,1,0,0,0.466095,unsorted_card,36,0,36,0,1,,,,,,,,,,,,,,,,,,,,,,,,,,,,,,,,,,,,,,,,,,,,,,,,,,,,,,,,,,,,,,,,,,,,,,,,,,,,,,,,,
,,,,,,,,,,00001582945,2020-10-27_15h51.00.415,swahili,2020.2.4,MacIntel,60,,,,,,,,,,0.571506076,0.524461806,1,0,0,0.447535,study_pile,37,0,37,0,1,BOAT - MASHUA,,,,,,,,,,,,,,,,,,,,,,,,,,,,,,,,,,,,,,,,,,,,,,,,,,,,,,,,,,,,,,,,,,,,,,,,,,,,,,,,
,,,,,,,,,,00001582945,2020-10-27_15h51.00.415,swahili,2020.2.4,MacIntel,60,,,,,,,,,,-0.289588759,0.178342014,1,0,0,0.41582,unsorted_card,38,0,38,0,1,,,,,,,,,,,,,,,,,,,,,,,,,,,,,,,,,,,,,,,,,,,,,,,,,,,,,,,,,,,,,,,,,,,,,,,,,,,,,,,,,
,,,,,,,,,,00001582945,2020-10-27_15h51.00.415,swahili,2020.2.4,MacIntel,60,,,,,,,,,,0.537727865,0.5746875,1,0,0,0.616015,study_pile,39,0,39,0,1,TREASURE - DAFINA,,,,,,,,,,,,,,,,,,,,,,,,,,,,,,,,,,,,,,,,,,,,,,,,,,,,,,,,,,,,,,,,,,,,,,,,,,,,,,,,
,,,,,,,,,,00001582945,2020-10-27_15h51.00.415,swahili,2020.2.4,MacIntel,60,,,,,,,,,,,,,,,,,,,,,,,0.52124566,-0.080633681,1,0,0,1.64533,test_first,,,,,0,0,0,0,1,,,,,,,,,,,,,,,,,,,,,,,,,,,,,,,,,,,,,,,,,,,,,,,,,,,,,,,,,,,,,,,,
,,,,,,,,,,00001582945,2020-10-27_15h51.00.415,swahili,2020.2.4,MacIntel,60,,,,,,,,,,,,,,,,,,,,,,,,,,,,,,,,,,,,,,,return,,,,,,,,,,,1.65061,6.531065,0.378141276,-0.122413194,1,0,0,2.198595,yes,MANURE,SAMADI,incorrect,0,0,0,0,1,,,,,,,,,,,,,,,,,,,,,,,,,,,,,,,,,,,,
,,,,,,,,,,00001582945,2020-10-27_15h51.00.415,swahili,2020.2.4,MacIntel,60,,,,,,,,,,,,,,,,,,,,,,,,,,,,,,,,,,,,,,,,0,0,0,0,1,,,,,,,,,,,,,,,,,,,,,,,,,,,,,,,,,,,,,,,,,,,,,,,,,,,,,,,,,,
,,,,,,,,,,00001582945,2020-10-27_15h51.00.415,swahili,2020.2.4,MacIntel,60,,,,,,,,,,,,,,,,,,,,,,MERCHANT - TAJIRI,,,,,,,,return,1.018825,return,1.42997,0,0,0,0,1,,,,,,,,,,,,,,,,,,,,,,,,,,,,,,,,,,,,,,,,,,,,,,,,,,,,,,,,,,,,,,,,
,,,,,,,,,,00001582945,2020-10-27_15h51.00.415,swahili,2020.2.4,MacIntel,60,,,,,,,,,,,,,,,,,,,,,,BULL - FAHILI,,,,,,,,,,return,0.136485,1,0,1,0,1,,,,,,,,,,,,,,,,,,,,,,,,,,,,,,,,,,,,,,,,,,,,,,,,,,,,,,,,,,,,,,,,
,,,,,,,,,,00001582945,2020-10-27_15h51.00.415,swahili,2020.2.4,MacIntel,60,,,,,,,,,,,,,,,,,,,,,,AGENT - WAKILI,,,,,,,,,,return,0.153525,2,0,2,0,1,,,,,,,,,,,,,,,,,,,,,,,,,,,,,,,,,,,,,,,,,,,,,,,,,,,,,,,,,,,,,,,,
,,,,,,,,,,00001582945,2020-10-27_15h51.00.415,swahili,2020.2.4,MacIntel,60,,,,,,,,,,,,,,,,,,,,,,BRIBE - RUSHWA,,,,,,,,,,return,0.13301,3,0,3,0,1,,,,,,,,,,,,,,,,,,,,,,,,,,,,,,,,,,,,,,,,,,,,,,,,,,,,,,,,,,,,,,,,
,,,,,,,,,,00001582945,2020-10-27_15h51.00.415,swahili,2020.2.4,MacIntel,60,,,,,,,,,,,,,,,,,,,,,,OATH - YAMINI,,,,,,,,,,return,0.14918,4,0,4,0,1,,,,,,,,,,,,,,,,,,,,,,,,,,,,,,,,,,,,,,,,,,,,,,,,,,,,,,,,,,,,,,,,
,,,,,,,,,,00001582945,2020-10-27_15h51.00.415,swahili,2020.2.4,MacIntel,60,,,,,,,,,,,,,,,,,,,,,,BOAT - MASHUA,,,,,,,,,,return,0.14939,5,0,5,0,1,,,,,,,,,,,,,,,,,,,,,,,,,,,,,,,,,,,,,,,,,,,,,,,,,,,,,,,,,,,,,,,,
,,,,,,,,,,00001582945,2020-10-27_15h51.00.415,swahili,2020.2.4,MacIntel,60,,,,,,,,,,,,,,,,,,,,,,GRAPES - ZABIBU,,,,,,,,,,return,0.181525,6,0,6,0,1,,,,,,,,,,,,,,,,,,,,,,,,,,,,,,,,,,,,,,,,,,,,,,,,,,,,,,,,,,,,,,,,
,,,,,,,,,,00001582945,2020-10-27_15h51.00.415,swahili,2020.2.4,MacIntel,60,,,,,,,,,,,,,,,,,,,,,,YEAST - HAMIRA,,,,,,,,,,return,0.15286,7,0,7,0,1,,,,,,,,,,,,,,,,,,,,,,,,,,,,,,,,,,,,,,,,,,,,,,,,,,,,,,,,,,,,,,,,
,,,,,,,,,,00001582945,2020-10-27_15h51.00.415,swahili,2020.2.4,MacIntel,60,,,,,,,,,,,,,,,,,,,,,,CHEESE - JIBINI,,,,,,,,,,return,0.19921,8,0,8,0,1,,,,,,,,,,,,,,,,,,,,,,,,,,,,,,,,,,,,,,,,,,,,,,,,,,,,,,,,,,,,,,,,
,,,,,,,,,,00001582945,2020-10-27_15h51.00.415,swahili,2020.2.4,MacIntel,60,,,,,,,,,,,,,,,,,,,,,,BLAME - LAWAMA,,,,,,,,,,return,0.14987,9,0,9,0,1,,,,,,,,,,,,,,,,,,,,,,,,,,,,,,,,,,,,,,,,,,,,,,,,,,,,,,,,,,,,,,,,
,,,,,,,,,,00001582945,2020-10-27_15h51.00.415,swahili,2020.2.4,MacIntel,60,,,,,,,,,,,,,,,,,,,,,,GRAVE - KABURI,,,,,,,,,,return,0.15324,10,0,10,0,1,,,,,,,,,,,,,,,,,,,,,,,,,,,,,,,,,,,,,,,,,,,,,,,,,,,,,,,,,,,,,,,,
,,,,,,,,,,00001582945,2020-10-27_15h51.00.415,swahili,2020.2.4,MacIntel,60,,,,,,,,,,,,,,,,,,,,,,PARROT - KASUKU,,,,,,,,,,return,0.166685,11,0,11,0,1,,,,,,,,,,,,,,,,,,,,,,,,,,,,,,,,,,,,,,,,,,,,,,,,,,,,,,,,,,,,,,,,
,,,,,,,,,,00001582945,2020-10-27_15h51.00.415,swahili,2020.2.4,MacIntel,60,,,,,,,,,,,,,,,,,,,,,,TAILOR - MSHONI,,,,,,,,,,return,0.138215,12,0,12,0,1,,,,,,,,,,,,,,,,,,,,,,,,,,,,,,,,,,,,,,,,,,,,,,,,,,,,,,,,,,,,,,,,
,,,,,,,,,,00001582945,2020-10-27_15h51.00.415,swahili,2020.2.4,MacIntel,60,,,,,,,,,,,,,,,,,,,,,,CORN - NAFAKA,,,,,,,,,,return,0.171805,13,0,13,0,1,,,,,,,,,,,,,,,,,,,,,,,,,,,,,,,,,,,,,,,,,,,,,,,,,,,,,,,,,,,,,,,,
,,,,,,,,,,00001582945,2020-10-27_15h51.00.415,swahili,2020.2.4,MacIntel,60,,,,,,,,,,,,,,,,,,,,,,ORPHAN - YATIMA,,,,,,,,,,return,0.16311,14,0,14,0,1,,,,,,,,,,,,,,,,,,,,,,,,,,,,,,,,,,,,,,,,,,,,,,,,,,,,,,,,,,,,,,,,
,,,,,,,,,,00001582945,2020-10-27_15h51.00.415,swahili,2020.2.4,MacIntel,60,,,,,,,,,,,,,,,,,,,,,,POEM - UTENZI,,,,,,,,,,return,0.155895,15,0,15,0,1,,,,,,,,,,,,,,,,,,,,,,,,,,,,,,,,,,,,,,,,,,,,,,,,,,,,,,,,,,,,,,,,
,,,,,,,,,,00001582945,2020-10-27_15h51.00.415,swahili,2020.2.4,MacIntel,60,,,,,,,,,,,,,,,,,,,,,,TREASURE - DAFINA,,,,,,,,,,return,0.171585,16,0,16,0,1,,,,,,,,,,,,,,,,,,,,,,,,,,,,,,,,,,,,,,,,,,,,,,,,,,,,,,,,,,,,,,,,
,,,,,,,,,,00001582945,2020-10-27_15h51.00.415,swahili,2020.2.4,MacIntel,60,,,,,,,,,,,,,,,,,,,,,,DIVORCE - TALAKA,,,,,,,,,,return,0.153185,17,0,17,0,1,,,,,,,,,,,,,,,,,,,,,,,,,,,,,,,,,,,,,,,,,,,,,,,,,,,,,,,,,,,,,,,,
,,,,,,,,,,00001582945,2020-10-27_15h51.00.415,swahili,2020.2.4,MacIntel,60,,,,,,,,,,,,,,,,,,,,,,PLATE - SAHANI,,,,,,,,,,return,0.150885,18,0,18,0,1,,,,,,,,,,,,,,,,,,,,,,,,,,,,,,,,,,,,,,,,,,,,,,,,,,,,,,,,,,,,,,,,
,,,,,,,,,,00001582945,2020-10-27_15h51.00.415,swahili,2020.2.4,MacIntel,60,,,,,,,,,,,,,,,,,,,,,,,,,,,,,,,,,,,,,,,,1,0,1,0,1,,,,,,,,,,,,,,,,,,,,,,,,,,,,,,,,,,,,,,,,,,,,,,,,,,,,,,,,,,
,,,,,,,,,,00001582945,2020-10-27_15h51.00.415,swahili,2020.2.4,MacIntel,60,,,,,,,,,,,,,,,,,,,,,,,,,,,,,,,,,,,,,,,,,,,,,2,0,2,0,1,,,,,,,,,,,,,,,,,,,,,,,,,,,,,,,,,,,,,,,,,,,,,,,,,,,,,
,,,,,,,,,,00001582945,2020-10-27_15h51.00.415,swahili,2020.2.4,MacIntel,60,,,,,,,,,,-0.340820313,-0.276649306,1,0,0,77.257055,unsorted_card,0,0,0,0,1,,,,,,,,,,,,,,,,,,,,,,,,,,,,,,,,,,,,,,,,,,,,,,,,,,,,,,,,,,,,,,,,,,,,,,,,,,,,,,,,,
,,,,,,,,,,00001582945,2020-10-27_15h51.00.415,swahili,2020.2.4,MacIntel,60,,,,,,,,,,0.453792318,-0.731510417,1,0,0,0.49637,done_pile,1,0,1,0,1,MERCHANT - TAJIRI,,,,,,,,,,,,,,,,,,,,,,,,,,,,,,,,,,,,,,,,,,,,,,,,,,,,,,,,,,,,,,,,,,,,,,,,,,,,,,,,
,,,,,,,,,,00001582945,2020-10-27_15h51.00.415,swahili,2020.2.4,MacIntel,60,,,,,,,,,,-0.324327257,-0.096154514,1,0,0,0.481475,unsorted_card,2,0,2,0,1,,,,,,,,,,,,,,,,,,,,,,,,,,,,,,,,,,,,,,,,,,,,,,,,,,,,,,,,,,,,,,,,,,,,,,,,,,,,,,,,,
,,,,,,,,,,00001582945,2020-10-27_15h51.00.415,swahili,2020.2.4,MacIntel,60,,,,,,,,,,0.527077908,-0.54109375,1,0,0,0.648495,done_pile,3,0,3,0,1,PARROT - KASUKU,,,,,,,,,,,,,,,,,,,,,,,,,,,,,,,,,,,,,,,,,,,,,,,,,,,,,,,,,,,,,,,,,,,,,,,,,,,,,,,,
,,,,,,,,,,00001582945,2020-10-27_15h51.00.415,swahili,2020.2.4,MacIntel,60,,,,,,,,,,-0.221185981,-0.027404514,1,0,0,0.598925,unsorted_card,4,0,4,0,1,,,,,,,,,,,,,,,,,,,,,,,,,,,,,,,,,,,,,,,,,,,,,,,,,,,,,,,,,,,,,,,,,,,,,,,,,,,,,,,,,
,,,,,,,,,,00001582945,2020-10-27_15h51.00.415,swahili,2020.2.4,MacIntel,60,,,,,,,,,,0.582796224,-0.567829861,1,0,0,0.565245,done_pile,5,0,5,0,1,BULL - FAHILI,,,,,,,,,,,,,,,,,,,,,,,,,,,,,,,,,,,,,,,,,,,,,,,,,,,,,,,,,,,,,,,,,,,,,,,,,,,,,,,,
,,,,,,,,,,00001582945,2020-10-27_15h51.00.415,swahili,2020.2.4,MacIntel,60,,,,,,,,,,-0.34202474,0.022977431,1,0,0,0.58076,unsorted_card,6,0,6,0,1,,,,,,,,,,,,,,,,,,,,,,,,,,,,,,,,,,,,,,,,,,,,,,,,,,,,,,,,,,,,,,,,,,,,,,,,,,,,,,,,,
,,,,,,,,,,00001582945,2020-10-27_15h51.00.415,swahili,2020.2.4,MacIntel,60,,,,,,,,,,0.506222873,-0.546970486,1,0,0,0.665745,done_pile,7,0,7,0,1,PLATE - SAHANI,,,,,,,,,,,,,,,,,,,,,,,,,,,,,,,,,,,,,,,,,,,,,,,,,,,,,,,,,,,,,,,,,,,,,,,,,,,,,,,,
,,,,,,,,,,00001582945,2020-10-27_15h51.00.415,swahili,2020.2.4,MacIntel,60,,,,,,,,,,-0.233094618,0.035763889,1,0,0,0.54732,unsorted_card,8,0,8,0,1,,,,,,,,,,,,,,,,,,,,,,,,,,,,,,,,,,,,,,,,,,,,,,,,,,,,,,,,,,,,,,,,,,,,,,,,,,,,,,,,,
,,,,,,,,,,00001582945,2020-10-27_15h51.00.415,swahili,2020.2.4,MacIntel,60,,,,,,,,,,0.57070855,-0.521579861,1,0,0,0.73362,done_pile,9,0,9,0,1,YEAST - HAMIRA,,,,,,,,,,,,,,,,,,,,,,,,,,,,,,,,,,,,,,,,,,,,,,,,,,,,,,,,,,,,,,,,,,,,,,,,,,,,,,,,
,,,,,,,,,,00001582945,2020-10-27_15h51.00.415,swahili,2020.2.4,MacIntel,60,,,,,,,,,,-0.428765191,-0.021501736,1,0,0,0.547765,unsorted_card,10,0,10,0,1,,,,,,,,,,,,,,,,,,,,,,,,,,,,,,,,,,,,,,,,,,,,,,,,,,,,,,,,,,,,,,,,,,,,,,,,,,,,,,,,,
,,,,,,,,,,00001582945,2020-10-27_15h51.00.415,swahili,2020.2.4,MacIntel,60,,,,,,,,,,0.411002604,-0.528776042,1,0,0,0.89855,done_pile,11,0,11,0,1,BLAME - LAWAMA,,,,,,,,,,,,,,,,,,,,,,,,,,,,,,,,,,,,,,,,,,,,,,,,,,,,,,,,,,,,,,,,,,,,,,,,,,,,,,,,
,,,,,,,,,,00001582945,2020-10-27_15h51.00.415,swahili,2020.2.4,MacIntel,60,,,,,,,,,,-0.323280165,0.018967014,1,0,0,0.48215,unsorted_card,12,0,12,0,1,,,,,,,,,,,,,,,,,,,,,,,,,,,,,,,,,,,,,,,,,,,,,,,,,,,,,,,,,,,,,,,,,,,,,,,,,,,,,,,,,
,,,,,,,,,,00001582945,2020-10-27_15h51.00.415,swahili,2020.2.4,MacIntel,60,,,,,,,,,,0.537934028,-0.572873264,1,0,0,0.698275,done_pile,13,0,13,0,1,OATH - YAMINI,,,,,,,,,,,,,,,,,,,,,,,,,,,,,,,,,,,,,,,,,,,,,,,,,,,,,,,,,,,,,,,,,,,,,,,,,,,,,,,,
,,,,,,,,,,00001582945,2020-10-27_15h51.00.415,swahili,2020.2.4,MacIntel,60,,,,,,,,,,-0.346685113,0.070789931,1,0,0,0.5319,unsorted_card,14,0,14,0,1,,,,,,,,,,,,,,,,,,,,,,,,,,,,,,,,,,,,,,,,,,,,,,,,,,,,,,,,,,,,,,,,,,,,,,,,,,,,,,,,,
,,,,,,,,,,00001582945,2020-10-27_15h51.00.415,swahili,2020.2.4,MacIntel,60,,,,,,,,,,0.478879123,-0.477986111,1,0,0,0.581545,done_pile,15,0,15,0,1,CORN - NAFAKA,,,,,,,,,,,,,,,,,,,,,,,,,,,,,,,,,,,,,,,,,,,,,,,,,,,,,,,,,,,,,,,,,,,,,,,,,,,,,,,,
,,,,,,,,,,00001582945,2020-10-27_15h51.00.415,swahili,2020.2.4,MacIntel,60,,,,,,,,,,-0.229833984,-0.048958333,1,0,0,0.51642,unsorted_card,16,0,16,0,1,,,,,,,,,,,,,,,,,,,,,,,,,,,,,,,,,,,,,,,,,,,,,,,,,,,,,,,,,,,,,,,,,,,,,,,,,,,,,,,,,
,,,,,,,,,,00001582945,2020-10-27_15h51.00.415,swahili,2020.2.4,MacIntel,60,,,,,,,,,,0.526557075,-0.583567708,1,0,0,0.58167,done_pile,17,0,17,0,1,POEM - UTENZI,,,,,,,,,,,,,,,,,,,,,,,,,,,,,,,,,,,,,,,,,,,,,,,,,,,,,,,,,,,,,,,,,,,,,,,,,,,,,,,,
,,,,,,,,,,00001582945,2020-10-27_15h51.00.415,swahili,2020.2.4,MacIntel,60,,,,,,,,,,-0.300732422,-0.042447917,1,0,0,0.51479,unsorted_card,18,0,18,0,1,,,,,,,,,,,,,,,,,,,,,,,,,,,,,,,,,,,,,,,,,,,,,,,,,,,,,,,,,,,,,,,,,,,,,,,,,,,,,,,,,
,,,,,,,,,,00001582945,2020-10-27_15h51.00.415,swahili,2020.2.4,MacIntel,60,,,,,,,,,,0.463096788,-0.579973958,1,0,0,0.59997,done_pile,19,0,19,0,1,TAILOR - MSHONI,,,,,,,,,,,,,,,,,,,,,,,,,,,,,,,,,,,,,,,,,,,,,,,,,,,,,,,,,,,,,,,,,,,,,,,,,,,,,,,,
,,,,,,,,,,00001582945,2020-10-27_15h51.00.415,swahili,2020.2.4,MacIntel,60,,,,,,,,,,-0.282866753,-0.060399306,1,0,0,0.54758,unsorted_card,20,0,20,0,1,,,,,,,,,,,,,,,,,,,,,,,,,,,,,,,,,,,,,,,,,,,,,,,,,,,,,,,,,,,,,,,,,,,,,,,,,,,,,,,,,
,,,,,,,,,,00001582945,2020-10-27_15h51.00.415,swahili,2020.2.4,MacIntel,60,,,,,,,,,,0.393408203,-0.576293403,1,0,0,0.531275,done_pile,21,0,21,0,1,CHEESE - JIBINI,,,,,,,,,,,,,,,,,,,,,,,,,,,,,,,,,,,,,,,,,,,,,,,,,,,,,,,,,,,,,,,,,,,,,,,,,,,,,,,,
,,,,,,,,,,00001582945,2020-10-27_15h51.00.415,swahili,2020.2.4,MacIntel,60,,,,,,,,,,-0.297054036,-0.034739583,1,0,0,0.481225,unsorted_card,22,0,22,0,1,,,,,,,,,,,,,,,,,,,,,,,,,,,,,,,,,,,,,,,,,,,,,,,,,,,,,,,,,,,,,,,,,,,,,,,,,,,,,,,,,
,,,,,,,,,,00001582945,2020-10-27_15h51.00.415,swahili,2020.2.4,MacIntel,60,,,,,,,,,,0.363894314,-0.494557292,1,0,0,0.683335,done_pile,23,0,23,0,1,GRAPES - ZABIBU,,,,,,,,,,,,,,,,,,,,,,,,,,,,,,,,,,,,,,,,,,,,,,,,,,,,,,,,,,,,,,,,,,,,,,,,,,,,,,,,
,,,,,,,,,,00001582945,2020-10-27_15h51.00.415,swahili,2020.2.4,MacIntel,60,,,,,,,,,,-0.172564019,-0.017881944,1,0,0,0.463625,unsorted_card,24,0,24,0,1,,,,,,,,,,,,,,,,,,,,,,,,,,,,,,,,,,,,,,,,,,,,,,,,,,,,,,,,,,,,,,,,,,,,,,,,,,,,,,,,,
,,,,,,,,,,00001582945,2020-10-27_15h51.00.415,swahili,2020.2.4,MacIntel,60,,,,,,,,,,0.429383681,-0.505225694,1,0,0,0.64813,done_pile,25,0,25,0,1,GRAVE - KABURI,,,,,,,,,,,,,,,,,,,,,,,,,,,,,,,,,,,,,,,,,,,,,,,,,,,,,,,,,,,,,,,,,,,,,,,,,,,,,,,,
,,,,,,,,,,00001582945,2020-10-27_15h51.00.415,swahili,2020.2.4,MacIntel,60,,,,,,,,,,-0.269124349,-0.042925347,1,0,0,0.447625,unsorted_card,26,0,26,0,1,,,,,,,,,,,,,,,,,,,,,,,,,,,,,,,,,,,,,,,,,,,,,,,,,,,,,,,,,,,,,,,,,,,,,,,,,,,,,,,,,
,,,,,,,,,,00001582945,2020-10-27_15h51.00.415,swahili,2020.2.4,MacIntel,60,,,,,,,,,,0.390098741,-0.440807292,1,0,0,0.58284,done_pile,27,0,27,0,1,MANURE - SAMADI,,,,,,,,,,,,,,,,,,,,,,,,,,,,,,,,,,,,,,,,,,,,,,,,,,,,,,,,,,,,,,,,,,,,,,,,,,,,,,,,
,,,,,,,,,,00001582945,2020-10-27_15h51.00.415,swahili,2020.2.4,MacIntel,60,,,,,,,,,,-0.236235894,-0.069548611,1,0,0,0.46388,unsorted_card,28,0,28,0,1,,,,,,,,,,,,,,,,,,,,,,,,,,,,,,,,,,,,,,,,,,,,,,,,,,,,,,,,,,,,,,,,,,,,,,,,,,,,,,,,,
,,,,,,,,,,00001582945,2020-10-27_15h51.00.415,swahili,2020.2.4,MacIntel,60,,,,,,,,,,0.340570747,-0.594809028,1,0,0,0.734325,done_pile,29,0,29,0,1,AGENT - WAKILI,,,,,,,,,,,,,,,,,,,,,,,,,,,,,,,,,,,,,,,,,,,,,,,,,,,,,,,,,,,,,,,,,,,,,,,,,,,,,,,,
,,,,,,,,,,00001582945,2020-10-27_15h51.00.415,swahili,2020.2.4,MacIntel,60,,,,,,,,,,-0.110628255,-0.042439236,1,0,0,0.56374,unsorted_card,30,0,30,0,1,,,,,,,,,,,,,,,,,,,,,,,,,,,,,,,,,,,,,,,,,,,,,,,,,,,,,,,,,,,,,,,,,,,,,,,,,,,,,,,,,
,,,,,,,,,,00001582945,2020-10-27_15h51.00.415,swahili,2020.2.4,MacIntel,60,,,,,,,,,,0.467404514,-0.655347222,1,0,0,0.58332,done_pile,31,0,31,0,1,BRIBE - RUSHWA,,,,,,,,,,,,,,,,,,,,,,,,,,,,,,,,,,,,,,,,,,,,,,,,,,,,,,,,,,,,,,,,,,,,,,,,,,,,,,,,
,,,,,,,,,,00001582945,2020-10-27_15h51.00.415,swahili,2020.2.4,MacIntel,60,,,,,,,,,,-0.274717882,-0.146944444,1,0,0,0.529685,unsorted_card,32,0,32,0,1,,,,,,,,,,,,,,,,,,,,,,,,,,,,,,,,,,,,,,,,,,,,,,,,,,,,,,,,,,,,,,,,,,,,,,,,,,,,,,,,,
,,,,,,,,,,00001582945,2020-10-27_15h51.00.415,swahili,2020.2.4,MacIntel,60,,,,,,,,,,0.513975694,-0.508072917,1,0,0,0.682845,done_pile,33,0,33,0,1,ORPHAN - YATIMA,,,,,,,,,,,,,,,,,,,,,,,,,,,,,,,,,,,,,,,,,,,,,,,,,,,,,,,,,,,,,,,,,,,,,,,,,,,,,,,,
,,,,,,,,,,00001582945,2020-10-27_15h51.00.415,swahili,2020.2.4,MacIntel,60,,,,,,,,,,-0.142664931,0.103012153,1,0,0,0.698235,unsorted_card,34,0,34,0,1,,,,,,,,,,,,,,,,,,,,,,,,,,,,,,,,,,,,,,,,,,,,,,,,,,,,,,,,,,,,,,,,,,,,,,,,,,,,,,,,,
,,,,,,,,,,00001582945,2020-10-27_15h51.00.415,swahili,2020.2.4,MacIntel,60,,,,,,,,,,0.566644965,-0.420980903,1,0,0,0.714565,done_pile,35,0,35,0,1,DIVORCE - TALAKA,,,,,,,,,,,,,,,,,,,,,,,,,,,,,,,,,,,,,,,,,,,,,,,,,,,,,,,,,,,,,,,,,,,,,,,,,,,,,,,,
,,,,,,,,,,00001582945,2020-10-27_15h51.00.415,swahili,2020.2.4,MacIntel,60,,,,,,,,,,-0.246495226,0.096319444,1,0,0,0.46617,unsorted_card,36,0,36,0,1,,,,,,,,,,,,,,,,,,,,,,,,,,,,,,,,,,,,,,,,,,,,,,,,,,,,,,,,,,,,,,,,,,,,,,,,,,,,,,,,,
,,,,,,,,,,00001582945,2020-10-27_15h51.00.415,swahili,2020.2.4,MacIntel,60,,,,,,,,,,0.497032335,-0.670086806,1,0,0,0.56474,done_pile,37,0,37,0,1,BOAT - MASHUA,,,,,,,,,,,,,,,,,,,,,,,,,,,,,,,,,,,,,,,,,,,,,,,,,,,,,,,,,,,,,,,,,,,,,,,,,,,,,,,,
,,,,,,,,,,00001582945,2020-10-27_15h51.00.415,swahili,2020.2.4,MacIntel,60,,,,,,,,,,-0.402501085,0.293229167,1,0,0,0.49961,unsorted_card,38,0,38,0,1,,,,,,,,,,,,,,,,,,,,,,,,,,,,,,,,,,,,,,,,,,,,,,,,,,,,,,,,,,,,,,,,,,,,,,,,,,,,,,,,,
,,,,,,,,,,00001582945,2020-10-27_15h51.00.415,swahili,2020.2.4,MacIntel,60,,,,,,,,,,0.497081163,-0.536753472,1,0,0,0.681785,done_pile,39,0,39,0,1,TREASURE - DAFINA,,,,,,,,,,,,,,,,,,,,,,,,,,,,,,,,,,,,,,,,,,,,,,,,,,,,,,,,,,,,,,,,,,,,,,,,,,,,,,,,
,,,,,,,,,,00001582945,2020-10-27_15h51.00.415,swahili,2020.2.4,MacIntel,60,,,,,,,,,,,,,,,,,,,,,,,,,,,,,,,,,,,,,,,,0,0,0,0,1,,,,,,,,,,,,,,,,,,,,,,,,,,,,,,,,,,,,,,,,,,,,,,,,,,,,,,,,,,
,,,,,,,,,,00001582945,2020-10-27_15h51.00.415,swahili,2020.2.4,MacIntel,60,,,,,,,,,,,,,,,,,,,,,,,,,,,,,,,,,,,,,,,,1,0,1,0,1,,,,,,,,,,,,,,,,,,,,,,,,,,,,,,,,,,,,,,,,,,,,,,,,,,,,,,,,,,
,,,,,,,,,,00001582945,2020-10-27_15h51.00.415,swahili,2020.2.4,MacIntel,60,,,,,,,,FAHILI,BULL,,,,,,,,,,,,,,,,,,,,,,,,,,,,,,,,,,,,,,,,,,43.46138,,,,,,,,,OMBE,incorrect,,,,,,return,1.63509,return,2.270525,return,1.879415,0,0,0,2,1,,,,,,,,,,,,,,,,,,,,,,,,,
,,,,,,,,,,00001582945,2020-10-27_15h51.00.415,swahili,2020.2.4,MacIntel,60,,,,,,,,NAFAKA,CORN,,,,,,,,,,,,,,,,,,,,,,,,,,,,,,,,,,,,,,,,,,9.267055,,,,,,,,,MAHINDI,incorrect,,,,,,,,,,,,0,1,1,7,1,,,,,,,,,,,,,,,,,,,,,,,,,
,,,,,,,,,,00001582945,2020-10-27_15h51.00.415,swahili,2020.2.4,MacIntel,60,,,,,,,,TAJIRI,MERCHANT,,,,,,,,,,,,,,,,,,,,,,,,,,,,,,,,,,,,,,,,,,27.014005,,,,,,,,,FAHILI,incorrect,,,,,,,,,,,,0,2,2,0,1,,,,,,,,,,,,,,,,,,,,,,,,,
,,,,,,,,,,00001582945,2020-10-27_15h51.00.415,swahili,2020.2.4,MacIntel,60,,,,,,,,TALAKA,DIVORCE,,,,,,,,,,,,,,,,,,,,,,,,,,,,,,,,,,,,,,,,,,11.61467,,,,,,,,,TALAKA,correct,,,,,,,,,,,,0,3,3,17,1,,,,,,,,,,,,,,,,,,,,,,,,,
,,,,,,,,,,00001582945,2020-10-27_15h51.00.415,swahili,2020.2.4,MacIntel,60,,,,,,,,JIBINI,CHEESE,,,,,,,,,,,,,,,,,,,,,,,,,,,,,,,,,,,,,,,,,,7.91321,,,,,,,,,JIBINI,correct,,,,,,,,,,,,0,4,4,10,1,,,,,,,,,,,,,,,,,,,,,,,,,
,,,,,,,,,,00001582945,2020-10-27_15h51.00.415,swahili,2020.2.4,MacIntel,60,,,,,,,,KASUKU,PARROT,,,,,,,,,,,,,,,,,,,,,,,,,,,,,,,,,,,,,,,,,,9.849945,,,,,,,,,KASUKU,correct,,,,,,,,,,,,0,5,5,1,1,,,,,,,,,,,,,,,,,,,,,,,,,
,,,,,,,,,,00001582945,2020-10-27_15h51.00.415,swahili,2020.2.4,MacIntel,60,,,,,,,,YATIMA,ORPHAN,,,,,,,,,,,,,,,,,,,,,,,,,,,,,,,,,,,,,,,,,,7.24809,,,,,,,,,YATIMA,correct,,,,,,,,,,,,0,6,6,16,1,,,,,,,,,,,,,,,,,,,,,,,,,
,,,,,,,,,,00001582945,2020-10-27_15h51.00.415,swahili,2020.2.4,MacIntel,60,,,,,,,,MSHONI,TAILOR,,,,,,,,,,,,,,,,,,,,,,,,,,,,,,,,,,,,,,,,,,12.34828,,,,,,,,,USHONA,incorrect,,,,,,,,,,,,0,7,7,9,1,,,,,,,,,,,,,,,,,,,,,,,,,
,,,,,,,,,,00001582945,2020-10-27_15h51.00.415,swahili,2020.2.4,MacIntel,60,,,,,,,,SAMADI,MANURE,,,,,,,,,,,,,,,,,,,,,,,,,,,,,,,,,,,,,,,,,,7.814195,,,,,,,,,SAMADI,correct,,,,,,,,,,,,0,8,8,13,1,,,,,,,,,,,,,,,,,,,,,,,,,
,,,,,,,,,,00001582945,2020-10-27_15h51.00.415,swahili,2020.2.4,MacIntel,60,,,,,,,,LAWAMA,BLAME,,,,,,,,,,,,,,,,,,,,,,,,,,,,,,,,,,,,,,,,,,8.031845,,,,,,,,,LAWAMA,correct,,,,,,,,,,,,0,9,9,5,1,,,,,,,,,,,,,,,,,,,,,,,,,
,,,,,,,,,,00001582945,2020-10-27_15h51.00.415,swahili,2020.2.4,MacIntel,60,,,,,,,,HAMIRA,YEAST,,,,,,,,,,,,,,,,,,,,,,,,,,,,,,,,,,,,,,,,,,8.581755,,,,,,,,,CHACHU,incorrect,,,,,,,,,,,,0,10,10,4,1,,,,,,,,,,,,,,,,,,,,,,,,,
,,,,,,,,,,00001582945,2020-10-27_15h51.00.415,swahili,2020.2.4,MacIntel,60,,,,,,,,YAMINI,OATH,,,,,,,,,,,,,,,,,,,,,,,,,,,,,,,,,,,,,,,,,,12.898,,,,,,,,,SAYIRI,incorrect,,,,,,,,,,,,0,11,11,6,1,,,,,,,,,,,,,,,,,,,,,,,,,
,,,,,,,,,,00001582945,2020-10-27_15h51.00.415,swahili,2020.2.4,MacIntel,60,,,,,,,,WAKILI,AGENT,,,,,,,,,,,,,,,,,,,,,,,,,,,,,,,,,,,,,,,,,,6.99672,,,,,,,,,WAKALA,incorrect,,,,,,,,,,,,0,12,12,14,1,,,,,,,,,,,,,,,,,,,,,,,,,
,,,,,,,,,,00001582945,2020-10-27_15h51.00.415,swahili,2020.2.4,MacIntel,60,,,,,,,,ZABIBU,GRAPES,,,,,,,,,,,,,,,,,,,,,,,,,,,,,,,,,,,,,,,,,,8.33277,,,,,,,,,ZABIBU,correct,,,,,,,,,,,,0,13,13,11,1,,,,,,,,,,,,,,,,,,,,,,,,,
,,,,,,,,,,00001582945,2020-10-27_15h51.00.415,swahili,2020.2.4,MacIntel,60,,,,,,,,RUSHWA,BRIBE,,,,,,,,,,,,,,,,,,,,,,,,,,,,,,,,,,,,,,,,,,10.61501,,,,,,,,,HALAMA,incorrect,,,,,,,,,,,,0,14,14,15,1,,,,,,,,,,,,,,,,,,,,,,,,,
,,,,,,,,,,00001582945,2020-10-27_15h51.00.415,swahili,2020.2.4,MacIntel,60,,,,,,,,MASHUA,BOAT,,,,,,,,,,,,,,,,,,,,,,,,,,,,,,,,,,,,,,,,,,6.79805,,,,,,,,,MASHUA,correct,,,,,,,,,,,,0,15,15,18,1,,,,,,,,,,,,,,,,,,,,,,,,,
,,,,,,,,,,00001582945,2020-10-27_15h51.00.415,swahili,2020.2.4,MacIntel,60,,,,,,,,DAFINA,TREASURE,,,,,,,,,,,,,,,,,,,,,,,,,,,,,,,,,,,,,,,,,,9.198115,,,,,,,,,HASINA,incorrect,,,,,,,,,,,,0,16,16,19,1,,,,,,,,,,,,,,,,,,,,,,,,,
,,,,,,,,,,00001582945,2020-10-27_15h51.00.415,swahili,2020.2.4,MacIntel,60,,,,,,,,KABURI,GRAVE,,,,,,,,,,,,,,,,,,,,,,,,,,,,,,,,,,,,,,,,,,7.64795,,,,,,,,,KABURI,correct,,,,,,,,,,,,0,17,17,12,1,,,,,,,,,,,,,,,,,,,,,,,,,
,,,,,,,,,,00001582945,2020-10-27_15h51.00.415,swahili,2020.2.4,MacIntel,60,,,,,,,,UTENZI,POEM,,,,,,,,,,,,,,,,,,,,,,,,,,,,,,,,,,,,,,,,,,7.99805,,,,,,,,,SHAIRI,incorrect,,,,,,,,,,,,0,18,18,8,1,,,,,,,,,,,,,,,,,,,,,,,,,
,,,,,,,,,,00001582945,2020-10-27_15h51.00.415,swahili,2020.2.4,MacIntel,60,,,,,,,,SAHANI,PLATE,,,,,,,,,,,,,,,,,,,,,,,,,,,,,,,,,,,,,,,,,,7.83151,,,,,,,,,SAHAMI,incorrect,,,,,,,,,,,,0,19,19,3,1,,,,,,,,,,,,,,,,,,,,,,,,,
,,,,,,,,,,00001582945,2020-10-27_15h51.00.415,swahili,2020.2.4,MacIntel,60,,,,,,,,,,,,,,,,,,,,,,,,,,,,,,,,,,,,,,,,,,,,,,,,,,,,,,,,,,,,,,,,,,,,,,,,,,,,,,0,0,0,0,1,I bought all my goods from the ____ at the market. ,TAJIRI,,,,,,,,,,,,,,,,,,
,,,,,,,,,,00001582945,2020-10-27_15h51.00.415,swahili,2020.2.4,MacIntel,60,,,,,,,,,,,,,,,,,,,,,,,,,,,,,,,,,,,,,,,,,,,,,,,,,,,,,,,,,,,,,,,,,,,,,,,,,,,,,,0,1,1,1,1,The ____ is a bird that can learn to repeat words.,KASUKU,,,,,,,,,,,,,,,,,,
,,,,,,,,,,00001582945,2020-10-27_15h51.00.415,swahili,2020.2.4,MacIntel,60,,,,,,,,,,,,,,,,,,,,,,,,,,,,,,,,,,,,,,,,,,,,,,,,,,,,,,,,,,,,,,,,,,,,,,,,,,,,,,0,2,2,2,1,The ____ charged the matador's red cape. ,FAHILI,,,,,,,,,,,,,,,,,,
,,,,,,,,,,00001582945,2020-10-27_15h51.00.415,swahili,2020.2.4,MacIntel,60,,,,,,,,,,,,,,,,,,,,,,,,,,,,,,,,,,,,,,,,,,,,,,,,,,,,,,,,,,,,,,,,,,,,,,,,,,,,,,0,3,3,3,1,I filled my ____ with food at the buffet. ,SAHANI,,,,,,,,,,,,,,,,,,
,,,,,,,,,,00001582945,2020-10-27_15h51.00.415,swahili,2020.2.4,MacIntel,60,,,,,,,,,,,,,,,,,,,,,,,,,,,,,,,,,,,,,,,,,,,,,,,,,,,,,,,,,,,,,,,,,,,,,,,,,,,,,,0,4,4,4,1,_____ makes bread rise. ,HAMIRA,,,,,,,,,,,,,,,,,,
,,,,,,,,,,00001582945,2020-10-27_15h51.00.415,swahili,2020.2.4,MacIntel,60,,,,,,,,,,,,,,,,,,,,,,,,,,,,,,,,,,,,,,,,,,,,,,,,,,,,,,,,,,,,,,,,,,,,,,,,,,,,,,0,5,5,5,1,Shannon had no one else to  ____ for what happened.,LAWAMA,,,,,,,,,,,,,,,,,,
,,,,,,,,,,00001582945,2020-10-27_15h51.00.415,swahili,2020.2.4,MacIntel,60,,,,,,,,,,,,,,,,,,,,,,,,,,,,,,,,,,,,,,,,,,,,,,,,,,,,,,,,,,,,,,,,,,,,,,,,,,,,,,0,6,6,6,1,The president takes the  ____ of office to uphold the Constitution.,YAMINI,,,,,,,,,,,,,,,,,,
,,,,,,,,,,00001582945,2020-10-27_15h51.00.415,swahili,2020.2.4,MacIntel,60,,,,,,,,,,,,,,,,,,,,,,,,,,,,,,,,,,,,,,,,,,,,,,,,,,,,,,,,,,,,,,,,,,,,,,,,,,,,,,0,7,7,7,1,Kate doesn't like ____ on the cob because it gets stuck between her teeth. ,NAFAKA,,,,,,,,,,,,,,,,,,
,,,,,,,,,,00001582945,2020-10-27_15h51.00.415,swahili,2020.2.4,MacIntel,60,,,,,,,,,,,,,,,,,,,,,,,,,,,,,,,,,,,,,,,,,,,,,,,,,,,,,,,,,,,,,,,,,,,,,,,,,,,,,,0,8,8,8,1,David wrote Cynthia a romantic ____  but she thought it rhymed too much.,UTENZI,,,,,,,,,,,,,,,,,,
,,,,,,,,,,00001582945,2020-10-27_15h51.00.415,swahili,2020.2.4,MacIntel,60,,,,,,,,,,,,,,,,,,,,,,,,,,,,,,,,,,,,,,,,,,,,,,,,,,,,,,,,,,,,,,,,,,,,,,,,,,,,,,0,9,9,9,1,Charles went to the ____ to get his suit adjusted. ,MSHONI,,,,,,,,,,,,,,,,,,
,,,,,,,,,,00001582945,2020-10-27_15h51.00.415,swahili,2020.2.4,MacIntel,60,,,,,,,,,,,,,,,,,,,,,,,,,,,,,,,,,,,,,,,,,,,,,,,,,,,,,,,,,,,,,,,,,,,,,,,,,,,,,,0,10,10,10,1,Amy cooked a grilled ____ sandwich to go with her tomato soup.,JIBINI,,,,,,,,,,,,,,,,,,
,,,,,,,,,,00001582945,2020-10-27_15h51.00.415,swahili,2020.2.4,MacIntel,60,,,,,,,,,,,,,,,,,,,,,,,,,,,,,,,,,,,,,,,,,,,,,,,,,,,,,,,,,,,,,,,,,,,,,,,,,,,,,,0,11,11,11,1,Fermented _______ are used to make wine.,ZABIBU,,,,,,,,,,,,,,,,,,
,,,,,,,,,,00001582945,2020-10-27_15h51.00.415,swahili,2020.2.4,MacIntel,60,,,,,,,,,,,,,,,,,,,,,,,,,,,,,,,,,,,,,,,,,,,,,,,,,,,,,,,,,,,,,,,,,,,,,,,,,,,,,,0,12,12,12,1,She visited her father's ___ on the anniversary of his death. ,KABURI,,,,,,,,,,,,,,,,,,
,,,,,,,,,,00001582945,2020-10-27_15h51.00.415,swahili,2020.2.4,MacIntel,60,,,,,,,,,,,,,,,,,,,,,,,,,,,,,,,,,,,,,,,,,,,,,,,,,,,,,,,,,,,,,,,,,,,,,,,,,,,,,,0,13,13,13,1,"On a farm, there is a good chance you will step into a pile of ______.",SAMADI,,,,,,,,,,,,,,,,,,
,,,,,,,,,,00001582945,2020-10-27_15h51.00.415,swahili,2020.2.4,MacIntel,60,,,,,,,,,,,,,,,,,,,,,,,,,,,,,,,,,,,,,,,,,,,,,,,,,,,,,,,,,,,,,,,,,,,,,,,,,,,,,,0,14,14,14,1,"To buy a house, you may need to speak with a real estate ______.",WAKILI,,,,,,,,,,,,,,,,,,
,,,,,,,,,,00001582945,2020-10-27_15h51.00.415,swahili,2020.2.4,MacIntel,60,,,,,,,,,,,,,,,,,,,,,,,,,,,,,,,,,,,,,,,,,,,,,,,,,,,,,,,,,,,,,,,,,,,,,,,,,,,,,,0,15,15,15,1,The politician was arrested for taking a _____.,RUSHWA,,,,,,,,,,,,,,,,,,
,,,,,,,,,,00001582945,2020-10-27_15h51.00.415,swahili,2020.2.4,MacIntel,60,,,,,,,,,,,,,,,,,,,,,,,,,,,,,,,,,,,,,,,,,,,,,,,,,,,,,,,,,,,,,,,,,,,,,,,,,,,,,,0,16,16,16,1,The _____ is living with foster parents.,YATIMA,,,,,,,,,,,,,,,,,,
,,,,,,,,,,00001582945,2020-10-27_15h51.00.415,swahili,2020.2.4,MacIntel,60,,,,,,,,,,,,,,,,,,,,,,,,,,,,,,,,,,,,,,,,,,,,,,,,,,,,,,,,,,,,,,,,,,,,,,,,,,,,,,0,17,17,17,1,My aunt and uncle got a _________ after two years of marriage.,TALAKA,,,,,,,,,,,,,,,,,,
,,,,,,,,,,00001582945,2020-10-27_15h51.00.415,swahili,2020.2.4,MacIntel,60,,,,,,,,,,,,,,,,,,,,,,,,,,,,,,,,,,,,,,,,,,,,,,,,,,,,,,,,,,,,,,,,,,,,,,,,,,,,,,0,18,18,18,1,You need a ______ to go fishing in the middle of a lake.,MASHUA,,,,,,,,,,,,,,,,,,
,,,,,,,,,,00001582945,2020-10-27_15h51.00.415,swahili,2020.2.4,MacIntel,60,,,,,,,,,,,,,,,,,,,,,,,,,,,,,,,,,,,,,,,,,,,,,,,,,,,,,,,,,,,,,,,,,,,,,,,,,,,,,,0,19,19,19,1,Pirates looked for buried _________ at the bottom of the sea.,DAFINA,,,,,,,,,,,,,,,,,,
,,,,,,,,,,00001582945,2020-10-27_15h51.00.415,swahili,2020.2.4,MacIntel,60,,,,,,,,,,,,,,,,,,,,,,,,,,,,,,,,,,,,,,,,,,,,,,,,,,,,,,,,,,,,,,,,,,,,,,,,,,,,,,,,,,,Charles went to the ____ to get his suit adjusted. ,MSHONI,return,4.381405,HAMIRA,incorrect,-0.011528863,-0.656282372,1,0,0,13.38337,b,0,0,0,9,1,,
,,,,,,,,,,00001582945,2020-10-27_15h51.00.415,swahili,2020.2.4,MacIntel,60,,,,,,,,,,,,,,,,,,,,,,,,,,,,,,,,,,,,,,,,,,,,,,,,,,,,,,,,,,,,,,,,,,,,,,,,,,,,,,,,,,,My aunt and uncle got a _________ after two years of marriage.,TALAKA,,,YATIMA,incorrect,0.14594184,-0.453567421,1,0,0,4.862145,b,0,1,1,17,1,,
,,,,,,,,,,00001582945,2020-10-27_15h51.00.415,swahili,2020.2.4,MacIntel,60,,,,,,,,,,,,,,,,,,,,,,,,,,,,,,,,,,,,,,,,,,,,,,,,,,,,,,,,,,,,,,,,,,,,,,,,,,,,,,,,,,,David wrote Cynthia a romantic ____  but she thought it rhymed too much.,UTENZI,,,UTENZI,correct,0.014165582,-0.511686378,1,0,0,10.494275,b,0,2,2,8,1,,
,,,,,,,,,,00001582945,2020-10-27_15h51.00.415,swahili,2020.2.4,MacIntel,60,,,,,,,,,,,,,,,,,,,,,,,,,,,,,,,,,,,,,,,,,,,,,,,,,,,,,,,,,,,,,,,,,,,,,,,,,,,,,,,,,,,The ____ charged the matador's red cape. ,FAHILI,,,HAMIRA,incorrect,0.536886936,-0.519595994,1,0,0,5.43011,c,0,3,3,2,1,,
,,,,,,,,,,00001582945,2020-10-27_15h51.00.415,swahili,2020.2.4,MacIntel,60,,,,,,,,,,,,,,,,,,,,,,,,,,,,,,,,,,,,,,,,,,,,,,,,,,,,,,,,,,,,,,,,,,,,,,,,,,,,,,,,,,,I bought all my goods from the ____ at the market. ,TAJIRI,,,NAFAKA,incorrect,0.501475694,-0.495446305,1,0,0,12.677885,c,0,4,4,0,1,,
,,,,,,,,,,00001582945,2020-10-27_15h51.00.415,swahili,2020.2.4,MacIntel,60,,,,,,,,,,,,,,,,,,,,,,,,,,,,,,,,,,,,,,,,,,,,,,,,,,,,,,,,,,,,,,,,,,,,,,,,,,,,,,,,,,,I filled my ____ with food at the buffet. ,SAHANI,,,SAHANI,correct,0.488264974,-0.551493439,1,0,0,7.911505,c,0,5,5,3,1,,
,,,,,,,,,,00001582945,2020-10-27_15h51.00.415,swahili,2020.2.4,MacIntel,60,,,,,,,,,,,,,,,,,,,,,,,,,,,,,,,,,,,,,,,,,,,,,,,,,,,,,,,,,,,,,,,,,,,,,,,,,,,,,,,,,,,Kate doesn't like ____ on the cob because it gets stuck between her teeth. ,NAFAKA,,,KASUKU,incorrect,-0.024169922,-0.472181457,1,0,0,33.36177,b,0,6,6,7,1,,
,,,,,,,,,,00001582945,2020-10-27_15h51.00.415,swahili,2020.2.4,MacIntel,60,,,,,,,,,,,,,,,,,,,,,,,,,,,,,,,,,,,,,,,,,,,,,,,,,,,,,,,,,,,,,,,,,,,,,,,,,,,,,,,,,,,You need a ______ to go fishing in the middle of a lake.,MASHUA,,,MASHUA,correct,-0.346592882,-0.465955197,1,0,0,4.245355,a,0,7,7,18,1,,
,,,,,,,,,,00001582945,2020-10-27_15h51.00.415,swahili,2020.2.4,MacIntel,60,,,,,,,,,,,,,,,,,,,,,,,,,,,,,,,,,,,,,,,,,,,,,,,,,,,,,,,,,,,,,,,,,,,,,,,,,,,,,,,,,,,"To buy a house, you may need to speak with a real estate ______.",WAKILI,,,WAKILI,correct,0.399462891,-0.421831837,1,0,0,11.96252,c,0,8,8,14,1,,
,,,,,,,,,,00001582945,2020-10-27_15h51.00.415,swahili,2020.2.4,MacIntel,60,,,,,,,,,,,,,,,,,,,,,,,,,,,,,,,,,,,,,,,,,,,,,,,,,,,,,,,,,,,,,,,,,,,,,,,,,,,,,,,,,,,The president takes the  ____ of office to uphold the Constitution.,YAMINI,,,YAMINI,correct,0.011539714,-0.57263251,1,0,0,18.07814,b,0,9,9,6,1,,
,,,,,,,,,,00001582945,2020-10-27_15h51.00.415,swahili,2020.2.4,MacIntel,60,,,,,,,,,,,,,,,,,,,,,,,,,,,,,,,,,,,,,,,,,,,,,,,,,,,,,,,,,,,,,,,,,,,,,,,,,,,,,,,,,,,Fermented _______ are used to make wine.,ZABIBU,,,ZABIBU,correct,0.113368056,-0.410145459,1,0,0,4.47918,b,0,10,10,11,1,,
,,,,,,,,,,00001582945,2020-10-27_15h51.00.415,swahili,2020.2.4,MacIntel,60,,,,,,,,,,,,,,,,,,,,,,,,,,,,,,,,,,,,,,,,,,,,,,,,,,,,,,,,,,,,,,,,,,,,,,,,,,,,,,,,,,,The _____ is living with foster parents.,YATIMA,,,YATIMA,correct,-0.47014974,-0.577132251,1,0,0,2.995445,a,0,11,11,16,1,,
,,,,,,,,,,00001582945,2020-10-27_15h51.00.415,swahili,2020.2.4,MacIntel,60,,,,,,,,,,,,,,,,,,,,,,,,,,,,,,,,,,,,,,,,,,,,,,,,,,,,,,,,,,,,,,,,,,,,,,,,,,,,,,,,,,,The politician was arrested for taking a _____.,RUSHWA,,,RUSHWA,correct,0.598714193,-0.479616281,1,0,0,7.828455,c,0,12,12,15,1,,
,,,,,,,,,,00001582945,2020-10-27_15h51.00.415,swahili,2020.2.4,MacIntel,60,,,,,,,,,,,,,,,,,,,,,,,,,,,,,,,,,,,,,,,,,,,,,,,,,,,,,,,,,,,,,,,,,,,,,,,,,,,,,,,,,,,Amy cooked a grilled ____ sandwich to go with her tomato soup.,JIBINI,,,JIBINI,correct,-0.42335612,-0.519056457,1,0,0,8.92915,a,0,13,13,10,1,,
,,,,,,,,,,00001582945,2020-10-27_15h51.00.415,swahili,2020.2.4,MacIntel,60,,,,,,,,,,,,,,,,,,,,,,,,,,,,,,,,,,,,,,,,,,,,,,,,,,,,,,,,,,,,,,,,,,,,,,,,,,,,,,,,,,,She visited her father's ___ on the anniversary of his death. ,KABURI,,,KABURI,correct,-0.475672743,-0.622701571,1,0,0,11.29673,a,0,14,14,12,1,,
,,,,,,,,,,00001582945,2020-10-27_15h51.00.415,swahili,2020.2.4,MacIntel,60,,,,,,,,,,,,,,,,,,,,,,,,,,,,,,,,,,,,,,,,,,,,,,,,,,,,,,,,,,,,,,,,,,,,,,,,,,,,,,,,,,,Shannon had no one else to  ____ for what happened.,LAWAMA,,,LAWAMA,correct,-0.010167101,-0.575869734,1,0,0,12.44475,b,0,15,15,5,1,,
,,,,,,,,,,00001582945,2020-10-27_15h51.00.415,swahili,2020.2.4,MacIntel,60,,,,,,,,,,,,,,,,,,,,,,,,,,,,,,,,,,,,,,,,,,,,,,,,,,,,,,,,,,,,,,,,,,,,,,,,,,,,,,,,,,,_____ makes bread rise. ,HAMIRA,,,HAMIRA,correct,0.497536892,-0.42058011,1,0,0,16.162835,c,0,16,16,4,1,,
,,,,,,,,,,00001582945,2020-10-27_15h51.00.415,swahili,2020.2.4,MacIntel,60,,,,,,,,,,,,,,,,,,,,,,,,,,,,,,,,,,,,,,,,,,,,,,,,,,,,,,,,,,,,,,,,,,,,,,,,,,,,,,,,,,,The ____ is a bird that can learn to repeat words.,KASUKU,,,KASUKU,correct,-0.427208116,-0.408019682,1,0,0,9.0462,a,0,17,17,1,1,,
,,,,,,,,,,00001582945,2020-10-27_15h51.00.415,swahili,2020.2.4,MacIntel,60,,,,,,,,,,,,,,,,,,,,,,,,,,,,,,,,,,,,,,,,,,,,,,,,,,,,,,,,,,,,,,,,,,,,,,,,,,,,,,,,,,,"On a farm, there is a good chance you will step into a pile of ______.",SAMADI,,,SAMADI,correct,0.09640842,-0.559327521,1,0,0,4.594085,b,0,18,18,13,1,,
,,,,,,,,,,00001582945,2020-10-27_15h51.00.415,swahili,2020.2.4,MacIntel,60,,,,,,,,,,,,,,,,,,,,,,,,,,,,,,,,,,,,,,,,,,,,,,,,,,,,,,,,,,,,,,,,,,,,,,,,,,,,,,,,,,,Pirates looked for buried _________ at the bottom of the sea.,DAFINA,,,DAFINA,correct,0.627587891,-0.412681285,1,0,0,10.878315,c,0,19,19,19,1,,
,,,,,,,,,,00001582945,2020-10-27_15h51.00.415,swahili,2020.2.4,MacIntel,60,,,,,,,,,,,,,,,,,,,,,,,,,,,,,,,,,,,,,,,,,,,,,,,,,,,,,,,,,,,,,,,,,,,,,,,,,,,,,,,,,,,,,,,,,,,,,,,,,,,,,return,4.25035
