condition,consent_key.keys,consent_key.rt,done_with_instructions.keys,done_with_instructions.rt,instr_loop.thisRepN,instr_loop.thisTrialN,instr_loop.thisN,instr_loop.thisIndex,instr_loop.ran,Student ID #,date,expName,psychopyVersion,OS,frameRate,instr_learning_key.keys,instr_learning_key.rt,card_gen_loop.thisRepN,card_gen_loop.thisTrialN,card_gen_loop.thisN,card_gen_loop.thisIndex,card_gen_loop.ran,swa,eng,choose_pile.x,choose_pile.y,choose_pile.leftButton,choose_pile.midButton,choose_pile.rightButton,choose_pile.time,choose_pile.clicked_name,choices.thisRepN,choices.thisTrialN,choices.thisN,choices.thisIndex,choices.ran,card_to_show,mouse_pick.x,mouse_pick.y,mouse_pick.leftButton,mouse_pick.midButton,mouse_pick.rightButton,mouse_pick.time,mouse_pick.clicked_name,key_instr_study.keys,next_study.keys,study_loop.thisRepN,study_loop.thisTrialN,study_loop.thisN,study_loop.thisIndex,study_loop.ran,key_instr_test.keys,key_instr_test.rt,duration,yes_or_no.x,yes_or_no.y,yes_or_no.leftButton,yes_or_no.midButton,yes_or_no.rightButton,yes_or_no.time,yes_or_no.clicked_name,test_response.stim,test_response.resp,test_response.eval,test_loop.thisRepN,test_loop.thisTrialN,test_loop.thisN,test_loop.thisIndex,test_loop.ran,learn_loop.thisRepN,learn_loop.thisTrialN,learn_loop.thisN,learn_loop.thisIndex,learn_loop.ran,key_instr_study.rt,next_study.rt,trials.thisRepN,trials.thisTrialN,trials.thisN,trials.thisIndex,trials.ran,instr_movie_key.keys,instr_movie_key.rt,return_to_exp.keys,return_to_exp.rt,instr_assess_key.keys,instr_assess_key.rt,assess_loop.thisRepN,assess_loop.thisTrialN,assess_loop.thisN,assess_loop.thisIndex,assess_loop.ran,ans_gen_loop.thisRepN,ans_gen_loop.thisTrialN,ans_gen_loop.thisN,ans_gen_loop.thisIndex,ans_gen_loop.ran,sen,ans,instr_transfer_key.keys,instr_transfer_key.rt,transfer_response.resp,transfer_response.eval,select_word.x,select_word.y,select_word.leftButton,select_word.midButton,select_word.rightButton,select_word.time,select_word.clicked_name,transfers.thisRepN,transfers.thisTrialN,transfers.thisN,transfers.thisIndex,transfers.ran,end_experiment.keys,end_experiment.rt
1,return,58.104945,return,21.158405,0,0,0,0,1,1591409,2020-10-27_17h36.18.891,swahili,2020.2.4,MacIntel,60,,,,,,,,,,,,,,,,,,,,,,,,,,,,,,,,,,,,,,,,,,,,,,,,,,,,,,,,,,,,,,,,,,,,,,,,,,,,,,,,,,,,,,,,,,,,,,,,,,,,,,
,,,,,,,,,,1591409,2020-10-27_17h36.18.891,swahili,2020.2.4,MacIntel,60,return,21.270265,0,0,0,0,1,TAJIRI,MERCHANT,,,,,,,,,,,,,,,,,,,,,,,,,,,,,,,,,,,,,,,,,,,,,,,,,,,,,,,,,,,,,,,,,,,,,,,,,,,,,,,,,,,,,,,,,,,,,
,,,,,,,,,,1591409,2020-10-27_17h36.18.891,swahili,2020.2.4,MacIntel,60,,,0,1,1,1,1,KASUKU,PARROT,,,,,,,,,,,,,,,,,,,,,,,,,,,,,,,,,,,,,,,,,,,,,,,,,,,,,,,,,,,,,,,,,,,,,,,,,,,,,,,,,,,,,,,,,,,,,
,,,,,,,,,,1591409,2020-10-27_17h36.18.891,swahili,2020.2.4,MacIntel,60,,,0,2,2,2,1,FAHILI,BULL,,,,,,,,,,,,,,,,,,,,,,,,,,,,,,,,,,,,,,,,,,,,,,,,,,,,,,,,,,,,,,,,,,,,,,,,,,,,,,,,,,,,,,,,,,,,,
,,,,,,,,,,1591409,2020-10-27_17h36.18.891,swahili,2020.2.4,MacIntel,60,,,0,3,3,3,1,SAHANI,PLATE,,,,,,,,,,,,,,,,,,,,,,,,,,,,,,,,,,,,,,,,,,,,,,,,,,,,,,,,,,,,,,,,,,,,,,,,,,,,,,,,,,,,,,,,,,,,,
,,,,,,,,,,1591409,2020-10-27_17h36.18.891,swahili,2020.2.4,MacIntel,60,,,0,4,4,4,1,HAMIRA,YEAST,,,,,,,,,,,,,,,,,,,,,,,,,,,,,,,,,,,,,,,,,,,,,,,,,,,,,,,,,,,,,,,,,,,,,,,,,,,,,,,,,,,,,,,,,,,,,
,,,,,,,,,,1591409,2020-10-27_17h36.18.891,swahili,2020.2.4,MacIntel,60,,,0,5,5,5,1,LAWAMA,BLAME,,,,,,,,,,,,,,,,,,,,,,,,,,,,,,,,,,,,,,,,,,,,,,,,,,,,,,,,,,,,,,,,,,,,,,,,,,,,,,,,,,,,,,,,,,,,,
,,,,,,,,,,1591409,2020-10-27_17h36.18.891,swahili,2020.2.4,MacIntel,60,,,0,6,6,6,1,YAMINI,OATH,,,,,,,,,,,,,,,,,,,,,,,,,,,,,,,,,,,,,,,,,,,,,,,,,,,,,,,,,,,,,,,,,,,,,,,,,,,,,,,,,,,,,,,,,,,,,
,,,,,,,,,,1591409,2020-10-27_17h36.18.891,swahili,2020.2.4,MacIntel,60,,,0,7,7,7,1,NAFAKA,CORN,,,,,,,,,,,,,,,,,,,,,,,,,,,,,,,,,,,,,,,,,,,,,,,,,,,,,,,,,,,,,,,,,,,,,,,,,,,,,,,,,,,,,,,,,,,,,
,,,,,,,,,,1591409,2020-10-27_17h36.18.891,swahili,2020.2.4,MacIntel,60,,,0,8,8,8,1,UTENZI,POEM,,,,,,,,,,,,,,,,,,,,,,,,,,,,,,,,,,,,,,,,,,,,,,,,,,,,,,,,,,,,,,,,,,,,,,,,,,,,,,,,,,,,,,,,,,,,,
,,,,,,,,,,1591409,2020-10-27_17h36.18.891,swahili,2020.2.4,MacIntel,60,,,0,9,9,9,1,MSHONI,TAILOR,,,,,,,,,,,,,,,,,,,,,,,,,,,,,,,,,,,,,,,,,,,,,,,,,,,,,,,,,,,,,,,,,,,,,,,,,,,,,,,,,,,,,,,,,,,,,
,,,,,,,,,,1591409,2020-10-27_17h36.18.891,swahili,2020.2.4,MacIntel,60,,,0,10,10,10,1,JIBINI,CHEESE,,,,,,,,,,,,,,,,,,,,,,,,,,,,,,,,,,,,,,,,,,,,,,,,,,,,,,,,,,,,,,,,,,,,,,,,,,,,,,,,,,,,,,,,,,,,,
,,,,,,,,,,1591409,2020-10-27_17h36.18.891,swahili,2020.2.4,MacIntel,60,,,0,11,11,11,1,ZABIBU,GRAPES,,,,,,,,,,,,,,,,,,,,,,,,,,,,,,,,,,,,,,,,,,,,,,,,,,,,,,,,,,,,,,,,,,,,,,,,,,,,,,,,,,,,,,,,,,,,,
,,,,,,,,,,1591409,2020-10-27_17h36.18.891,swahili,2020.2.4,MacIntel,60,,,0,12,12,12,1,KABURI,GRAVE,,,,,,,,,,,,,,,,,,,,,,,,,,,,,,,,,,,,,,,,,,,,,,,,,,,,,,,,,,,,,,,,,,,,,,,,,,,,,,,,,,,,,,,,,,,,,
,,,,,,,,,,1591409,2020-10-27_17h36.18.891,swahili,2020.2.4,MacIntel,60,,,0,13,13,13,1,SAMADI,MANURE,,,,,,,,,,,,,,,,,,,,,,,,,,,,,,,,,,,,,,,,,,,,,,,,,,,,,,,,,,,,,,,,,,,,,,,,,,,,,,,,,,,,,,,,,,,,,
,,,,,,,,,,1591409,2020-10-27_17h36.18.891,swahili,2020.2.4,MacIntel,60,,,0,14,14,14,1,WAKILI,AGENT,,,,,,,,,,,,,,,,,,,,,,,,,,,,,,,,,,,,,,,,,,,,,,,,,,,,,,,,,,,,,,,,,,,,,,,,,,,,,,,,,,,,,,,,,,,,,
,,,,,,,,,,1591409,2020-10-27_17h36.18.891,swahili,2020.2.4,MacIntel,60,,,0,15,15,15,1,RUSHWA,BRIBE,,,,,,,,,,,,,,,,,,,,,,,,,,,,,,,,,,,,,,,,,,,,,,,,,,,,,,,,,,,,,,,,,,,,,,,,,,,,,,,,,,,,,,,,,,,,,
,,,,,,,,,,1591409,2020-10-27_17h36.18.891,swahili,2020.2.4,MacIntel,60,,,0,16,16,16,1,YATIMA,ORPHAN,,,,,,,,,,,,,,,,,,,,,,,,,,,,,,,,,,,,,,,,,,,,,,,,,,,,,,,,,,,,,,,,,,,,,,,,,,,,,,,,,,,,,,,,,,,,,
,,,,,,,,,,1591409,2020-10-27_17h36.18.891,swahili,2020.2.4,MacIntel,60,,,0,17,17,17,1,TALAKA,DIVORCE,,,,,,,,,,,,,,,,,,,,,,,,,,,,,,,,,,,,,,,,,,,,,,,,,,,,,,,,,,,,,,,,,,,,,,,,,,,,,,,,,,,,,,,,,,,,,
,,,,,,,,,,1591409,2020-10-27_17h36.18.891,swahili,2020.2.4,MacIntel,60,,,0,18,18,18,1,MASHUA,BOAT,,,,,,,,,,,,,,,,,,,,,,,,,,,,,,,,,,,,,,,,,,,,,,,,,,,,,,,,,,,,,,,,,,,,,,,,,,,,,,,,,,,,,,,,,,,,,
,,,,,,,,,,1591409,2020-10-27_17h36.18.891,swahili,2020.2.4,MacIntel,60,,,0,19,19,19,1,DAFINA,TREASURE,,,,,,,,,,,,,,,,,,,,,,,,,,,,,,,,,,,,,,,,,,,,,,,,,,,,,,,,,,,,,,,,,,,,,,,,,,,,,,,,,,,,,,,,,,,,,
,,,,,,,,,,1591409,2020-10-27_17h36.18.891,swahili,2020.2.4,MacIntel,60,,,,,,,,,,-0.37292342,-0.070062833,1,0,0,7.34155,unsorted_card,0,0,0,0,1,,,,,,,,,,,,,,,,,,,,,,,,,,,,,,,,,,,,,,,,,,,,,,,,,,,,,,,,,,,,,,,,,,,,,,,,,,,,,,,,,
,,,,,,,,,,1591409,2020-10-27_17h36.18.891,swahili,2020.2.4,MacIntel,60,,,,,,,,,,0.32940387,0.023323069,1,0,0,25.46435,test_pile,1,0,1,0,1,MERCHANT - TAJIRI,,,,,,,,,,,,,,,,,,,,,,,,,,,,,,,,,,,,,,,,,,,,,,,,,,,,,,,,,,,,,,,,,,,,,,,,,,,,,,,,
,,,,,,,,,,1591409,2020-10-27_17h36.18.891,swahili,2020.2.4,MacIntel,60,,,,,,,,,,-0.271038037,-0.188696322,1,0,0,1.09665,unsorted_card,2,0,2,0,1,,,,,,,,,,,,,,,,,,,,,,,,,,,,,,,,,,,,,,,,,,,,,,,,,,,,,,,,,,,,,,,,,,,,,,,,,,,,,,,,,
,,,,,,,,,,1591409,2020-10-27_17h36.18.891,swahili,2020.2.4,MacIntel,60,,,,,,,,,,0.456872974,0.034589298,1,0,0,22.181605,test_pile,3,0,3,0,1,PARROT - KASUKU,,,,,,,,,,,,,,,,,,,,,,,,,,,,,,,,,,,,,,,,,,,,,,,,,,,,,,,,,,,,,,,,,,,,,,,,,,,,,,,,
,,,,,,,,,,1591409,2020-10-27_17h36.18.891,swahili,2020.2.4,MacIntel,60,,,,,,,,,,-0.310429751,-0.165966212,1,0,0,0.945795,unsorted_card,4,0,4,0,1,,,,,,,,,,,,,,,,,,,,,,,,,,,,,,,,,,,,,,,,,,,,,,,,,,,,,,,,,,,,,,,,,,,,,,,,,,,,,,,,,
,,,,,,,,,,1591409,2020-10-27_17h36.18.891,swahili,2020.2.4,MacIntel,60,,,,,,,,,,0.408839394,0.432454644,1,0,0,12.3823,study_pile,5,0,5,0,1,BULL - FAHILI,,,,,,,,,,,,,,,,,,,,,,,,,,,,,,,,,,,,,,,,,,,,,,,,,,,,,,,,,,,,,,,,,,,,,,,,,,,,,,,,
,,,,,,,,,,1591409,2020-10-27_17h36.18.891,swahili,2020.2.4,MacIntel,60,,,,,,,,,,-0.194685727,-0.033975533,1,0,0,0.978495,unsorted_card,6,0,6,0,1,,,,,,,,,,,,,,,,,,,,,,,,,,,,,,,,,,,,,,,,,,,,,,,,,,,,,,,,,,,,,,,,,,,,,,,,,,,,,,,,,
,,,,,,,,,,1591409,2020-10-27_17h36.18.891,swahili,2020.2.4,MacIntel,60,,,,,,,,,,0.471225436,0.111975699,1,0,0,30.983725,test_pile,7,0,7,0,1,PLATE - SAHANI,,,,,,,,,,,,,,,,,,,,,,,,,,,,,,,,,,,,,,,,,,,,,,,,,,,,,,,,,,,,,,,,,,,,,,,,,,,,,,,,
,,,,,,,,,,1591409,2020-10-27_17h36.18.891,swahili,2020.2.4,MacIntel,60,,,,,,,,,,-0.173919925,0.001383572,1,0,0,1.378315,unsorted_card,8,0,8,0,1,,,,,,,,,,,,,,,,,,,,,,,,,,,,,,,,,,,,,,,,,,,,,,,,,,,,,,,,,,,,,,,,,,,,,,,,,,,,,,,,,
,,,,,,,,,,1591409,2020-10-27_17h36.18.891,swahili,2020.2.4,MacIntel,60,,,,,,,,,,0.482557992,0.526943242,1,0,0,29.33348,study_pile,9,0,9,0,1,YEAST - HAMIRA,,,,,,,,,,,,,,,,,,,,,,,,,,,,,,,,,,,,,,,,,,,,,,,,,,,,,,,,,,,,,,,,,,,,,,,,,,,,,,,,
,,,,,,,,,,1591409,2020-10-27_17h36.18.891,swahili,2020.2.4,MacIntel,60,,,,,,,,,,-0.328238959,-0.082462966,1,0,0,0.61519,unsorted_card,10,0,10,0,1,,,,,,,,,,,,,,,,,,,,,,,,,,,,,,,,,,,,,,,,,,,,,,,,,,,,,,,,,,,,,,,,,,,,,,,,,,,,,,,,,
,,,,,,,,,,1591409,2020-10-27_17h36.18.891,swahili,2020.2.4,MacIntel,60,,,,,,,,,,0.400374797,-0.048903545,1,0,0,4.197675,test_pile,11,0,11,0,1,BLAME - LAWAMA,,,,,,,,,,,,,,,,,,,,,,,,,,,,,,,,,,,,,,,,,,,,,,,,,,,,,,,,,,,,,,,,,,,,,,,,,,,,,,,,
,,,,,,,,,,1591409,2020-10-27_17h36.18.891,swahili,2020.2.4,MacIntel,60,,,,,,,,,,-0.175971181,-0.087934837,1,0,0,1.179895,unsorted_card,12,0,12,0,1,,,,,,,,,,,,,,,,,,,,,,,,,,,,,,,,,,,,,,,,,,,,,,,,,,,,,,,,,,,,,,,,,,,,,,,,,,,,,,,,,
,,,,,,,,,,1591409,2020-10-27_17h36.18.891,swahili,2020.2.4,MacIntel,60,,,,,,,,,,0.43652502,-0.0267872,1,0,0,6.065645,test_pile,13,0,13,0,1,OATH - YAMINI,,,,,,,,,,,,,,,,,,,,,,,,,,,,,,,,,,,,,,,,,,,,,,,,,,,,,,,,,,,,,,,,,,,,,,,,,,,,,,,,
,,,,,,,,,,1591409,2020-10-27_17h36.18.891,swahili,2020.2.4,MacIntel,60,,,,,,,,,,-0.306327239,-0.031738931,1,0,0,1.346045,unsorted_card,14,0,14,0,1,,,,,,,,,,,,,,,,,,,,,,,,,,,,,,,,,,,,,,,,,,,,,,,,,,,,,,,,,,,,,,,,,,,,,,,,,,,,,,,,,
,,,,,,,,,,1591409,2020-10-27_17h36.18.891,swahili,2020.2.4,MacIntel,60,,,,,,,,,,0.511623784,-0.028025133,1,0,0,1.863285,test_pile,15,0,15,0,1,CORN - NAFAKA,,,,,,,,,,,,,,,,,,,,,,,,,,,,,,,,,,,,,,,,,,,,,,,,,,,,,,,,,,,,,,,,,,,,,,,,,,,,,,,,
,,,,,,,,,,1591409,2020-10-27_17h36.18.891,swahili,2020.2.4,MacIntel,60,,,,,,,,,,-0.408453201,-0.22979777,1,0,0,0.94752,unsorted_card,16,0,16,0,1,,,,,,,,,,,,,,,,,,,,,,,,,,,,,,,,,,,,,,,,,,,,,,,,,,,,,,,,,,,,,,,,,,,,,,,,,,,,,,,,,
,,,,,,,,,,1591409,2020-10-27_17h36.18.891,swahili,2020.2.4,MacIntel,60,,,,,,,,,,0.379843244,0.070437334,1,0,0,3.61582,test_pile,17,0,17,0,1,POEM - UTENZI,,,,,,,,,,,,,,,,,,,,,,,,,,,,,,,,,,,,,,,,,,,,,,,,,,,,,,,,,,,,,,,,,,,,,,,,,,,,,,,,
,,,,,,,,,,1591409,2020-10-27_17h36.18.891,swahili,2020.2.4,MacIntel,60,,,,,,,,,,-0.315361629,-0.008582307,1,0,0,0.780625,unsorted_card,18,0,18,0,1,,,,,,,,,,,,,,,,,,,,,,,,,,,,,,,,,,,,,,,,,,,,,,,,,,,,,,,,,,,,,,,,,,,,,,,,,,,,,,,,,
,,,,,,,,,,1591409,2020-10-27_17h36.18.891,swahili,2020.2.4,MacIntel,60,,,,,,,,,,0.458265802,0.449265563,1,0,0,2.060845,study_pile,19,0,19,0,1,TAILOR - MSHONI,,,,,,,,,,,,,,,,,,,,,,,,,,,,,,,,,,,,,,,,,,,,,,,,,,,,,,,,,,,,,,,,,,,,,,,,,,,,,,,,
,,,,,,,,,,1591409,2020-10-27_17h36.18.891,swahili,2020.2.4,MacIntel,60,,,,,,,,,,0.486825111,0.474471538,1,0,0,1.347135,study_pile,20,0,20,0,1,,,,,,,,,,,,,,,,,,,,,,,,,,,,,,,,,,,,,,,,,,,,,,,,,,,,,,,,,,,,,,,,,,,,,,,,,,,,,,,,,
,,,,,,,,,,1591409,2020-10-27_17h36.18.891,swahili,2020.2.4,MacIntel,60,,,,,,,,,,-0.200029123,-0.019765313,1,0,0,0.949145,unsorted_card,21,0,21,0,1,,,,,,,,,,,,,,,,,,,,,,,,,,,,,,,,,,,,,,,,,,,,,,,,,,,,,,,,,,,,,,,,,,,,,,,,,,,,,,,,,
,,,,,,,,,,1591409,2020-10-27_17h36.18.891,swahili,2020.2.4,MacIntel,60,,,,,,,,,,0.505267423,0.015021638,1,0,0,2.79843,test_pile,22,0,22,0,1,CHEESE - JIBINI,,,,,,,,,,,,,,,,,,,,,,,,,,,,,,,,,,,,,,,,,,,,,,,,,,,,,,,,,,,,,,,,,,,,,,,,,,,,,,,,
,,,,,,,,,,1591409,2020-10-27_17h36.18.891,swahili,2020.2.4,MacIntel,60,,,,,,,,,,-0.250468497,-0.095934587,1,0,0,0.63001,unsorted_card,23,0,23,0,1,,,,,,,,,,,,,,,,,,,,,,,,,,,,,,,,,,,,,,,,,,,,,,,,,,,,,,,,,,,,,,,,,,,,,,,,,,,,,,,,,
,,,,,,,,,,1591409,2020-10-27_17h36.18.891,swahili,2020.2.4,MacIntel,60,,,,,,,,,,0.308315184,0.012452147,1,0,0,7.328655,test_pile,24,0,24,0,1,GRAPES - ZABIBU,,,,,,,,,,,,,,,,,,,,,,,,,,,,,,,,,,,,,,,,,,,,,,,,,,,,,,,,,,,,,,,,,,,,,,,,,,,,,,,,
,,,,,,,,,,1591409,2020-10-27_17h36.18.891,swahili,2020.2.4,MacIntel,60,,,,,,,,,,-0.325383661,-0.16573735,1,0,0,0.99536,unsorted_card,25,0,25,0,1,,,,,,,,,,,,,,,,,,,,,,,,,,,,,,,,,,,,,,,,,,,,,,,,,,,,,,,,,,,,,,,,,,,,,,,,,,,,,,,,,
,,,,,,,,,,1591409,2020-10-27_17h36.18.891,swahili,2020.2.4,MacIntel,60,,,,,,,,,,0.485748835,0.502434254,1,0,0,8.38058,study_pile,26,0,26,0,1,GRAVE - KABURI,,,,,,,,,,,,,,,,,,,,,,,,,,,,,,,,,,,,,,,,,,,,,,,,,,,,,,,,,,,,,,,,,,,,,,,,,,,,,,,,
,,,,,,,,,,1591409,2020-10-27_17h36.18.891,swahili,2020.2.4,MacIntel,60,,,,,,,,,,-0.331448795,-0.062219125,1,0,0,0.62778,unsorted_card,27,0,27,0,1,,,,,,,,,,,,,,,,,,,,,,,,,,,,,,,,,,,,,,,,,,,,,,,,,,,,,,,,,,,,,,,,,,,,,,,,,,,,,,,,,
,,,,,,,,,,1591409,2020-10-27_17h36.18.891,swahili,2020.2.4,MacIntel,60,,,,,,,,,,0.438424331,0.349866844,1,0,0,3.33192,study_pile,28,0,28,0,1,MANURE - SAMADI,,,,,,,,,,,,,,,,,,,,,,,,,,,,,,,,,,,,,,,,,,,,,,,,,,,,,,,,,,,,,,,,,,,,,,,,,,,,,,,,
,,,,,,,,,,1591409,2020-10-27_17h36.18.891,swahili,2020.2.4,MacIntel,60,,,,,,,,,,-0.479075922,0.132573236,1,0,0,0.43007,unsorted_card,29,0,29,0,1,,,,,,,,,,,,,,,,,,,,,,,,,,,,,,,,,,,,,,,,,,,,,,,,,,,,,,,,,,,,,,,,,,,,,,,,,,,,,,,,,
,,,,,,,,,,1591409,2020-10-27_17h36.18.891,swahili,2020.2.4,MacIntel,60,,,,,,,,,,0.364186588,-0.01886027,1,0,0,2.36913,test_pile,30,0,30,0,1,AGENT - WAKILI,,,,,,,,,,,,,,,,,,,,,,,,,,,,,,,,,,,,,,,,,,,,,,,,,,,,,,,,,,,,,,,,,,,,,,,,,,,,,,,,
,,,,,,,,,,1591409,2020-10-27_17h36.18.891,swahili,2020.2.4,MacIntel,60,,,,,,,,,,-0.503836609,0.093000999,1,0,0,0.445355,unsorted_card,31,0,31,0,1,,,,,,,,,,,,,,,,,,,,,,,,,,,,,,,,,,,,,,,,,,,,,,,,,,,,,,,,,,,,,,,,,,,,,,,,,,,,,,,,,
,,,,,,,,,,1591409,2020-10-27_17h36.18.891,swahili,2020.2.4,MacIntel,60,,,,,,,,,,0.401716977,0.080028712,1,0,0,1.979665,test_pile,32,0,32,0,1,BRIBE - RUSHWA,,,,,,,,,,,,,,,,,,,,,,,,,,,,,,,,,,,,,,,,,,,,,,,,,,,,,,,,,,,,,,,,,,,,,,,,,,,,,,,,
,,,,,,,,,,1591409,2020-10-27_17h36.18.891,swahili,2020.2.4,MacIntel,60,,,,,,,,,,-0.175705278,0.048934754,1,0,0,0.66468,unsorted_card,33,0,33,0,1,,,,,,,,,,,,,,,,,,,,,,,,,,,,,,,,,,,,,,,,,,,,,,,,,,,,,,,,,,,,,,,,,,,,,,,,,,,,,,,,,
,,,,,,,,,,1591409,2020-10-27_17h36.18.891,swahili,2020.2.4,MacIntel,60,,,,,,,,,,0.506179092,0.067940662,1,0,0,1.763815,test_pile,34,0,34,0,1,ORPHAN - YATIMA,,,,,,,,,,,,,,,,,,,,,,,,,,,,,,,,,,,,,,,,,,,,,,,,,,,,,,,,,,,,,,,,,,,,,,,,,,,,,,,,
,,,,,,,,,,1591409,2020-10-27_17h36.18.891,swahili,2020.2.4,MacIntel,60,,,,,,,,,,-0.276482729,0.058734188,1,0,0,0.93158,unsorted_card,35,0,35,0,1,,,,,,,,,,,,,,,,,,,,,,,,,,,,,,,,,,,,,,,,,,,,,,,,,,,,,,,,,,,,,,,,,,,,,,,,,,,,,,,,,
,,,,,,,,,,1591409,2020-10-27_17h36.18.891,swahili,2020.2.4,MacIntel,60,,,,,,,,,,0.54925547,0.033455393,1,0,0,1.94609,test_pile,36,0,36,0,1,DIVORCE - TALAKA,,,,,,,,,,,,,,,,,,,,,,,,,,,,,,,,,,,,,,,,,,,,,,,,,,,,,,,,,,,,,,,,,,,,,,,,,,,,,,,,
,,,,,,,,,,1591409,2020-10-27_17h36.18.891,swahili,2020.2.4,MacIntel,60,,,,,,,,,,-0.386864364,0.000572154,1,0,0,0.56139,unsorted_card,37,0,37,0,1,,,,,,,,,,,,,,,,,,,,,,,,,,,,,,,,,,,,,,,,,,,,,,,,,,,,,,,,,,,,,,,,,,,,,,,,,,,,,,,,,
,,,,,,,,,,1591409,2020-10-27_17h36.18.891,swahili,2020.2.4,MacIntel,60,,,,,,,,,,0.506501975,-0.043275632,1,0,0,2.58271,test_pile,38,0,38,0,1,BOAT - MASHUA,,,,,,,,,,,,,,,,,,,,,,,,,,,,,,,,,,,,,,,,,,,,,,,,,,,,,,,,,,,,,,,,,,,,,,,,,,,,,,,,
,,,,,,,,,,1591409,2020-10-27_17h36.18.891,swahili,2020.2.4,MacIntel,60,,,,,,,,,,-0.383078404,0.038635985,1,0,0,0.629945,unsorted_card,39,0,39,0,1,,,,,,,,,,,,,,,,,,,,,,,,,,,,,,,,,,,,,,,,,,,,,,,,,,,,,,,,,,,,,,,,,,,,,,,,,,,,,,,,,
,,,,,,,,,,1591409,2020-10-27_17h36.18.891,swahili,2020.2.4,MacIntel,60,,,,,,,,,,0.445040265,0.002590296,1,0,0,3.397425,test_pile,40,0,40,0,1,TREASURE - DAFINA,,,,,,,,,,,,,,,,,,,,,,,,,,,,,,,,,,,,,,,,,,,,,,,,,,,,,,,,,,,,,,,,,,,,,,,,,,,,,,,,
,,,,,,,,,,1591409,2020-10-27_17h36.18.891,swahili,2020.2.4,MacIntel,60,,,,,,,,,,,,,,,,,,,,,,,0.327188006,0.127163782,1,0,0,1.928115,test_first,,,0,0,0,0,1,,,,,,,,,,,,,,,,,,,,,,,,,,,,,,,,,,,,,,,,,,,,,,,,,,,,,,,,,,,,,,,,,,
,,,,,,,,,,1591409,2020-10-27_17h36.18.891,swahili,2020.2.4,MacIntel,60,,,,,,,,,,,,,,,,,,,,,,,,,,,,,,,,,,,,,return,7.85855,37.86708,0.360508256,-0.104027963,1,0,0,1.51294,yes,TREASURE,SWARMA,incorrect,0,0,0,0,1,,,,,,,,,,,,,,,,,,,,,,,,,,,,,,,,,,,,,,,,,,,,,,,,
,,,,,,,,,,1591409,2020-10-27_17h36.18.891,swahili,2020.2.4,MacIntel,60,,,,,,,,,,,,,,,,,,,,,,,,,,,,,,,,,,,,,,,44.834725,0.352252583,-0.061626165,1,0,0,1.032785,yes,CORN,MAHINDI,incorrect,1,0,1,0,1,,,,,,,,,,,,,,,,,,,,,,,,,,,,,,,,,,,,,,,,,,,,,,,,
,,,,,,,,,,1591409,2020-10-27_17h36.18.891,swahili,2020.2.4,MacIntel,60,,,,,,,,,,,,,,,,,,,,,,,,,,,,,,,,,,,,,,,36.50098,0.517859856,-0.14739722,1,0,0,0.632975,yes,OATH,KASAMA,incorrect,2,0,2,0,1,,,,,,,,,,,,,,,,,,,,,,,,,,,,,,,,,,,,,,,,,,,,,,,,
,,,,,,,,,,1591409,2020-10-27_17h36.18.891,swahili,2020.2.4,MacIntel,60,,,,,,,,,,,,,,,,,,,,,,,,,,,,,,,,,,,,,,,19.54976,0.518277705,-0.13422728,1,0,0,0.781965,yes,GRAPES,ZABIBU,incorrect,3,0,3,0,1,,,,,,,,,,,,,,,,,,,,,,,,,,,,,,,,,,,,,,,,,,,,,,,,
,,,,,,,,,,1591409,2020-10-27_17h36.18.891,swahili,2020.2.4,MacIntel,60,,,,,,,,,,,,,,,,,,,,,,,,,,,,,,,,,,,,,,,11.61604,0.498797103,0.012524967,1,0,0,0.73335,yes,BRIBE,TASAMA,incorrect,4,0,4,0,1,,,,,,,,,,,,,,,,,,,,,,,,,,,,,,,,,,,,,,,,,,,,,,,,
,,,,,,,,,,1591409,2020-10-27_17h36.18.891,swahili,2020.2.4,MacIntel,60,,,,,,,,,,,,,,,,,,,,,,,,,,,,,,,,,,,,,,,49.418765,0.337178383,-0.098056758,1,0,0,0.800615,yes,MERCHANT,KAMAJ,incorrect,5,0,5,0,1,,,,,,,,,,,,,,,,,,,,,,,,,,,,,,,,,,,,,,,,,,,,,,,,
,,,,,,,,,,1591409,2020-10-27_17h36.18.891,swahili,2020.2.4,MacIntel,60,,,,,,,,,,,,,,,,,,,,,,,,,,,,,,,,,,,,,,,13.19814,0.390675648,-0.186189248,1,0,0,0.749995,yes,PARROT,TANKATSA,incorrect,6,0,6,0,1,,,,,,,,,,,,,,,,,,,,,,,,,,,,,,,,,,,,,,,,,,,,,,,,
,,,,,,,,,,1591409,2020-10-27_17h36.18.891,swahili,2020.2.4,MacIntel,60,,,,,,,,,,,,,,,,,,,,,,,,,,,,,,,,,,,,,,,11.718595,0.4142461,-0.080590463,1,0,0,0.684345,yes,DIVORCE,HASAMA,incorrect,7,0,7,0,1,,,,,,,,,,,,,,,,,,,,,,,,,,,,,,,,,,,,,,,,,,,,,,,,
,,,,,,,,,,1591409,2020-10-27_17h36.18.891,swahili,2020.2.4,MacIntel,60,,,,,,,,,,,,,,,,,,,,,,,,,,,,,,,,,,,,,,,22.166515,0.452339951,0.083565662,1,0,0,0.632645,yes,AGENT,IMBIKA,incorrect,8,0,8,0,1,,,,,,,,,,,,,,,,,,,,,,,,,,,,,,,,,,,,,,,,,,,,,,,,
,,,,,,,,,,1591409,2020-10-27_17h36.18.891,swahili,2020.2.4,MacIntel,60,,,,,,,,,,,,,,,,,,,,,,,,,,,,,,,,,,,,,,,14.53249,0.280711862,-0.220466461,1,0,0,0.766515,yes,CHEESE,CHEESE,correct,9,0,9,0,1,,,,,,,,,,,,,,,,,,,,,,,,,,,,,,,,,,,,,,,,,,,,,,,,
,,,,,,,,,,1591409,2020-10-27_17h36.18.891,swahili,2020.2.4,MacIntel,60,,,,,,,,,,,,,,,,,,,,,,,,,,,,,,,,,,,,,,,18.06751,0.436917545,-0.066047354,1,0,0,0.731585,yes,POEM,UTENDI,incorrect,10,0,10,0,1,,,,,,,,,,,,,,,,,,,,,,,,,,,,,,,,,,,,,,,,,,,,,,,,
,,,,,,,,,,1591409,2020-10-27_17h36.18.891,swahili,2020.2.4,MacIntel,60,,,,,,,,,,,,,,,,,,,,,,,,,,,,,,,,,,,,,,,8.529925,0.668988047,0.014428678,1,0,0,0.60032,yes,ORPHAN,YATIMA,incorrect,11,0,11,0,1,,,,,,,,,,,,,,,,,,,,,,,,,,,,,,,,,,,,,,,,,,,,,,,,
,,,,,,,,,,1591409,2020-10-27_17h36.18.891,swahili,2020.2.4,MacIntel,60,,,,,,,,,,,,,,,,,,,,,,,,,,,,,,,,,,,,,,,10.914935,0.768910808,0.175713632,1,0,0,0.73283,yes,BOAT,MASHUA,incorrect,12,0,12,0,1,,,,,,,,,,,,,,,,,,,,,,,,,,,,,,,,,,,,,,,,,,,,,,,,
,,,,,,,,,,1591409,2020-10-27_17h36.18.891,swahili,2020.2.4,MacIntel,60,,,,,,,,,,,,,,,,,,,,,,,,,,,,,,,,,,,,,,,8.0478,0.405591572,-0.066317826,1,0,0,0.69801,yes,PLATE,SAHANI,incorrect,13,0,13,0,1,,,,,,,,,,,,,,,,,,,,,,,,,,,,,,,,,,,,,,,,,,,,,,,,
,,,,,,,,,,1591409,2020-10-27_17h36.18.891,swahili,2020.2.4,MacIntel,60,,,,,,,,,,,,,,,,,,,,,,,,,,,,,,,,,,,,,,,11.13025,0.448990833,0.004015479,1,0,0,1.016565,yes,BLAME,LAWARMA,incorrect,14,0,14,0,1,,,,,,,,,,,,,,,,,,,,,,,,,,,,,,,,,,,,,,,,,,,,,,,,
,,,,,,,,,,1591409,2020-10-27_17h36.18.891,swahili,2020.2.4,MacIntel,60,,,,,,,,,,,,,,,,,,,,,,,,,,,,,,,,,,,,,,,,,,,,,,,,,,,,,,,0,0,0,0,1,,,,,,,,,,,,,,,,,,,,,,,,,,,,,,,,,,,,,,,,,,,
,,,,,,,,,,1591409,2020-10-27_17h36.18.891,swahili,2020.2.4,MacIntel,60,,,,,,,,,,,,,,,,,,,,,,TAILOR - MSHONI,,,,,,,,return,return,0,0,0,0,1,,,,,,,,,,,,,,,,,,,,,,,,5.68695,4.36729,,,,,,,,,,,,,,,,,,,,,,,,,,,,,,,,,,,,,,,,,
,,,,,,,,,,1591409,2020-10-27_17h36.18.891,swahili,2020.2.4,MacIntel,60,,,,,,,,,,,,,,,,,,,,,,GRAVE - KABURI,,,,,,,,,return,1,0,1,0,1,,,,,,,,,,,,,,,,,,,,,,,,,1.588275,,,,,,,,,,,,,,,,,,,,,,,,,,,,,,,,,,,,,,,,,
,,,,,,,,,,1591409,2020-10-27_17h36.18.891,swahili,2020.2.4,MacIntel,60,,,,,,,,,,,,,,,,,,,,,,BULL - FAHILI,,,,,,,,,return,2,0,2,0,1,,,,,,,,,,,,,,,,,,,,,,,,,1.40063,,,,,,,,,,,,,,,,,,,,,,,,,,,,,,,,,,,,,,,,,
,,,,,,,,,,1591409,2020-10-27_17h36.18.891,swahili,2020.2.4,MacIntel,60,,,,,,,,,,,,,,,,,,,,,,MANURE - SAMADI,,,,,,,,,return,3,0,3,0,1,,,,,,,,,,,,,,,,,,,,,,,,,2.154035,,,,,,,,,,,,,,,,,,,,,,,,,,,,,,,,,,,,,,,,,
,,,,,,,,,,1591409,2020-10-27_17h36.18.891,swahili,2020.2.4,MacIntel,60,,,,,,,,,,,,,,,,,,,,,,YEAST - HAMIRA,,,,,,,,,return,4,0,4,0,1,,,,,,,,,,,,,,,,,,,,,,,,,1.217265,,,,,,,,,,,,,,,,,,,,,,,,,,,,,,,,,,,,,,,,,
,,,,,,,,,,1591409,2020-10-27_17h36.18.891,swahili,2020.2.4,MacIntel,60,,,,,,,,,,,,,,,,,,,,,,,,,,,,,,,,,,,,,,,,,,,,,,,,,,,,,,,1,0,1,0,1,,,,,,,,,,,,,,,,,,,,,,,,,,,,,,,,,,,,,,,,,,,
,,,,,,,,,,1591409,2020-10-27_17h36.18.891,swahili,2020.2.4,MacIntel,60,,,,,,,,,,,,,,,,,,,,,,,,,,,,,,,,,,,,,,,,,,,,,,,,,,,,,,,,,,,,,,0,0,0,0,1,,,,,,,,,,,,,,,,,,,,,,,,,,,,,,,,,,,,
,,,,,,,,,,1591409,2020-10-27_17h36.18.891,swahili,2020.2.4,MacIntel,60,,,,,,,,,,-0.264460089,-0.043670939,1,0,0,1.7525,unsorted_card,0,0,0,0,1,,,,,,,,,,,,,,,,,,,,,,,,,,,,,,,,,,,,,,,,,,,,,,,,,,,,,,,,,,,,,,,,,,,,,,,,,,,,,,,,,
,,,,,,,,,,1591409,2020-10-27_17h36.18.891,swahili,2020.2.4,MacIntel,60,,,,,,,,,,-0.290822528,-0.057028129,1,0,0,39.414385,unsorted_card,1,0,1,0,1,MERCHANT - TAJIRI,,,,,,,,,,,,,,,,,,,,,,,,,,,,,,,,,,,,,,,,,,,,,,,,,,,,,,,,,,,,,,,,,,,,,,,,,,,,,,,,
,,,,,,,,,,1591409,2020-10-27_17h36.18.891,swahili,2020.2.4,MacIntel,60,,,,,,,,,,0.42108362,-0.711915363,1,0,0,0.580635,done_pile,2,0,2,0,1,MERCHANT - TAJIRI,,,,,,,,,,,,,,,,,,,,,,,,,,,,,,,,,,,,,,,,,,,,,,,,,,,,,,,,,,,,,,,,,,,,,,,,,,,,,,,,
,,,,,,,,,,1591409,2020-10-27_17h36.18.891,swahili,2020.2.4,MacIntel,60,,,,,,,,,,-0.259142018,-0.165987017,1,0,0,1.41213,unsorted_card,3,0,3,0,1,,,,,,,,,,,,,,,,,,,,,,,,,,,,,,,,,,,,,,,,,,,,,,,,,,,,,,,,,,,,,,,,,,,,,,,,,,,,,,,,,
,,,,,,,,,,1591409,2020-10-27_17h36.18.891,swahili,2020.2.4,MacIntel,60,,,,,,,,,,0.386243922,-0.594342959,1,0,0,8.648225,done_pile,4,0,4,0,1,PARROT - KASUKU,,,,,,,,,,,,,,,,,,,,,,,,,,,,,,,,,,,,,,,,,,,,,,,,,,,,,,,,,,,,,,,,,,,,,,,,,,,,,,,,
,,,,,,,,,,1591409,2020-10-27_17h36.18.891,swahili,2020.2.4,MacIntel,60,,,,,,,,,,-0.508350638,0.219863099,1,0,0,0.64652,unsorted_card,5,0,5,0,1,,,,,,,,,,,,,,,,,,,,,,,,,,,,,,,,,,,,,,,,,,,,,,,,,,,,,,,,,,,,,,,,,,,,,,,,,,,,,,,,,
,,,,,,,,,,1591409,2020-10-27_17h36.18.891,swahili,2020.2.4,MacIntel,60,,,,,,,,,,0.484324352,-0.028139564,1,0,0,10.33257,test_pile,6,0,6,0,1,BULL - FAHILI,,,,,,,,,,,,,,,,,,,,,,,,,,,,,,,,,,,,,,,,,,,,,,,,,,,,,,,,,,,,,,,,,,,,,,,,,,,,,,,,
,,,,,,,,,,1591409,2020-10-27_17h36.18.891,swahili,2020.2.4,MacIntel,60,,,,,,,,,,-0.493757597,-0.046510902,1,0,0,0.696425,unsorted_card,7,0,7,0,1,,,,,,,,,,,,,,,,,,,,,,,,,,,,,,,,,,,,,,,,,,,,,,,,,,,,,,,,,,,,,,,,,,,,,,,,,,,,,,,,,
,,,,,,,,,,1591409,2020-10-27_17h36.18.891,swahili,2020.2.4,MacIntel,60,,,,,,,,,,0.487141663,-0.069293026,1,0,0,6.581275,test_pile,8,0,8,0,1,PLATE - SAHANI,,,,,,,,,,,,,,,,,,,,,,,,,,,,,,,,,,,,,,,,,,,,,,,,,,,,,,,,,,,,,,,,,,,,,,,,,,,,,,,,
,,,,,,,,,,1591409,2020-10-27_17h36.18.891,swahili,2020.2.4,MacIntel,60,,,,,,,,,,-0.463121708,-0.197549101,1,0,0,0.531185,unsorted_card,9,0,9,0,1,,,,,,,,,,,,,,,,,,,,,,,,,,,,,,,,,,,,,,,,,,,,,,,,,,,,,,,,,,,,,,,,,,,,,,,,,,,,,,,,,
,,,,,,,,,,1591409,2020-10-27_17h36.18.891,swahili,2020.2.4,MacIntel,60,,,,,,,,,,0.420684765,0.056799268,1,0,0,6.78042,test_pile,10,0,10,0,1,YEAST - HAMIRA,,,,,,,,,,,,,,,,,,,,,,,,,,,,,,,,,,,,,,,,,,,,,,,,,,,,,,,,,,,,,,,,,,,,,,,,,,,,,,,,
,,,,,,,,,,1591409,2020-10-27_17h36.18.891,swahili,2020.2.4,MacIntel,60,,,,,,,,,,-0.473890802,-0.21235228,1,0,0,0.763245,unsorted_card,11,0,11,0,1,,,,,,,,,,,,,,,,,,,,,,,,,,,,,,,,,,,,,,,,,,,,,,,,,,,,,,,,,,,,,,,,,,,,,,,,,,,,,,,,,
,,,,,,,,,,1591409,2020-10-27_17h36.18.891,swahili,2020.2.4,MacIntel,60,,,,,,,,,,0.443881686,0.031426848,1,0,0,7.647585,test_pile,12,0,12,0,1,BLAME - LAWAMA,,,,,,,,,,,,,,,,,,,,,,,,,,,,,,,,,,,,,,,,,,,,,,,,,,,,,,,,,,,,,,,,,,,,,,,,,,,,,,,,
,,,,,,,,,,1591409,2020-10-27_17h36.18.891,swahili,2020.2.4,MacIntel,60,,,,,,,,,,-0.322344763,0.022761318,1,0,0,0.46454,unsorted_card,13,0,13,0,1,,,,,,,,,,,,,,,,,,,,,,,,,,,,,,,,,,,,,,,,,,,,,,,,,,,,,,,,,,,,,,,,,,,,,,,,,,,,,,,,,
,,,,,,,,,,1591409,2020-10-27_17h36.18.891,swahili,2020.2.4,MacIntel,60,,,,,,,,,,0.473903464,-0.704331724,1,0,0,8.99693,done_pile,14,0,14,0,1,OATH - YAMINI,,,,,,,,,,,,,,,,,,,,,,,,,,,,,,,,,,,,,,,,,,,,,,,,,,,,,,,,,,,,,,,,,,,,,,,,,,,,,,,,
,,,,,,,,,,1591409,2020-10-27_17h36.18.891,swahili,2020.2.4,MacIntel,60,,,,,,,,,,-0.447547356,0.001133905,1,0,0,0.62987,unsorted_card,15,0,15,0,1,,,,,,,,,,,,,,,,,,,,,,,,,,,,,,,,,,,,,,,,,,,,,,,,,,,,,,,,,,,,,,,,,,,,,,,,,,,,,,,,,
,,,,,,,,,,1591409,2020-10-27_17h36.18.891,swahili,2020.2.4,MacIntel,60,,,,,,,,,,0.53753672,-0.500166445,1,0,0,7.816175,done_pile,16,0,16,0,1,CORN - NAFAKA,,,,,,,,,,,,,,,,,,,,,,,,,,,,,,,,,,,,,,,,,,,,,,,,,,,,,,,,,,,,,,,,,,,,,,,,,,,,,,,,
,,,,,,,,,,1591409,2020-10-27_17h36.18.891,swahili,2020.2.4,MacIntel,60,,,,,,,,,,-0.230601702,-0.15677014,1,0,0,0.53404,unsorted_card,17,0,17,0,1,,,,,,,,,,,,,,,,,,,,,,,,,,,,,,,,,,,,,,,,,,,,,,,,,,,,,,,,,,,,,,,,,,,,,,,,,,,,,,,,,
,,,,,,,,,,1591409,2020-10-27_17h36.18.891,swahili,2020.2.4,MacIntel,60,,,,,,,,,,0.44665468,-0.510486019,1,0,0,10.34523,done_pile,18,0,18,0,1,POEM - UTENZI,,,,,,,,,,,,,,,,,,,,,,,,,,,,,,,,,,,,,,,,,,,,,,,,,,,,,,,,,,,,,,,,,,,,,,,,,,,,,,,,
,,,,,,,,,,1591409,2020-10-27_17h36.18.891,swahili,2020.2.4,MacIntel,60,,,,,,,,,,-0.504222802,-0.073173269,1,0,0,0.496575,unsorted_card,19,0,19,0,1,,,,,,,,,,,,,,,,,,,,,,,,,,,,,,,,,,,,,,,,,,,,,,,,,,,,,,,,,,,,,,,,,,,,,,,,,,,,,,,,,
,,,,,,,,,,1591409,2020-10-27_17h36.18.891,swahili,2020.2.4,MacIntel,60,,,,,,,,,,0.433827998,-0.064642976,1,0,0,8.81293,test_pile,20,0,20,0,1,TAILOR - MSHONI,,,,,,,,,,,,,,,,,,,,,,,,,,,,,,,,,,,,,,,,,,,,,,,,,,,,,,,,,,,,,,,,,,,,,,,,,,,,,,,,
,,,,,,,,,,1591409,2020-10-27_17h36.18.891,swahili,2020.2.4,MacIntel,60,,,,,,,,,,-0.295083316,-0.027140895,1,0,0,0.44453,unsorted_card,21,0,21,0,1,,,,,,,,,,,,,,,,,,,,,,,,,,,,,,,,,,,,,,,,,,,,,,,,,,,,,,,,,,,,,,,,,,,,,,,,,,,,,,,,,
,,,,,,,,,,1591409,2020-10-27_17h36.18.891,swahili,2020.2.4,MacIntel,60,,,,,,,,,,0.388909289,-0.467688915,1,0,0,10.76574,done_pile,22,0,22,0,1,CHEESE - JIBINI,,,,,,,,,,,,,,,,,,,,,,,,,,,,,,,,,,,,,,,,,,,,,,,,,,,,,,,,,,,,,,,,,,,,,,,,,,,,,,,,
,,,,,,,,,,1591409,2020-10-27_17h36.18.891,swahili,2020.2.4,MacIntel,60,,,,,,,,,,-0.309233185,-0.167942743,1,0,0,0.5623,unsorted_card,23,0,23,0,1,,,,,,,,,,,,,,,,,,,,,,,,,,,,,,,,,,,,,,,,,,,,,,,,,,,,,,,,,,,,,,,,,,,,,,,,,,,,,,,,,
,,,,,,,,,,1591409,2020-10-27_17h36.18.891,swahili,2020.2.4,MacIntel,60,,,,,,,,,,0.518765194,-0.472307756,1,0,0,7.86621,done_pile,24,0,24,0,1,GRAPES - ZABIBU,,,,,,,,,,,,,,,,,,,,,,,,,,,,,,,,,,,,,,,,,,,,,,,,,,,,,,,,,,,,,,,,,,,,,,,,,,,,,,,,
,,,,,,,,,,1591409,2020-10-27_17h36.18.891,swahili,2020.2.4,MacIntel,60,,,,,,,,,,-0.293665164,0.079581391,1,0,0,0.830055,unsorted_card,25,0,25,0,1,,,,,,,,,,,,,,,,,,,,,,,,,,,,,,,,,,,,,,,,,,,,,,,,,,,,,,,,,,,,,,,,,,,,,,,,,,,,,,,,,
,,,,,,,,,,1591409,2020-10-27_17h36.18.891,swahili,2020.2.4,MacIntel,60,,,,,,,,,,0.39092889,-0.649165696,1,0,0,8.39899,done_pile,26,0,26,0,1,GRAVE - KABURI,,,,,,,,,,,,,,,,,,,,,,,,,,,,,,,,,,,,,,,,,,,,,,,,,,,,,,,,,,,,,,,,,,,,,,,,,,,,,,,,
,,,,,,,,,,1591409,2020-10-27_17h36.18.891,swahili,2020.2.4,MacIntel,60,,,,,,,,,,-0.414176459,0.227425932,1,0,0,0.533175,unsorted_card,27,0,27,0,1,,,,,,,,,,,,,,,,,,,,,,,,,,,,,,,,,,,,,,,,,,,,,,,,,,,,,,,,,,,,,,,,,,,,,,,,,,,,,,,,,
,,,,,,,,,,1591409,2020-10-27_17h36.18.891,swahili,2020.2.4,MacIntel,60,,,,,,,,,,0.465869378,-0.034651714,1,0,0,10.9122,test_pile,28,0,28,0,1,MANURE - SAMADI,,,,,,,,,,,,,,,,,,,,,,,,,,,,,,,,,,,,,,,,,,,,,,,,,,,,,,,,,,,,,,,,,,,,,,,,,,,,,,,,
,,,,,,,,,,1591409,2020-10-27_17h36.18.891,swahili,2020.2.4,MacIntel,60,,,,,,,,,,-0.11999215,0.026402297,1,0,0,0.412745,unsorted_card,29,0,29,0,1,,,,,,,,,,,,,,,,,,,,,,,,,,,,,,,,,,,,,,,,,,,,,,,,,,,,,,,,,,,,,,,,,,,,,,,,,,,,,,,,,
,,,,,,,,,,1591409,2020-10-27_17h36.18.891,swahili,2020.2.4,MacIntel,60,,,,,,,,,,0.526622012,-0.514449484,1,0,0,12.616835,done_pile,30,0,30,0,1,AGENT - WAKILI,,,,,,,,,,,,,,,,,,,,,,,,,,,,,,,,,,,,,,,,,,,,,,,,,,,,,,,,,,,,,,,,,,,,,,,,,,,,,,,,
,,,,,,,,,,1591409,2020-10-27_17h36.18.891,swahili,2020.2.4,MacIntel,60,,,,,,,,,,-0.204365883,0.064642976,1,0,0,0.579585,unsorted_card,31,0,31,0,1,,,,,,,,,,,,,,,,,,,,,,,,,,,,,,,,,,,,,,,,,,,,,,,,,,,,,,,,,,,,,,,,,,,,,,,,,,,,,,,,,
,,,,,,,,,,1591409,2020-10-27_17h36.18.891,swahili,2020.2.4,MacIntel,60,,,,,,,,,,0.500899007,-0.498439581,1,0,0,10.14847,done_pile,32,0,32,0,1,BRIBE - RUSHWA,,,,,,,,,,,,,,,,,,,,,,,,,,,,,,,,,,,,,,,,,,,,,,,,,,,,,,,,,,,,,,,,,,,,,,,,,,,,,,,,
,,,,,,,,,,1591409,2020-10-27_17h36.18.891,swahili,2020.2.4,MacIntel,60,,,,,,,,,,-0.305827087,0.127839963,1,0,0,0.514075,unsorted_card,33,0,33,0,1,,,,,,,,,,,,,,,,,,,,,,,,,,,,,,,,,,,,,,,,,,,,,,,,,,,,,,,,,,,,,,,,,,,,,,,,,,,,,,,,,
,,,,,,,,,,1591409,2020-10-27_17h36.18.891,swahili,2020.2.4,MacIntel,60,,,,,,,,,,0.464273957,-0.449806508,1,0,0,17.36443,done_pile,34,0,34,0,1,ORPHAN - YATIMA,,,,,,,,,,,,,,,,,,,,,,,,,,,,,,,,,,,,,,,,,,,,,,,,,,,,,,,,,,,,,,,,,,,,,,,,,,,,,,,,
,,,,,,,,,,1591409,2020-10-27_17h36.18.891,swahili,2020.2.4,MacIntel,60,,,,,,,,,,-0.259110363,0.079685419,1,0,0,0.56404,unsorted_card,35,0,35,0,1,,,,,,,,,,,,,,,,,,,,,,,,,,,,,,,,,,,,,,,,,,,,,,,,,,,,,,,,,,,,,,,,,,,,,,,,,,,,,,,,,
,,,,,,,,,,1591409,2020-10-27_17h36.18.891,swahili,2020.2.4,MacIntel,60,,,,,,,,,,0.397506838,-0.471309088,1,0,0,9.230495,done_pile,36,0,36,0,1,DIVORCE - TALAKA,,,,,,,,,,,,,,,,,,,,,,,,,,,,,,,,,,,,,,,,,,,,,,,,,,,,,,,,,,,,,,,,,,,,,,,,,,,,,,,,
,,,,,,,,,,1591409,2020-10-27_17h36.18.891,swahili,2020.2.4,MacIntel,60,,,,,,,,,,-0.450611578,0.022085136,1,0,0,0.39542,unsorted_card,37,0,37,0,1,,,,,,,,,,,,,,,,,,,,,,,,,,,,,,,,,,,,,,,,,,,,,,,,,,,,,,,,,,,,,,,,,,,,,,,,,,,,,,,,,
,,,,,,,,,,1591409,2020-10-27_17h36.18.891,swahili,2020.2.4,MacIntel,60,,,,,,,,,,0.394657871,-0.475969541,1,0,0,6.79712,done_pile,38,0,38,0,1,BOAT - MASHUA,,,,,,,,,,,,,,,,,,,,,,,,,,,,,,,,,,,,,,,,,,,,,,,,,,,,,,,,,,,,,,,,,,,,,,,,,,,,,,,,
,,,,,,,,,,1591409,2020-10-27_17h36.18.891,swahili,2020.2.4,MacIntel,60,,,,,,,,,,-0.406205683,0.087133822,1,0,0,0.6323,unsorted_card,39,0,39,0,1,,,,,,,,,,,,,,,,,,,,,,,,,,,,,,,,,,,,,,,,,,,,,,,,,,,,,,,,,,,,,,,,,,,,,,,,,,,,,,,,,
,,,,,,,,,,1591409,2020-10-27_17h36.18.891,swahili,2020.2.4,MacIntel,60,,,,,,,,,,0.480538391,-0.542693076,1,0,0,7.682455,done_pile,40,0,40,0,1,TREASURE - DAFINA,,,,,,,,,,,,,,,,,,,,,,,,,,,,,,,,,,,,,,,,,,,,,,,,,,,,,,,,,,,,,,,,,,,,,,,,,,,,,,,,
,,,,,,,,,,1591409,2020-10-27_17h36.18.891,swahili,2020.2.4,MacIntel,60,,,,,,,,,,,,,,,,,,,,,,,,,,,,,,,,0,0,0,0,1,,,,,,,,,,,,,,,,,,,,,,,,,,,,,,,,,,,,,,,,,,,,,,,,,,,,,,,,,,,,,,,,,,
,,,,,,,,,,1591409,2020-10-27_17h36.18.891,swahili,2020.2.4,MacIntel,60,,,,,,,,,,,,,,,,,,,,,,,,,,,,,,,,,,,,,return,7.78205,5.396945,0.450389992,0.077563249,1,0,0,0.93268,yes,PLATE,SAHANI,incorrect,0,0,0,0,1,,,,,,,,,,,,,,,,,,,,,,,,,,,,,,,,,,,,,,,,,,,,,,,,
,,,,,,,,,,1591409,2020-10-27_17h36.18.891,swahili,2020.2.4,MacIntel,60,,,,,,,,,,,,,,,,,,,,,,,,,,,,,,,,,,,,,,,4.41388,0.562740579,-0.147438832,1,0,0,0.69996,yes,BLAME,LAWAMA,incorrect,1,0,1,0,1,,,,,,,,,,,,,,,,,,,,,,,,,,,,,,,,,,,,,,,,,,,,,,,,
,,,,,,,,,,1591409,2020-10-27_17h36.18.891,swahili,2020.2.4,MacIntel,60,,,,,,,,,,,,,,,,,,,,,,,,,,,,,,,,,,,,,,,11.465015,0.562740579,-0.126165113,1,0,0,0.50014,yes,TAILOR,MSHONI,incorrect,2,0,2,0,1,,,,,,,,,,,,,,,,,,,,,,,,,,,,,,,,,,,,,,,,,,,,,,,,
,,,,,,,,,,1591409,2020-10-27_17h36.18.891,swahili,2020.2.4,MacIntel,60,,,,,,,,,,,,,,,,,,,,,,,,,,,,,,,,,,,,,,,6.931335,0.564082759,-0.128360103,1,0,0,0.687345,yes,MANURE,SAMADI,incorrect,3,0,3,0,1,,,,,,,,,,,,,,,,,,,,,,,,,,,,,,,,,,,,,,,,,,,,,,,,
,,,,,,,,,,1591409,2020-10-27_17h36.18.891,swahili,2020.2.4,MacIntel,60,,,,,,,,,,,,,,,,,,,,,,,,,,,,,,,,,,,,,,,6.582085,0.564082759,-0.128360103,1,0,0,0.56649,yes,BULL,FAHILI,incorrect,4,0,4,0,1,,,,,,,,,,,,,,,,,,,,,,,,,,,,,,,,,,,,,,,,,,,,,,,,
,,,,,,,,,,1591409,2020-10-27_17h36.18.891,swahili,2020.2.4,MacIntel,60,,,,,,,,,,,,,,,,,,,,,,,,,,,,,,,,,,,,,,,7.08045,0.564082759,-0.128360103,1,0,0,0.683595,yes,YEAST,HAMIRA,incorrect,5,0,5,0,1,,,,,,,,,,,,,,,,,,,,,,,,,,,,,,,,,,,,,,,,,,,,,,,,
,,,,,,,,,,1591409,2020-10-27_17h36.18.891,swahili,2020.2.4,MacIntel,60,,,,,,,,,,,,,,,,,,,,,,,,,,,,,,,,,,,,,,,,,,,,,,,,,,,,,,,0,0,0,0,1,,,,,,,,,,,,,,,,,,,,,,,,,,,,,,,,,,,,,,,,,,,
,,,,,,,,,,1591409,2020-10-27_17h36.18.891,swahili,2020.2.4,MacIntel,60,,,,,,,,,,,,,,,,,,,,,,,,,,,,,,,,,,,,,,,,,,,,,,,,,,,,,,,1,0,1,0,1,,,,,,,,,,,,,,,,,,,,,,,,,,,,,,,,,,,,,,,,,,,
,,,,,,,,,,1591409,2020-10-27_17h36.18.891,swahili,2020.2.4,MacIntel,60,,,,,,,,,,,,,,,,,,,,,,,,,,,,,,,,,,,,,,,,,,,,,,,,,,,,,,,,,,,,,,1,0,1,0,1,,,,,,,,,,,,,,,,,,,,,,,,,,,,,,,,,,,,
,,,,,,,,,,1591409,2020-10-27_17h36.18.891,swahili,2020.2.4,MacIntel,60,,,,,,,,,,-0.217331848,-0.002652713,1,0,0,2.12058,unsorted_card,0,0,0,0,1,,,,,,,,,,,,,,,,,,,,,,,,,,,,,,,,,,,,,,,,,,,,,,,,,,,,,,,,,,,,,,,,,,,,,,,,,,,,,,,,,
,,,,,,,,,,1591409,2020-10-27_17h36.18.891,swahili,2020.2.4,MacIntel,60,,,,,,,,,,0.432669419,-0.632542027,1,0,0,1.06355,done_pile,1,0,1,0,1,BULL - FAHILI,,,,,,,,,,,,,,,,,,,,,,,,,,,,,,,,,,,,,,,,,,,,,,,,,,,,,,,,,,,,,,,,,,,,,,,,,,,,,,,,
,,,,,,,,,,1591409,2020-10-27_17h36.18.891,swahili,2020.2.4,MacIntel,60,,,,,,,,,,-0.219680662,-0.083690496,1,0,0,1.063635,unsorted_card,2,0,2,0,1,,,,,,,,,,,,,,,,,,,,,,,,,,,,,,,,,,,,,,,,,,,,,,,,,,,,,,,,,,,,,,,,,,,,,,,,,,,,,,,,,
,,,,,,,,,,1591409,2020-10-27_17h36.18.891,swahili,2020.2.4,MacIntel,60,,,,,,,,,,0.384072376,-0.502850366,1,0,0,0.76676,done_pile,3,0,3,0,1,PLATE - SAHANI,,,,,,,,,,,,,,,,,,,,,,,,,,,,,,,,,,,,,,,,,,,,,,,,,,,,,,,,,,,,,,,,,,,,,,,,,,,,,,,,
,,,,,,,,,,1591409,2020-10-27_17h36.18.891,swahili,2020.2.4,MacIntel,60,,,,,,,,,,-0.132135079,-0.18943492,1,0,0,0.51242,unsorted_card,4,0,4,0,1,,,,,,,,,,,,,,,,,,,,,,,,,,,,,,,,,,,,,,,,,,,,,,,,,,,,,,,,,,,,,,,,,,,,,,,,,,,,,,,,,
,,,,,,,,,,1591409,2020-10-27_17h36.18.891,swahili,2020.2.4,MacIntel,60,,,,,,,,,,0.37627887,-0.599918858,1,0,0,0.64659,done_pile,5,0,5,0,1,YEAST - HAMIRA,,,,,,,,,,,,,,,,,,,,,,,,,,,,,,,,,,,,,,,,,,,,,,,,,,,,,,,,,,,,,,,,,,,,,,,,,,,,,,,,
,,,,,,,,,,1591409,2020-10-27_17h36.18.891,swahili,2020.2.4,MacIntel,60,,,,,,,,,,-0.221060829,-0.023739181,1,0,0,0.59873,unsorted_card,6,0,6,0,1,,,,,,,,,,,,,,,,,,,,,,,,,,,,,,,,,,,,,,,,,,,,,,,,,,,,,,,,,,,,,,,,,,,,,,,,,,,,,,,,,
,,,,,,,,,,1591409,2020-10-27_17h36.18.891,swahili,2020.2.4,MacIntel,60,,,,,,,,,,0.450484957,-0.577729694,1,0,0,0.596605,done_pile,7,0,7,0,1,BLAME - LAWAMA,,,,,,,,,,,,,,,,,,,,,,,,,,,,,,,,,,,,,,,,,,,,,,,,,,,,,,,,,,,,,,,,,,,,,,,,,,,,,,,,
,,,,,,,,,,1591409,2020-10-27_17h36.18.891,swahili,2020.2.4,MacIntel,60,,,,,,,,,,-0.150602715,-0.034058755,1,0,0,0.56308,unsorted_card,8,0,8,0,1,,,,,,,,,,,,,,,,,,,,,,,,,,,,,,,,,,,,,,,,,,,,,,,,,,,,,,,,,,,,,,,,,,,,,,,,,,,,,,,,,
,,,,,,,,,,1591409,2020-10-27_17h36.18.891,swahili,2020.2.4,MacIntel,60,,,,,,,,,,0.420893689,-0.539884321,1,0,0,0.5323,done_pile,9,0,9,0,1,TAILOR - MSHONI,,,,,,,,,,,,,,,,,,,,,,,,,,,,,,,,,,,,,,,,,,,,,,,,,,,,,,,,,,,,,,,,,,,,,,,,,,,,,,,,
,,,,,,,,,,1591409,2020-10-27_17h36.18.891,swahili,2020.2.4,MacIntel,60,,,,,,,,,,-0.170558144,0.001924517,1,0,0,0.729435,unsorted_card,10,0,10,0,1,,,,,,,,,,,,,,,,,,,,,,,,,,,,,,,,,,,,,,,,,,,,,,,,,,,,,,,,,,,,,,,,,,,,,,,,,,,,,,,,,
,,,,,,,,,,1591409,2020-10-27_17h36.18.891,swahili,2020.2.4,MacIntel,60,,,,,,,,,,0.549901236,-0.615751914,1,0,0,0.681605,done_pile,11,0,11,0,1,MANURE - SAMADI,,,,,,,,,,,,,,,,,,,,,,,,,,,,,,,,,,,,,,,,,,,,,,,,,,,,,,,,,,,,,,,,,,,,,,,,,,,,,,,,
,,,,,,,,,,1591409,2020-10-27_17h36.18.891,swahili,2020.2.4,MacIntel,60,,,,,,,,,,,,,,,,,,,,,,,,,,,,,,,,,,,,,,,,,,,,,,,,,,,,,,,0,0,0,0,1,,,,,,,,,,,,,,,,,,,,,,,,,,,,,,,,,,,,,,,,,,,
,,,,,,,,,,1591409,2020-10-27_17h36.18.891,swahili,2020.2.4,MacIntel,60,,,,,,,,,,,,,,,,,,,,,,,,,,,,,,,,,,,,,,,,,,,,,,,,,,,,,,,1,0,1,0,1,,,,,,,,,,,,,,,,,,,,,,,,,,,,,,,,,,,,,,,,,,,
,,,,,,,,,,1591409,2020-10-27_17h36.18.891,swahili,2020.2.4,MacIntel,60,,,,,,,,RUSHWA,BRIBE,,,,,,,,,,,,,,,,,,,,,,,,,,,,,,7.932285,,,,,,,,,RUSHWA,correct,,,,,,,,,,,,,,,,,,return,11.246195,return,2.38835,return,9.91893,0,0,0,15,1,,,,,,,,,,,,,,,,,,,,,,,,,
,,,,,,,,,,1591409,2020-10-27_17h36.18.891,swahili,2020.2.4,MacIntel,60,,,,,,,,DAFINA,TREASURE,,,,,,,,,,,,,,,,,,,,,,,,,,,,,,19.59746,,,,,,,,,DAFINI,incorrect,,,,,,,,,,,,,,,,,,,,,,,,0,1,1,19,1,,,,,,,,,,,,,,,,,,,,,,,,,
,,,,,,,,,,1591409,2020-10-27_17h36.18.891,swahili,2020.2.4,MacIntel,60,,,,,,,,ZABIBU,GRAPES,,,,,,,,,,,,,,,,,,,,,,,,,,,,,,12.033605,,,,,,,,,ZABIBU,correct,,,,,,,,,,,,,,,,,,,,,,,,0,2,2,11,1,,,,,,,,,,,,,,,,,,,,,,,,,
,,,,,,,,,,1591409,2020-10-27_17h36.18.891,swahili,2020.2.4,MacIntel,60,,,,,,,,NAFAKA,CORN,,,,,,,,,,,,,,,,,,,,,,,,,,,,,,16.63292,,,,,,,,,NAFAKA,correct,,,,,,,,,,,,,,,,,,,,,,,,0,3,3,7,1,,,,,,,,,,,,,,,,,,,,,,,,,
,,,,,,,,,,1591409,2020-10-27_17h36.18.891,swahili,2020.2.4,MacIntel,60,,,,,,,,SAHANI,PLATE,,,,,,,,,,,,,,,,,,,,,,,,,,,,,,8.36323,,,,,,,,,SAHANA,incorrect,,,,,,,,,,,,,,,,,,,,,,,,0,4,4,3,1,,,,,,,,,,,,,,,,,,,,,,,,,
,,,,,,,,,,1591409,2020-10-27_17h36.18.891,swahili,2020.2.4,MacIntel,60,,,,,,,,YATIMA,ORPHAN,,,,,,,,,,,,,,,,,,,,,,,,,,,,,,20.299055,,,,,,,,,MALASA,incorrect,,,,,,,,,,,,,,,,,,,,,,,,0,5,5,16,1,,,,,,,,,,,,,,,,,,,,,,,,,
,,,,,,,,,,1591409,2020-10-27_17h36.18.891,swahili,2020.2.4,MacIntel,60,,,,,,,,KASUKU,PARROT,,,,,,,,,,,,,,,,,,,,,,,,,,,,,,15.9486,,,,,,,,,KASUKU,correct,,,,,,,,,,,,,,,,,,,,,,,,0,6,6,1,1,,,,,,,,,,,,,,,,,,,,,,,,,
,,,,,,,,,,1591409,2020-10-27_17h36.18.891,swahili,2020.2.4,MacIntel,60,,,,,,,,MSHONI,TAILOR,,,,,,,,,,,,,,,,,,,,,,,,,,,,,,9.15125,,,,,,,,,MISHONI,incorrect,,,,,,,,,,,,,,,,,,,,,,,,0,7,7,9,1,,,,,,,,,,,,,,,,,,,,,,,,,
,,,,,,,,,,1591409,2020-10-27_17h36.18.891,swahili,2020.2.4,MacIntel,60,,,,,,,,WAKILI,AGENT,,,,,,,,,,,,,,,,,,,,,,,,,,,,,,9.68043,,,,,,,,,WAKILI,correct,,,,,,,,,,,,,,,,,,,,,,,,0,8,8,14,1,,,,,,,,,,,,,,,,,,,,,,,,,
,,,,,,,,,,1591409,2020-10-27_17h36.18.891,swahili,2020.2.4,MacIntel,60,,,,,,,,JIBINI,CHEESE,,,,,,,,,,,,,,,,,,,,,,,,,,,,,,10.8821,,,,,,,,,JIBINI,correct,,,,,,,,,,,,,,,,,,,,,,,,0,9,9,10,1,,,,,,,,,,,,,,,,,,,,,,,,,
,,,,,,,,,,1591409,2020-10-27_17h36.18.891,swahili,2020.2.4,MacIntel,60,,,,,,,,TAJIRI,MERCHANT,,,,,,,,,,,,,,,,,,,,,,,,,,,,,,6.28083,,,,,,,,,TAJIRI,correct,,,,,,,,,,,,,,,,,,,,,,,,0,10,10,0,1,,,,,,,,,,,,,,,,,,,,,,,,,
,,,,,,,,,,1591409,2020-10-27_17h36.18.891,swahili,2020.2.4,MacIntel,60,,,,,,,,SAMADI,MANURE,,,,,,,,,,,,,,,,,,,,,,,,,,,,,,9.363505,,,,,,,,,SUMAD,incorrect,,,,,,,,,,,,,,,,,,,,,,,,0,11,11,13,1,,,,,,,,,,,,,,,,,,,,,,,,,
,,,,,,,,,,1591409,2020-10-27_17h36.18.891,swahili,2020.2.4,MacIntel,60,,,,,,,,KABURI,GRAVE,,,,,,,,,,,,,,,,,,,,,,,,,,,,,,13.615555,,,,,,,,,KABURI,correct,,,,,,,,,,,,,,,,,,,,,,,,0,12,12,12,1,,,,,,,,,,,,,,,,,,,,,,,,,
,,,,,,,,,,1591409,2020-10-27_17h36.18.891,swahili,2020.2.4,MacIntel,60,,,,,,,,TALAKA,DIVORCE,,,,,,,,,,,,,,,,,,,,,,,,,,,,,,7.98019,,,,,,,,,TANAKA,incorrect,,,,,,,,,,,,,,,,,,,,,,,,0,13,13,17,1,,,,,,,,,,,,,,,,,,,,,,,,,
,,,,,,,,,,1591409,2020-10-27_17h36.18.891,swahili,2020.2.4,MacIntel,60,,,,,,,,MASHUA,BOAT,,,,,,,,,,,,,,,,,,,,,,,,,,,,,,18.46533,,,,,,,,,MASHUA,correct,,,,,,,,,,,,,,,,,,,,,,,,0,14,14,18,1,,,,,,,,,,,,,,,,,,,,,,,,,
,,,,,,,,,,1591409,2020-10-27_17h36.18.891,swahili,2020.2.4,MacIntel,60,,,,,,,,FAHILI,BULL,,,,,,,,,,,,,,,,,,,,,,,,,,,,,,8.330975,,,,,,,,,FAHILI,correct,,,,,,,,,,,,,,,,,,,,,,,,0,15,15,2,1,,,,,,,,,,,,,,,,,,,,,,,,,
,,,,,,,,,,1591409,2020-10-27_17h36.18.891,swahili,2020.2.4,MacIntel,60,,,,,,,,LAWAMA,BLAME,,,,,,,,,,,,,,,,,,,,,,,,,,,,,,14.629665,,,,,,,,,LAWAMA,correct,,,,,,,,,,,,,,,,,,,,,,,,0,16,16,5,1,,,,,,,,,,,,,,,,,,,,,,,,,
,,,,,,,,,,1591409,2020-10-27_17h36.18.891,swahili,2020.2.4,MacIntel,60,,,,,,,,UTENZI,POEM,,,,,,,,,,,,,,,,,,,,,,,,,,,,,,15.133565,,,,,,,,,UMANI,incorrect,,,,,,,,,,,,,,,,,,,,,,,,0,17,17,8,1,,,,,,,,,,,,,,,,,,,,,,,,,
,,,,,,,,,,1591409,2020-10-27_17h36.18.891,swahili,2020.2.4,MacIntel,60,,,,,,,,YAMINI,OATH,,,,,,,,,,,,,,,,,,,,,,,,,,,,,,7.74781,,,,,,,,,YAMINI,correct,,,,,,,,,,,,,,,,,,,,,,,,0,18,18,6,1,,,,,,,,,,,,,,,,,,,,,,,,,
,,,,,,,,,,1591409,2020-10-27_17h36.18.891,swahili,2020.2.4,MacIntel,60,,,,,,,,HAMIRA,YEAST,,,,,,,,,,,,,,,,,,,,,,,,,,,,,,8.68232,,,,,,,,,HAMARA,incorrect,,,,,,,,,,,,,,,,,,,,,,,,0,19,19,4,1,,,,,,,,,,,,,,,,,,,,,,,,,
,,,,,,,,,,1591409,2020-10-27_17h36.18.891,swahili,2020.2.4,MacIntel,60,,,,,,,,,,,,,,,,,,,,,,,,,,,,,,,,,,,,,,,,,,,,,,,,,,,,,,,,,,,,,,,,,,,,,,,,,,,,,,0,0,0,0,1,I bought all my goods from the ____ at the market. ,TAJIRI,,,,,,,,,,,,,,,,,,
,,,,,,,,,,1591409,2020-10-27_17h36.18.891,swahili,2020.2.4,MacIntel,60,,,,,,,,,,,,,,,,,,,,,,,,,,,,,,,,,,,,,,,,,,,,,,,,,,,,,,,,,,,,,,,,,,,,,,,,,,,,,,0,1,1,1,1,The ____ is a bird that can learn to repeat words.,KASUKU,,,,,,,,,,,,,,,,,,
,,,,,,,,,,1591409,2020-10-27_17h36.18.891,swahili,2020.2.4,MacIntel,60,,,,,,,,,,,,,,,,,,,,,,,,,,,,,,,,,,,,,,,,,,,,,,,,,,,,,,,,,,,,,,,,,,,,,,,,,,,,,,0,2,2,2,1,The ____ charged the matador's red cape. ,FAHILI,,,,,,,,,,,,,,,,,,
,,,,,,,,,,1591409,2020-10-27_17h36.18.891,swahili,2020.2.4,MacIntel,60,,,,,,,,,,,,,,,,,,,,,,,,,,,,,,,,,,,,,,,,,,,,,,,,,,,,,,,,,,,,,,,,,,,,,,,,,,,,,,0,3,3,3,1,I filled my ____ with food at the buffet. ,SAHANI,,,,,,,,,,,,,,,,,,
,,,,,,,,,,1591409,2020-10-27_17h36.18.891,swahili,2020.2.4,MacIntel,60,,,,,,,,,,,,,,,,,,,,,,,,,,,,,,,,,,,,,,,,,,,,,,,,,,,,,,,,,,,,,,,,,,,,,,,,,,,,,,0,4,4,4,1,_____ makes bread rise. ,HAMIRA,,,,,,,,,,,,,,,,,,
,,,,,,,,,,1591409,2020-10-27_17h36.18.891,swahili,2020.2.4,MacIntel,60,,,,,,,,,,,,,,,,,,,,,,,,,,,,,,,,,,,,,,,,,,,,,,,,,,,,,,,,,,,,,,,,,,,,,,,,,,,,,,0,5,5,5,1,Shannon had no one else to  ____ for what happened.,LAWAMA,,,,,,,,,,,,,,,,,,
,,,,,,,,,,1591409,2020-10-27_17h36.18.891,swahili,2020.2.4,MacIntel,60,,,,,,,,,,,,,,,,,,,,,,,,,,,,,,,,,,,,,,,,,,,,,,,,,,,,,,,,,,,,,,,,,,,,,,,,,,,,,,0,6,6,6,1,The president takes the  ____ of office to uphold the Constitution.,YAMINI,,,,,,,,,,,,,,,,,,
,,,,,,,,,,1591409,2020-10-27_17h36.18.891,swahili,2020.2.4,MacIntel,60,,,,,,,,,,,,,,,,,,,,,,,,,,,,,,,,,,,,,,,,,,,,,,,,,,,,,,,,,,,,,,,,,,,,,,,,,,,,,,0,7,7,7,1,Kate doesn't like ____ on the cob because it gets stuck between her teeth. ,NAFAKA,,,,,,,,,,,,,,,,,,
,,,,,,,,,,1591409,2020-10-27_17h36.18.891,swahili,2020.2.4,MacIntel,60,,,,,,,,,,,,,,,,,,,,,,,,,,,,,,,,,,,,,,,,,,,,,,,,,,,,,,,,,,,,,,,,,,,,,,,,,,,,,,0,8,8,8,1,David wrote Cynthia a romantic ____  but she thought it rhymed too much.,UTENZI,,,,,,,,,,,,,,,,,,
,,,,,,,,,,1591409,2020-10-27_17h36.18.891,swahili,2020.2.4,MacIntel,60,,,,,,,,,,,,,,,,,,,,,,,,,,,,,,,,,,,,,,,,,,,,,,,,,,,,,,,,,,,,,,,,,,,,,,,,,,,,,,0,9,9,9,1,Charles went to the ____ to get his suit adjusted. ,MSHONI,,,,,,,,,,,,,,,,,,
,,,,,,,,,,1591409,2020-10-27_17h36.18.891,swahili,2020.2.4,MacIntel,60,,,,,,,,,,,,,,,,,,,,,,,,,,,,,,,,,,,,,,,,,,,,,,,,,,,,,,,,,,,,,,,,,,,,,,,,,,,,,,0,10,10,10,1,Amy cooked a grilled ____ sandwich to go with her tomato soup.,JIBINI,,,,,,,,,,,,,,,,,,
,,,,,,,,,,1591409,2020-10-27_17h36.18.891,swahili,2020.2.4,MacIntel,60,,,,,,,,,,,,,,,,,,,,,,,,,,,,,,,,,,,,,,,,,,,,,,,,,,,,,,,,,,,,,,,,,,,,,,,,,,,,,,0,11,11,11,1,Fermented _______ are used to make wine.,ZABIBU,,,,,,,,,,,,,,,,,,
,,,,,,,,,,1591409,2020-10-27_17h36.18.891,swahili,2020.2.4,MacIntel,60,,,,,,,,,,,,,,,,,,,,,,,,,,,,,,,,,,,,,,,,,,,,,,,,,,,,,,,,,,,,,,,,,,,,,,,,,,,,,,0,12,12,12,1,She visited her father's ___ on the anniversary of his death. ,KABURI,,,,,,,,,,,,,,,,,,
,,,,,,,,,,1591409,2020-10-27_17h36.18.891,swahili,2020.2.4,MacIntel,60,,,,,,,,,,,,,,,,,,,,,,,,,,,,,,,,,,,,,,,,,,,,,,,,,,,,,,,,,,,,,,,,,,,,,,,,,,,,,,0,13,13,13,1,"On a farm, there is a good chance you will step into a pile of ______.",SAMADI,,,,,,,,,,,,,,,,,,
,,,,,,,,,,1591409,2020-10-27_17h36.18.891,swahili,2020.2.4,MacIntel,60,,,,,,,,,,,,,,,,,,,,,,,,,,,,,,,,,,,,,,,,,,,,,,,,,,,,,,,,,,,,,,,,,,,,,,,,,,,,,,0,14,14,14,1,"To buy a house, you may need to speak with a real estate ______.",WAKILI,,,,,,,,,,,,,,,,,,
,,,,,,,,,,1591409,2020-10-27_17h36.18.891,swahili,2020.2.4,MacIntel,60,,,,,,,,,,,,,,,,,,,,,,,,,,,,,,,,,,,,,,,,,,,,,,,,,,,,,,,,,,,,,,,,,,,,,,,,,,,,,,0,15,15,15,1,The politician was arrested for taking a _____.,RUSHWA,,,,,,,,,,,,,,,,,,
,,,,,,,,,,1591409,2020-10-27_17h36.18.891,swahili,2020.2.4,MacIntel,60,,,,,,,,,,,,,,,,,,,,,,,,,,,,,,,,,,,,,,,,,,,,,,,,,,,,,,,,,,,,,,,,,,,,,,,,,,,,,,0,16,16,16,1,The _____ is living with foster parents.,YATIMA,,,,,,,,,,,,,,,,,,
,,,,,,,,,,1591409,2020-10-27_17h36.18.891,swahili,2020.2.4,MacIntel,60,,,,,,,,,,,,,,,,,,,,,,,,,,,,,,,,,,,,,,,,,,,,,,,,,,,,,,,,,,,,,,,,,,,,,,,,,,,,,,0,17,17,17,1,My aunt and uncle got a _________ after two years of marriage.,TALAKA,,,,,,,,,,,,,,,,,,
,,,,,,,,,,1591409,2020-10-27_17h36.18.891,swahili,2020.2.4,MacIntel,60,,,,,,,,,,,,,,,,,,,,,,,,,,,,,,,,,,,,,,,,,,,,,,,,,,,,,,,,,,,,,,,,,,,,,,,,,,,,,,0,18,18,18,1,You need a ______ to go fishing in the middle of a lake.,MASHUA,,,,,,,,,,,,,,,,,,
,,,,,,,,,,1591409,2020-10-27_17h36.18.891,swahili,2020.2.4,MacIntel,60,,,,,,,,,,,,,,,,,,,,,,,,,,,,,,,,,,,,,,,,,,,,,,,,,,,,,,,,,,,,,,,,,,,,,,,,,,,,,,0,19,19,19,1,Pirates looked for buried _________ at the bottom of the sea.,DAFINA,,,,,,,,,,,,,,,,,,
,,,,,,,,,,1591409,2020-10-27_17h36.18.891,swahili,2020.2.4,MacIntel,60,,,,,,,,,,,,,,,,,,,,,,,,,,,,,,,,,,,,,,,,,,,,,,,,,,,,,,,,,,,,,,,,,,,,,,,,,,,,,,,,,,,Shannon had no one else to  ____ for what happened.,LAWAMA,return,2.511925,LAWAMA,correct,-0.015131179,-0.429916362,1,0,0,21.73901,b,0,0,0,5,1,,
,,,,,,,,,,1591409,2020-10-27_17h36.18.891,swahili,2020.2.4,MacIntel,60,,,,,,,,,,,,,,,,,,,,,,,,,,,,,,,,,,,,,,,,,,,,,,,,,,,,,,,,,,,,,,,,,,,,,,,,,,,,,,,,,,,I bought all my goods from the ____ at the market. ,TAJIRI,,,TAJIRI,correct,0.399817666,-0.61648011,1,0,0,9.045045,c,0,1,1,0,1,,
,,,,,,,,,,1591409,2020-10-27_17h36.18.891,swahili,2020.2.4,MacIntel,60,,,,,,,,,,,,,,,,,,,,,,,,,,,,,,,,,,,,,,,,,,,,,,,,,,,,,,,,,,,,,,,,,,,,,,,,,,,,,,,,,,,Kate doesn't like ____ on the cob because it gets stuck between her teeth. ,NAFAKA,,,NAFAKA,correct,0.410111933,-0.451158872,1,0,0,14.792365,c,0,2,2,7,1,,
,,,,,,,,,,1591409,2020-10-27_17h36.18.891,swahili,2020.2.4,MacIntel,60,,,,,,,,,,,,,,,,,,,,,,,,,,,,,,,,,,,,,,,,,,,,,,,,,,,,,,,,,,,,,,,,,,,,,,,,,,,,,,,,,,,Amy cooked a grilled ____ sandwich to go with her tomato soup.,JIBINI,,,JIBINI,correct,-0.429940741,-0.460968708,1,0,0,13.86075,a,0,3,3,10,1,,
,,,,,,,,,,1591409,2020-10-27_17h36.18.891,swahili,2020.2.4,MacIntel,60,,,,,,,,,,,,,,,,,,,,,,,,,,,,,,,,,,,,,,,,,,,,,,,,,,,,,,,,,,,,,,,,,,,,,,,,,,,,,,,,,,,I filled my ____ with food at the buffet. ,SAHANI,,,SAHANI,correct,0.13726955,-0.513409204,1,0,0,12.84208,b,0,4,4,3,1,,
,,,,,,,,,,1591409,2020-10-27_17h36.18.891,swahili,2020.2.4,MacIntel,60,,,,,,,,,,,,,,,,,,,,,,,,,,,,,,,,,,,,,,,,,,,,,,,,,,,,,,,,,,,,,,,,,,,,,,,,,,,,,,,,,,,Fermented _______ are used to make wine.,ZABIBU,,,ZABIBU,correct,0.004988857,-0.460292527,1,0,0,9.976075,b,0,5,5,11,1,,
,,,,,,,,,,1591409,2020-10-27_17h36.18.891,swahili,2020.2.4,MacIntel,60,,,,,,,,,,,,,,,,,,,,,,,,,,,,,,,,,,,,,,,,,,,,,,,,,,,,,,,,,,,,,,,,,,,,,,,,,,,,,,,,,,,"To buy a house, you may need to speak with a real estate ______.",WAKILI,,,MSHONI,incorrect,0.384882749,-0.47243259,1,0,0,6.9933,c,0,6,6,14,1,,
,,,,,,,,,,1591409,2020-10-27_17h36.18.891,swahili,2020.2.4,MacIntel,60,,,,,,,,,,,,,,,,,,,,,,,,,,,,,,,,,,,,,,,,,,,,,,,,,,,,,,,,,,,,,,,,,,,,,,,,,,,,,,,,,,,Charles went to the ____ to get his suit adjusted. ,MSHONI,,,MSHONI,correct,-0.068362541,-0.468146638,1,0,0,29.1931,b,0,7,7,9,1,,
,,,,,,,,,,1591409,2020-10-27_17h36.18.891,swahili,2020.2.4,MacIntel,60,,,,,,,,,,,,,,,,,,,,,,,,,,,,,,,,,,,,,,,,,,,,,,,,,,,,,,,,,,,,,,,,,,,,,,,,,,,,,,,,,,,Pirates looked for buried _________ at the bottom of the sea.,DAFINA,,,HAMIRA,incorrect,-0.336690893,-0.491906625,1,0,0,13.526205,a,0,8,8,19,1,,
,,,,,,,,,,1591409,2020-10-27_17h36.18.891,swahili,2020.2.4,MacIntel,60,,,,,,,,,,,,,,,,,,,,,,,,,,,,,,,,,,,,,,,,,,,,,,,,,,,,,,,,,,,,,,,,,,,,,,,,,,,,,,,,,,,The politician was arrested for taking a _____.,RUSHWA,,,RUSHWA,correct,-0.415961811,-0.416007823,1,0,0,10.625485,a,0,9,9,15,1,,
,,,,,,,,,,1591409,2020-10-27_17h36.18.891,swahili,2020.2.4,MacIntel,60,,,,,,,,,,,,,,,,,,,,,,,,,,,,,,,,,,,,,,,,,,,,,,,,,,,,,,,,,,,,,,,,,,,,,,,,,,,,,,,,,,,The ____ charged the matador's red cape. ,FAHILI,,,FAHILI,correct,-0.131242403,-0.56804469,1,0,0,19.593335,b,0,10,10,2,1,,
,,,,,,,,,,1591409,2020-10-27_17h36.18.891,swahili,2020.2.4,MacIntel,60,,,,,,,,,,,,,,,,,,,,,,,,,,,,,,,,,,,,,,,,,,,,,,,,,,,,,,,,,,,,,,,,,,,,,,,,,,,,,,,,,,,David wrote Cynthia a romantic ____  but she thought it rhymed too much.,UTENZI,,,UTENZI,correct,0.420007344,-0.461863349,1,0,0,11.343115,c,0,11,11,8,1,,
,,,,,,,,,,1591409,2020-10-27_17h36.18.891,swahili,2020.2.4,MacIntel,60,,,,,,,,,,,,,,,,,,,,,,,,,,,,,,,,,,,,,,,,,,,,,,,,,,,,,,,,,,,,,,,,,,,,,,,,,,,,,,,,,,,My aunt and uncle got a _________ after two years of marriage.,TALAKA,,,LAWAMA,incorrect,0.065026084,-0.502351032,1,0,0,10.67577,b,0,12,12,17,1,,
,,,,,,,,,,1591409,2020-10-27_17h36.18.891,swahili,2020.2.4,MacIntel,60,,,,,,,,,,,,,,,,,,,,,,,,,,,,,,,,,,,,,,,,,,,,,,,,,,,,,,,,,,,,,,,,,,,,,,,,,,,,,,,,,,,The ____ is a bird that can learn to repeat words.,KASUKU,,,KASUKU,correct,0.496081088,-0.535307091,1,0,0,11.92564,c,0,13,13,1,1,,
,,,,,,,,,,1591409,2020-10-27_17h36.18.891,swahili,2020.2.4,MacIntel,60,,,,,,,,,,,,,,,,,,,,,,,,,,,,,,,,,,,,,,,,,,,,,,,,,,,,,,,,,,,,,,,,,,,,,,,,,,,,,,,,,,,The president takes the  ____ of office to uphold the Constitution.,YAMINI,,,SAMADI,incorrect,0.171856007,-0.537949401,1,0,0,25.7604,b,0,14,14,6,1,,
,,,,,,,,,,1591409,2020-10-27_17h36.18.891,swahili,2020.2.4,MacIntel,60,,,,,,,,,,,,,,,,,,,,,,,,,,,,,,,,,,,,,,,,,,,,,,,,,,,,,,,,,,,,,,,,,,,,,,,,,,,,,,,,,,,You need a ______ to go fishing in the middle of a lake.,MASHUA,,,MASHUA,correct,-0.560132192,-0.55758988,1,0,0,13.028605,a,0,15,15,18,1,,
,,,,,,,,,,1591409,2020-10-27_17h36.18.891,swahili,2020.2.4,MacIntel,60,,,,,,,,,,,,,,,,,,,,,,,,,,,,,,,,,,,,,,,,,,,,,,,,,,,,,,,,,,,,,,,,,,,,,,,,,,,,,,,,,,,She visited her father's ___ on the anniversary of his death. ,KABURI,,,KABURI,correct,0.444438817,-0.522199567,1,0,0,16.176335,c,0,16,16,12,1,,
,,,,,,,,,,1591409,2020-10-27_17h36.18.891,swahili,2020.2.4,MacIntel,60,,,,,,,,,,,,,,,,,,,,,,,,,,,,,,,,,,,,,,,,,,,,,,,,,,,,,,,,,,,,,,,,,,,,,,,,,,,,,,,,,,,_____ makes bread rise. ,HAMIRA,,,YATIMA,incorrect,0.122271323,-0.557246588,1,0,0,13.41025,b,0,17,17,4,1,,
,,,,,,,,,,1591409,2020-10-27_17h36.18.891,swahili,2020.2.4,MacIntel,60,,,,,,,,,,,,,,,,,,,,,,,,,,,,,,,,,,,,,,,,,,,,,,,,,,,,,,,,,,,,,,,,,,,,,,,,,,,,,,,,,,,The _____ is living with foster parents.,YATIMA,,,KABURI,incorrect,0.340470523,-0.436740596,1,0,0,20.010365,c,0,18,18,16,1,,
,,,,,,,,,,1591409,2020-10-27_17h36.18.891,swahili,2020.2.4,MacIntel,60,,,,,,,,,,,,,,,,,,,,,,,,,,,,,,,,,,,,,,,,,,,,,,,,,,,,,,,,,,,,,,,,,,,,,,,,,,,,,,,,,,,"On a farm, there is a good chance you will step into a pile of ______.",SAMADI,,,SAMADI,correct,-0.26532111,-0.570010819,1,0,0,8.929165,a,0,19,19,13,1,,
,,,,,,,,,,1591409,2020-10-27_17h36.18.891,swahili,2020.2.4,MacIntel,60,,,,,,,,,,,,,,,,,,,,,,,,,,,,,,,,,,,,,,,,,,,,,,,,,,,,,,,,,,,,,,,,,,,,,,,,,,,,,,,,,,,,,,,,,,,,,,,,,,,,,return,5.68297
