condition,consent_key.keys,consent_key.rt,done_with_instructions.keys,done_with_instructions.rt,instr_loop.thisRepN,instr_loop.thisTrialN,instr_loop.thisN,instr_loop.thisIndex,instr_loop.ran,Student ID #,date,expName,psychopyVersion,OS,frameRate,instr_learning_key.keys,instr_learning_key.rt,card_gen_loop.thisRepN,card_gen_loop.thisTrialN,card_gen_loop.thisN,card_gen_loop.thisIndex,card_gen_loop.ran,swa,eng,choose_pile.x,choose_pile.y,choose_pile.leftButton,choose_pile.midButton,choose_pile.rightButton,choose_pile.time,choose_pile.clicked_name,choices.thisRepN,choices.thisTrialN,choices.thisN,choices.thisIndex,choices.ran,card_to_show,mouse_pick.x,mouse_pick.y,mouse_pick.leftButton,mouse_pick.midButton,mouse_pick.rightButton,mouse_pick.time,mouse_pick.clicked_name,key_instr_study.keys,key_instr_study.rt,next_study.keys,next_study.rt,study_loop.thisRepN,study_loop.thisTrialN,study_loop.thisN,study_loop.thisIndex,study_loop.ran,key_instr_test.keys,learn_loop.thisRepN,learn_loop.thisTrialN,learn_loop.thisN,learn_loop.thisIndex,learn_loop.ran,trials.thisRepN,trials.thisTrialN,trials.thisN,trials.thisIndex,trials.ran,key_instr_test.rt,duration,yes_or_no.x,yes_or_no.y,yes_or_no.leftButton,yes_or_no.midButton,yes_or_no.rightButton,yes_or_no.time,yes_or_no.clicked_name,test_response.stim,test_response.resp,test_response.eval,test_loop.thisRepN,test_loop.thisTrialN,test_loop.thisN,test_loop.thisIndex,test_loop.ran,instr_movie_key.keys,instr_movie_key.rt,return_to_exp.keys,return_to_exp.rt,instr_assess_key.keys,instr_assess_key.rt,assess_loop.thisRepN,assess_loop.thisTrialN,assess_loop.thisN,assess_loop.thisIndex,assess_loop.ran,ans_gen_loop.thisRepN,ans_gen_loop.thisTrialN,ans_gen_loop.thisN,ans_gen_loop.thisIndex,ans_gen_loop.ran,sen,ans,instr_transfer_key.keys,instr_transfer_key.rt,transfer_response.resp,transfer_response.eval,select_word.x,select_word.y,select_word.leftButton,select_word.midButton,select_word.rightButton,select_word.time,select_word.clicked_name,transfers.thisRepN,transfers.thisTrialN,transfers.thisN,transfers.thisIndex,transfers.ran,end_experiment.keys,end_experiment.rt
1,return,36.958405,return,17.92829,0,0,0,0,1,1573985,2020-10-27_18h25.53.604,swahili,2020.2.4,MacIntel,60,,,,,,,,,,,,,,,,,,,,,,,,,,,,,,,,,,,,,,,,,,,,,,,,,,,,,,,,,,,,,,,,,,,,,,,,,,,,,,,,,,,,,,,,,,,,,,,,,,,,,,
,,,,,,,,,,1573985,2020-10-27_18h25.53.604,swahili,2020.2.4,MacIntel,60,return,20.411225,0,0,0,0,1,TAJIRI,MERCHANT,,,,,,,,,,,,,,,,,,,,,,,,,,,,,,,,,,,,,,,,,,,,,,,,,,,,,,,,,,,,,,,,,,,,,,,,,,,,,,,,,,,,,,,,,,,,,
,,,,,,,,,,1573985,2020-10-27_18h25.53.604,swahili,2020.2.4,MacIntel,60,,,0,1,1,1,1,KASUKU,PARROT,,,,,,,,,,,,,,,,,,,,,,,,,,,,,,,,,,,,,,,,,,,,,,,,,,,,,,,,,,,,,,,,,,,,,,,,,,,,,,,,,,,,,,,,,,,,,
,,,,,,,,,,1573985,2020-10-27_18h25.53.604,swahili,2020.2.4,MacIntel,60,,,0,2,2,2,1,FAHILI,BULL,,,,,,,,,,,,,,,,,,,,,,,,,,,,,,,,,,,,,,,,,,,,,,,,,,,,,,,,,,,,,,,,,,,,,,,,,,,,,,,,,,,,,,,,,,,,,
,,,,,,,,,,1573985,2020-10-27_18h25.53.604,swahili,2020.2.4,MacIntel,60,,,0,3,3,3,1,SAHANI,PLATE,,,,,,,,,,,,,,,,,,,,,,,,,,,,,,,,,,,,,,,,,,,,,,,,,,,,,,,,,,,,,,,,,,,,,,,,,,,,,,,,,,,,,,,,,,,,,
,,,,,,,,,,1573985,2020-10-27_18h25.53.604,swahili,2020.2.4,MacIntel,60,,,0,4,4,4,1,HAMIRA,YEAST,,,,,,,,,,,,,,,,,,,,,,,,,,,,,,,,,,,,,,,,,,,,,,,,,,,,,,,,,,,,,,,,,,,,,,,,,,,,,,,,,,,,,,,,,,,,,
,,,,,,,,,,1573985,2020-10-27_18h25.53.604,swahili,2020.2.4,MacIntel,60,,,0,5,5,5,1,LAWAMA,BLAME,,,,,,,,,,,,,,,,,,,,,,,,,,,,,,,,,,,,,,,,,,,,,,,,,,,,,,,,,,,,,,,,,,,,,,,,,,,,,,,,,,,,,,,,,,,,,
,,,,,,,,,,1573985,2020-10-27_18h25.53.604,swahili,2020.2.4,MacIntel,60,,,0,6,6,6,1,YAMINI,OATH,,,,,,,,,,,,,,,,,,,,,,,,,,,,,,,,,,,,,,,,,,,,,,,,,,,,,,,,,,,,,,,,,,,,,,,,,,,,,,,,,,,,,,,,,,,,,
,,,,,,,,,,1573985,2020-10-27_18h25.53.604,swahili,2020.2.4,MacIntel,60,,,0,7,7,7,1,NAFAKA,CORN,,,,,,,,,,,,,,,,,,,,,,,,,,,,,,,,,,,,,,,,,,,,,,,,,,,,,,,,,,,,,,,,,,,,,,,,,,,,,,,,,,,,,,,,,,,,,
,,,,,,,,,,1573985,2020-10-27_18h25.53.604,swahili,2020.2.4,MacIntel,60,,,0,8,8,8,1,UTENZI,POEM,,,,,,,,,,,,,,,,,,,,,,,,,,,,,,,,,,,,,,,,,,,,,,,,,,,,,,,,,,,,,,,,,,,,,,,,,,,,,,,,,,,,,,,,,,,,,
,,,,,,,,,,1573985,2020-10-27_18h25.53.604,swahili,2020.2.4,MacIntel,60,,,0,9,9,9,1,MSHONI,TAILOR,,,,,,,,,,,,,,,,,,,,,,,,,,,,,,,,,,,,,,,,,,,,,,,,,,,,,,,,,,,,,,,,,,,,,,,,,,,,,,,,,,,,,,,,,,,,,
,,,,,,,,,,1573985,2020-10-27_18h25.53.604,swahili,2020.2.4,MacIntel,60,,,0,10,10,10,1,JIBINI,CHEESE,,,,,,,,,,,,,,,,,,,,,,,,,,,,,,,,,,,,,,,,,,,,,,,,,,,,,,,,,,,,,,,,,,,,,,,,,,,,,,,,,,,,,,,,,,,,,
,,,,,,,,,,1573985,2020-10-27_18h25.53.604,swahili,2020.2.4,MacIntel,60,,,0,11,11,11,1,ZABIBU,GRAPES,,,,,,,,,,,,,,,,,,,,,,,,,,,,,,,,,,,,,,,,,,,,,,,,,,,,,,,,,,,,,,,,,,,,,,,,,,,,,,,,,,,,,,,,,,,,,
,,,,,,,,,,1573985,2020-10-27_18h25.53.604,swahili,2020.2.4,MacIntel,60,,,0,12,12,12,1,KABURI,GRAVE,,,,,,,,,,,,,,,,,,,,,,,,,,,,,,,,,,,,,,,,,,,,,,,,,,,,,,,,,,,,,,,,,,,,,,,,,,,,,,,,,,,,,,,,,,,,,
,,,,,,,,,,1573985,2020-10-27_18h25.53.604,swahili,2020.2.4,MacIntel,60,,,0,13,13,13,1,SAMADI,MANURE,,,,,,,,,,,,,,,,,,,,,,,,,,,,,,,,,,,,,,,,,,,,,,,,,,,,,,,,,,,,,,,,,,,,,,,,,,,,,,,,,,,,,,,,,,,,,
,,,,,,,,,,1573985,2020-10-27_18h25.53.604,swahili,2020.2.4,MacIntel,60,,,0,14,14,14,1,WAKILI,AGENT,,,,,,,,,,,,,,,,,,,,,,,,,,,,,,,,,,,,,,,,,,,,,,,,,,,,,,,,,,,,,,,,,,,,,,,,,,,,,,,,,,,,,,,,,,,,,
,,,,,,,,,,1573985,2020-10-27_18h25.53.604,swahili,2020.2.4,MacIntel,60,,,0,15,15,15,1,RUSHWA,BRIBE,,,,,,,,,,,,,,,,,,,,,,,,,,,,,,,,,,,,,,,,,,,,,,,,,,,,,,,,,,,,,,,,,,,,,,,,,,,,,,,,,,,,,,,,,,,,,
,,,,,,,,,,1573985,2020-10-27_18h25.53.604,swahili,2020.2.4,MacIntel,60,,,0,16,16,16,1,YATIMA,ORPHAN,,,,,,,,,,,,,,,,,,,,,,,,,,,,,,,,,,,,,,,,,,,,,,,,,,,,,,,,,,,,,,,,,,,,,,,,,,,,,,,,,,,,,,,,,,,,,
,,,,,,,,,,1573985,2020-10-27_18h25.53.604,swahili,2020.2.4,MacIntel,60,,,0,17,17,17,1,TALAKA,DIVORCE,,,,,,,,,,,,,,,,,,,,,,,,,,,,,,,,,,,,,,,,,,,,,,,,,,,,,,,,,,,,,,,,,,,,,,,,,,,,,,,,,,,,,,,,,,,,,
,,,,,,,,,,1573985,2020-10-27_18h25.53.604,swahili,2020.2.4,MacIntel,60,,,0,18,18,18,1,MASHUA,BOAT,,,,,,,,,,,,,,,,,,,,,,,,,,,,,,,,,,,,,,,,,,,,,,,,,,,,,,,,,,,,,,,,,,,,,,,,,,,,,,,,,,,,,,,,,,,,,
,,,,,,,,,,1573985,2020-10-27_18h25.53.604,swahili,2020.2.4,MacIntel,60,,,0,19,19,19,1,DAFINA,TREASURE,,,,,,,,,,,,,,,,,,,,,,,,,,,,,,,,,,,,,,,,,,,,,,,,,,,,,,,,,,,,,,,,,,,,,,,,,,,,,,,,,,,,,,,,,,,,,
,,,,,,,,,,1573985,2020-10-27_18h25.53.604,swahili,2020.2.4,MacIntel,60,,,,,,,,,,-0.237277561,0.043090278,1,0,0,13.852195,unsorted_card,0,0,0,0,1,,,,,,,,,,,,,,,,,,,,,,,,,,,,,,,,,,,,,,,,,,,,,,,,,,,,,,,,,,,,,,,,,,,,,,,,,,,,,,,,,
,,,,,,,,,,1573985,2020-10-27_18h25.53.604,swahili,2020.2.4,MacIntel,60,,,,,,,,,,0.41640625,0.475590278,1,0,0,12.01022,study_pile,1,0,1,0,1,MERCHANT - TAJIRI,,,,,,,,,,,,,,,,,,,,,,,,,,,,,,,,,,,,,,,,,,,,,,,,,,,,,,,,,,,,,,,,,,,,,,,,,,,,,,,,
,,,,,,,,,,1573985,2020-10-27_18h25.53.604,swahili,2020.2.4,MacIntel,60,,,,,,,,,,-0.248312717,-0.040928819,1,0,0,1.61247,unsorted_card,2,0,2,0,1,,,,,,,,,,,,,,,,,,,,,,,,,,,,,,,,,,,,,,,,,,,,,,,,,,,,,,,,,,,,,,,,,,,,,,,,,,,,,,,,,
,,,,,,,,,,1573985,2020-10-27_18h25.53.604,swahili,2020.2.4,MacIntel,60,,,,,,,,,,-0.252750651,-0.061449653,1,0,0,4.911735,unsorted_card,3,0,3,0,1,PARROT - KASUKU,,,,,,,,,,,,,,,,,,,,,,,,,,,,,,,,,,,,,,,,,,,,,,,,,,,,,,,,,,,,,,,,,,,,,,,,,,,,,,,,
,,,,,,,,,,1573985,2020-10-27_18h25.53.604,swahili,2020.2.4,MacIntel,60,,,,,,,,,,0.329741753,0.440078125,1,0,0,2.13209,study_pile,4,0,4,0,1,PARROT - KASUKU,,,,,,,,,,,,,,,,,,,,,,,,,,,,,,,,,,,,,,,,,,,,,,,,,,,,,,,,,,,,,,,,,,,,,,,,,,,,,,,,
,,,,,,,,,,1573985,2020-10-27_18h25.53.604,swahili,2020.2.4,MacIntel,60,,,,,,,,,,-0.215749783,-0.07765625,1,0,0,0.88498,unsorted_card,5,0,5,0,1,,,,,,,,,,,,,,,,,,,,,,,,,,,,,,,,,,,,,,,,,,,,,,,,,,,,,,,,,,,,,,,,,,,,,,,,,,,,,,,,,
,,,,,,,,,,1573985,2020-10-27_18h25.53.604,swahili,2020.2.4,MacIntel,60,,,,,,,,,,0.473291016,0.499244792,1,0,0,5.810985,study_pile,6,0,6,0,1,BULL - FAHILI,,,,,,,,,,,,,,,,,,,,,,,,,,,,,,,,,,,,,,,,,,,,,,,,,,,,,,,,,,,,,,,,,,,,,,,,,,,,,,,,
,,,,,,,,,,1573985,2020-10-27_18h25.53.604,swahili,2020.2.4,MacIntel,60,,,,,,,,,,-0.278320313,-0.032786458,1,0,0,0.731555,unsorted_card,7,0,7,0,1,,,,,,,,,,,,,,,,,,,,,,,,,,,,,,,,,,,,,,,,,,,,,,,,,,,,,,,,,,,,,,,,,,,,,,,,,,,,,,,,,
,,,,,,,,,,1573985,2020-10-27_18h25.53.604,swahili,2020.2.4,MacIntel,60,,,,,,,,,,0.341330295,0.413932292,1,0,0,3.431575,study_pile,8,0,8,0,1,PLATE - SAHANI,,,,,,,,,,,,,,,,,,,,,,,,,,,,,,,,,,,,,,,,,,,,,,,,,,,,,,,,,,,,,,,,,,,,,,,,,,,,,,,,
,,,,,,,,,,1573985,2020-10-27_18h25.53.604,swahili,2020.2.4,MacIntel,60,,,,,,,,,,-0.292632378,-0.161440972,1,0,0,0.832475,unsorted_card,9,0,9,0,1,,,,,,,,,,,,,,,,,,,,,,,,,,,,,,,,,,,,,,,,,,,,,,,,,,,,,,,,,,,,,,,,,,,,,,,,,,,,,,,,,
,,,,,,,,,,1573985,2020-10-27_18h25.53.604,swahili,2020.2.4,MacIntel,60,,,,,,,,,,0.362928602,0.4121875,1,0,0,3.49587,study_pile,10,0,10,0,1,YEAST - HAMIRA,,,,,,,,,,,,,,,,,,,,,,,,,,,,,,,,,,,,,,,,,,,,,,,,,,,,,,,,,,,,,,,,,,,,,,,,,,,,,,,,
,,,,,,,,,,1573985,2020-10-27_18h25.53.604,swahili,2020.2.4,MacIntel,60,,,,,,,,,,-0.316178385,-0.148828125,1,0,0,0.701555,unsorted_card,11,0,11,0,1,,,,,,,,,,,,,,,,,,,,,,,,,,,,,,,,,,,,,,,,,,,,,,,,,,,,,,,,,,,,,,,,,,,,,,,,,,,,,,,,,
,,,,,,,,,,1573985,2020-10-27_18h25.53.604,swahili,2020.2.4,MacIntel,60,,,,,,,,,,0.358854167,0.402352431,1,0,0,5.880835,study_pile,12,0,12,0,1,BLAME - LAWAMA,,,,,,,,,,,,,,,,,,,,,,,,,,,,,,,,,,,,,,,,,,,,,,,,,,,,,,,,,,,,,,,,,,,,,,,,,,,,,,,,
,,,,,,,,,,1573985,2020-10-27_18h25.53.604,swahili,2020.2.4,MacIntel,60,,,,,,,,,,-0.302815755,-0.061866319,1,0,0,0.79222,unsorted_card,13,0,13,0,1,,,,,,,,,,,,,,,,,,,,,,,,,,,,,,,,,,,,,,,,,,,,,,,,,,,,,,,,,,,,,,,,,,,,,,,,,,,,,,,,,
,,,,,,,,,,1573985,2020-10-27_18h25.53.604,swahili,2020.2.4,MacIntel,60,,,,,,,,,,-0.165136719,0.112743056,1,0,0,9.61659,unsorted_card,14,0,14,0,1,OATH - YAMINI,,,,,,,,,,,,,,,,,,,,,,,,,,,,,,,,,,,,,,,,,,,,,,,,,,,,,,,,,,,,,,,,,,,,,,,,,,,,,,,,
,,,,,,,,,,1573985,2020-10-27_18h25.53.604,swahili,2020.2.4,MacIntel,60,,,,,,,,,,0.350954861,0.476024306,1,0,0,1.464175,study_pile,15,0,15,0,1,OATH - YAMINI,,,,,,,,,,,,,,,,,,,,,,,,,,,,,,,,,,,,,,,,,,,,,,,,,,,,,,,,,,,,,,,,,,,,,,,,,,,,,,,,
,,,,,,,,,,1573985,2020-10-27_18h25.53.604,swahili,2020.2.4,MacIntel,60,,,,,,,,,,-0.32827691,-0.069418403,1,0,0,0.71635,unsorted_card,16,0,16,0,1,,,,,,,,,,,,,,,,,,,,,,,,,,,,,,,,,,,,,,,,,,,,,,,,,,,,,,,,,,,,,,,,,,,,,,,,,,,,,,,,,
,,,,,,,,,,1573985,2020-10-27_18h25.53.604,swahili,2020.2.4,MacIntel,60,,,,,,,,,,0.505333116,0.494140625,1,0,0,3.516565,study_pile,17,0,17,0,1,CORN - NAFAKA,,,,,,,,,,,,,,,,,,,,,,,,,,,,,,,,,,,,,,,,,,,,,,,,,,,,,,,,,,,,,,,,,,,,,,,,,,,,,,,,
,,,,,,,,,,1573985,2020-10-27_18h25.53.604,swahili,2020.2.4,MacIntel,60,,,,,,,,,,-0.190608724,0.001579861,1,0,0,0.930255,unsorted_card,18,0,18,0,1,,,,,,,,,,,,,,,,,,,,,,,,,,,,,,,,,,,,,,,,,,,,,,,,,,,,,,,,,,,,,,,,,,,,,,,,,,,,,,,,,
,,,,,,,,,,1573985,2020-10-27_18h25.53.604,swahili,2020.2.4,MacIntel,60,,,,,,,,,,0.421609158,0.450208333,1,0,0,7.264375,study_pile,19,0,19,0,1,POEM - UTENZI,,,,,,,,,,,,,,,,,,,,,,,,,,,,,,,,,,,,,,,,,,,,,,,,,,,,,,,,,,,,,,,,,,,,,,,,,,,,,,,,
,,,,,,,,,,1573985,2020-10-27_18h25.53.604,swahili,2020.2.4,MacIntel,60,,,,,,,,,,-0.2722602,-0.150581597,1,0,0,0.763985,unsorted_card,20,0,20,0,1,,,,,,,,,,,,,,,,,,,,,,,,,,,,,,,,,,,,,,,,,,,,,,,,,,,,,,,,,,,,,,,,,,,,,,,,,,,,,,,,,
,,,,,,,,,,1573985,2020-10-27_18h25.53.604,swahili,2020.2.4,MacIntel,60,,,,,,,,,,0.348171658,0.392447917,1,0,0,3.497775,study_pile,21,0,21,0,1,TAILOR - MSHONI,,,,,,,,,,,,,,,,,,,,,,,,,,,,,,,,,,,,,,,,,,,,,,,,,,,,,,,,,,,,,,,,,,,,,,,,,,,,,,,,
,,,,,,,,,,1573985,2020-10-27_18h25.53.604,swahili,2020.2.4,MacIntel,60,,,,,,,,,,-0.237239583,-0.049123264,1,0,0,0.51452,unsorted_card,22,0,22,0,1,,,,,,,,,,,,,,,,,,,,,,,,,,,,,,,,,,,,,,,,,,,,,,,,,,,,,,,,,,,,,,,,,,,,,,,,,,,,,,,,,
,,,,,,,,,,1573985,2020-10-27_18h25.53.604,swahili,2020.2.4,MacIntel,60,,,,,,,,,,0.362825521,0.485763889,1,0,0,3.0309,study_pile,23,0,23,0,1,CHEESE - JIBINI,,,,,,,,,,,,,,,,,,,,,,,,,,,,,,,,,,,,,,,,,,,,,,,,,,,,,,,,,,,,,,,,,,,,,,,,,,,,,,,,
,,,,,,,,,,1573985,2020-10-27_18h25.53.604,swahili,2020.2.4,MacIntel,60,,,,,,,,,,-0.291753472,-0.029383681,1,0,0,0.71606,unsorted_card,24,0,24,0,1,,,,,,,,,,,,,,,,,,,,,,,,,,,,,,,,,,,,,,,,,,,,,,,,,,,,,,,,,,,,,,,,,,,,,,,,,,,,,,,,,
,,,,,,,,,,1573985,2020-10-27_18h25.53.604,swahili,2020.2.4,MacIntel,60,,,,,,,,,,0.322265625,0.372092014,1,0,0,6.331815,study_pile,25,0,25,0,1,GRAPES - ZABIBU,,,,,,,,,,,,,,,,,,,,,,,,,,,,,,,,,,,,,,,,,,,,,,,,,,,,,,,,,,,,,,,,,,,,,,,,,,,,,,,,
,,,,,,,,,,1573985,2020-10-27_18h25.53.604,swahili,2020.2.4,MacIntel,60,,,,,,,,,,-0.213840061,0.135824653,1,0,0,0.728445,unsorted_card,26,0,26,0,1,,,,,,,,,,,,,,,,,,,,,,,,,,,,,,,,,,,,,,,,,,,,,,,,,,,,,,,,,,,,,,,,,,,,,,,,,,,,,,,,,
,,,,,,,,,,1573985,2020-10-27_18h25.53.604,swahili,2020.2.4,MacIntel,60,,,,,,,,,,0.343294271,0.390060764,1,0,0,4.3978,study_pile,27,0,27,0,1,GRAVE - KABURI,,,,,,,,,,,,,,,,,,,,,,,,,,,,,,,,,,,,,,,,,,,,,,,,,,,,,,,,,,,,,,,,,,,,,,,,,,,,,,,,
,,,,,,,,,,1573985,2020-10-27_18h25.53.604,swahili,2020.2.4,MacIntel,60,,,,,,,,,,-0.213183594,-0.037170139,1,0,0,0.598675,unsorted_card,28,0,28,0,1,,,,,,,,,,,,,,,,,,,,,,,,,,,,,,,,,,,,,,,,,,,,,,,,,,,,,,,,,,,,,,,,,,,,,,,,,,,,,,,,,
,,,,,,,,,,1573985,2020-10-27_18h25.53.604,swahili,2020.2.4,MacIntel,60,,,,,,,,,,0.494639757,0.521336806,1,0,0,4.198265,study_pile,29,0,29,0,1,MANURE - SAMADI,,,,,,,,,,,,,,,,,,,,,,,,,,,,,,,,,,,,,,,,,,,,,,,,,,,,,,,,,,,,,,,,,,,,,,,,,,,,,,,,
,,,,,,,,,,1573985,2020-10-27_18h25.53.604,swahili,2020.2.4,MacIntel,60,,,,,,,,,,-0.341341146,-0.171571181,1,0,0,0.66408,unsorted_card,30,0,30,0,1,,,,,,,,,,,,,,,,,,,,,,,,,,,,,,,,,,,,,,,,,,,,,,,,,,,,,,,,,,,,,,,,,,,,,,,,,,,,,,,,,
,,,,,,,,,,1573985,2020-10-27_18h25.53.604,swahili,2020.2.4,MacIntel,60,,,,,,,,,,0.447129991,0.490989583,1,0,0,4.46374,study_pile,31,0,31,0,1,AGENT - WAKILI,,,,,,,,,,,,,,,,,,,,,,,,,,,,,,,,,,,,,,,,,,,,,,,,,,,,,,,,,,,,,,,,,,,,,,,,,,,,,,,,
,,,,,,,,,,1573985,2020-10-27_18h25.53.604,swahili,2020.2.4,MacIntel,60,,,,,,,,,,-0.23508572,0.081909722,1,0,0,0.6297,unsorted_card,32,0,32,0,1,,,,,,,,,,,,,,,,,,,,,,,,,,,,,,,,,,,,,,,,,,,,,,,,,,,,,,,,,,,,,,,,,,,,,,,,,,,,,,,,,
,,,,,,,,,,1573985,2020-10-27_18h25.53.604,swahili,2020.2.4,MacIntel,60,,,,,,,,,,0.3503852,0.409852431,1,0,0,3.864255,study_pile,33,0,33,0,1,BRIBE - RUSHWA,,,,,,,,,,,,,,,,,,,,,,,,,,,,,,,,,,,,,,,,,,,,,,,,,,,,,,,,,,,,,,,,,,,,,,,,,,,,,,,,
,,,,,,,,,,1573985,2020-10-27_18h25.53.604,swahili,2020.2.4,MacIntel,60,,,,,,,,,,-0.374945747,-0.160711806,1,0,0,0.63167,unsorted_card,34,0,34,0,1,,,,,,,,,,,,,,,,,,,,,,,,,,,,,,,,,,,,,,,,,,,,,,,,,,,,,,,,,,,,,,,,,,,,,,,,,,,,,,,,,
,,,,,,,,,,1573985,2020-10-27_18h25.53.604,swahili,2020.2.4,MacIntel,60,,,,,,,,,,0.404188368,0.458046875,1,0,0,12.131815,study_pile,35,0,35,0,1,ORPHAN - YATIMA,,,,,,,,,,,,,,,,,,,,,,,,,,,,,,,,,,,,,,,,,,,,,,,,,,,,,,,,,,,,,,,,,,,,,,,,,,,,,,,,
,,,,,,,,,,1573985,2020-10-27_18h25.53.604,swahili,2020.2.4,MacIntel,60,,,,,,,,,,-0.178884549,-0.083133681,1,0,0,0.7587,unsorted_card,36,0,36,0,1,,,,,,,,,,,,,,,,,,,,,,,,,,,,,,,,,,,,,,,,,,,,,,,,,,,,,,,,,,,,,,,,,,,,,,,,,,,,,,,,,
,,,,,,,,,,1573985,2020-10-27_18h25.53.604,swahili,2020.2.4,MacIntel,60,,,,,,,,,,0.363633898,0.418072917,1,0,0,5.49949,study_pile,37,0,37,0,1,DIVORCE - TALAKA,,,,,,,,,,,,,,,,,,,,,,,,,,,,,,,,,,,,,,,,,,,,,,,,,,,,,,,,,,,,,,,,,,,,,,,,,,,,,,,,
,,,,,,,,,,1573985,2020-10-27_18h25.53.604,swahili,2020.2.4,MacIntel,60,,,,,,,,,,-0.382248264,-0.102378472,1,0,0,0.597675,unsorted_card,38,0,38,0,1,,,,,,,,,,,,,,,,,,,,,,,,,,,,,,,,,,,,,,,,,,,,,,,,,,,,,,,,,,,,,,,,,,,,,,,,,,,,,,,,,
,,,,,,,,,,1573985,2020-10-27_18h25.53.604,swahili,2020.2.4,MacIntel,60,,,,,,,,,,0.334076606,0.376006944,1,0,0,3.430775,study_pile,39,0,39,0,1,BOAT - MASHUA,,,,,,,,,,,,,,,,,,,,,,,,,,,,,,,,,,,,,,,,,,,,,,,,,,,,,,,,,,,,,,,,,,,,,,,,,,,,,,,,
,,,,,,,,,,1573985,2020-10-27_18h25.53.604,swahili,2020.2.4,MacIntel,60,,,,,,,,,,-0.30609809,-0.004375,1,0,0,0.580165,unsorted_card,40,0,40,0,1,,,,,,,,,,,,,,,,,,,,,,,,,,,,,,,,,,,,,,,,,,,,,,,,,,,,,,,,,,,,,,,,,,,,,,,,,,,,,,,,,
,,,,,,,,,,1573985,2020-10-27_18h25.53.604,swahili,2020.2.4,MacIntel,60,,,,,,,,,,0.371750217,0.418038194,1,0,0,4.285215,study_pile,41,0,41,0,1,TREASURE - DAFINA,,,,,,,,,,,,,,,,,,,,,,,,,,,,,,,,,,,,,,,,,,,,,,,,,,,,,,,,,,,,,,,,,,,,,,,,,,,,,,,,
,,,,,,,,,,1573985,2020-10-27_18h25.53.604,swahili,2020.2.4,MacIntel,60,,,,,,,,,,,,,,,,,,,,,,OATH - YAMINI,,,,,,,,return,12.2014,return,3.4867,0,0,0,0,1,,,,,,,,,,,,,,,,,,,,,,,,,,,,,,,,,,,,,,,,,,,,,,,,,,,,,,,,,,,,,,,,
,,,,,,,,,,1573985,2020-10-27_18h25.53.604,swahili,2020.2.4,MacIntel,60,,,,,,,,,,,,,,,,,,,,,,YEAST - HAMIRA,,,,,,,,,,return,8.066715,1,0,1,0,1,,,,,,,,,,,,,,,,,,,,,,,,,,,,,,,,,,,,,,,,,,,,,,,,,,,,,,,,,,,,,,,,
,,,,,,,,,,1573985,2020-10-27_18h25.53.604,swahili,2020.2.4,MacIntel,60,,,,,,,,,,,,,,,,,,,,,,MERCHANT - TAJIRI,,,,,,,,,,return,5.827375,2,0,2,0,1,,,,,,,,,,,,,,,,,,,,,,,,,,,,,,,,,,,,,,,,,,,,,,,,,,,,,,,,,,,,,,,,
,,,,,,,,,,1573985,2020-10-27_18h25.53.604,swahili,2020.2.4,MacIntel,60,,,,,,,,,,,,,,,,,,,,,,TAILOR - MSHONI,,,,,,,,,,return,5.58028,3,0,3,0,1,,,,,,,,,,,,,,,,,,,,,,,,,,,,,,,,,,,,,,,,,,,,,,,,,,,,,,,,,,,,,,,,
,,,,,,,,,,1573985,2020-10-27_18h25.53.604,swahili,2020.2.4,MacIntel,60,,,,,,,,,,,,,,,,,,,,,,TREASURE - DAFINA,,,,,,,,,,return,3.73329,4,0,4,0,1,,,,,,,,,,,,,,,,,,,,,,,,,,,,,,,,,,,,,,,,,,,,,,,,,,,,,,,,,,,,,,,,
,,,,,,,,,,1573985,2020-10-27_18h25.53.604,swahili,2020.2.4,MacIntel,60,,,,,,,,,,,,,,,,,,,,,,BLAME - LAWAMA,,,,,,,,,,return,18.867995,5,0,5,0,1,,,,,,,,,,,,,,,,,,,,,,,,,,,,,,,,,,,,,,,,,,,,,,,,,,,,,,,,,,,,,,,,
,,,,,,,,,,1573985,2020-10-27_18h25.53.604,swahili,2020.2.4,MacIntel,60,,,,,,,,,,,,,,,,,,,,,,BULL - FAHILI,,,,,,,,,,return,2.819585,6,0,6,0,1,,,,,,,,,,,,,,,,,,,,,,,,,,,,,,,,,,,,,,,,,,,,,,,,,,,,,,,,,,,,,,,,
,,,,,,,,,,1573985,2020-10-27_18h25.53.604,swahili,2020.2.4,MacIntel,60,,,,,,,,,,,,,,,,,,,,,,ORPHAN - YATIMA,,,,,,,,,,return,3.723655,7,0,7,0,1,,,,,,,,,,,,,,,,,,,,,,,,,,,,,,,,,,,,,,,,,,,,,,,,,,,,,,,,,,,,,,,,
,,,,,,,,,,1573985,2020-10-27_18h25.53.604,swahili,2020.2.4,MacIntel,60,,,,,,,,,,,,,,,,,,,,,,CORN - NAFAKA,,,,,,,,,,return,8.98634,8,0,8,0,1,,,,,,,,,,,,,,,,,,,,,,,,,,,,,,,,,,,,,,,,,,,,,,,,,,,,,,,,,,,,,,,,
,,,,,,,,,,1573985,2020-10-27_18h25.53.604,swahili,2020.2.4,MacIntel,60,,,,,,,,,,,,,,,,,,,,,,BOAT - MASHUA,,,,,,,,,,return,2.3288,9,0,9,0,1,,,,,,,,,,,,,,,,,,,,,,,,,,,,,,,,,,,,,,,,,,,,,,,,,,,,,,,,,,,,,,,,
,,,,,,,,,,1573985,2020-10-27_18h25.53.604,swahili,2020.2.4,MacIntel,60,,,,,,,,,,,,,,,,,,,,,,AGENT - WAKILI,,,,,,,,,,return,3.50263,10,0,10,0,1,,,,,,,,,,,,,,,,,,,,,,,,,,,,,,,,,,,,,,,,,,,,,,,,,,,,,,,,,,,,,,,,
,,,,,,,,,,1573985,2020-10-27_18h25.53.604,swahili,2020.2.4,MacIntel,60,,,,,,,,,,,,,,,,,,,,,,PARROT - KASUKU,,,,,,,,,,return,2.58509,11,0,11,0,1,,,,,,,,,,,,,,,,,,,,,,,,,,,,,,,,,,,,,,,,,,,,,,,,,,,,,,,,,,,,,,,,
,,,,,,,,,,1573985,2020-10-27_18h25.53.604,swahili,2020.2.4,MacIntel,60,,,,,,,,,,,,,,,,,,,,,,BRIBE - RUSHWA,,,,,,,,,,return,3.138985,12,0,12,0,1,,,,,,,,,,,,,,,,,,,,,,,,,,,,,,,,,,,,,,,,,,,,,,,,,,,,,,,,,,,,,,,,
,,,,,,,,,,1573985,2020-10-27_18h25.53.604,swahili,2020.2.4,MacIntel,60,,,,,,,,,,,,,,,,,,,,,,DIVORCE - TALAKA,,,,,,,,,,return,7.44429,13,0,13,0,1,,,,,,,,,,,,,,,,,,,,,,,,,,,,,,,,,,,,,,,,,,,,,,,,,,,,,,,,,,,,,,,,
,,,,,,,,,,1573985,2020-10-27_18h25.53.604,swahili,2020.2.4,MacIntel,60,,,,,,,,,,,,,,,,,,,,,,GRAVE - KABURI,,,,,,,,,,return,4.08236,14,0,14,0,1,,,,,,,,,,,,,,,,,,,,,,,,,,,,,,,,,,,,,,,,,,,,,,,,,,,,,,,,,,,,,,,,
,,,,,,,,,,1573985,2020-10-27_18h25.53.604,swahili,2020.2.4,MacIntel,60,,,,,,,,,,,,,,,,,,,,,,MANURE - SAMADI,,,,,,,,,,return,5.37251,15,0,15,0,1,,,,,,,,,,,,,,,,,,,,,,,,,,,,,,,,,,,,,,,,,,,,,,,,,,,,,,,,,,,,,,,,
,,,,,,,,,,1573985,2020-10-27_18h25.53.604,swahili,2020.2.4,MacIntel,60,,,,,,,,,,,,,,,,,,,,,,PLATE - SAHANI,,,,,,,,,,return,4.40305,16,0,16,0,1,,,,,,,,,,,,,,,,,,,,,,,,,,,,,,,,,,,,,,,,,,,,,,,,,,,,,,,,,,,,,,,,
,,,,,,,,,,1573985,2020-10-27_18h25.53.604,swahili,2020.2.4,MacIntel,60,,,,,,,,,,,,,,,,,,,,,,POEM - UTENZI,,,,,,,,,,return,3.903055,17,0,17,0,1,,,,,,,,,,,,,,,,,,,,,,,,,,,,,,,,,,,,,,,,,,,,,,,,,,,,,,,,,,,,,,,,
,,,,,,,,,,1573985,2020-10-27_18h25.53.604,swahili,2020.2.4,MacIntel,60,,,,,,,,,,,,,,,,,,,,,,CHEESE - JIBINI,,,,,,,,,,return,1.984555,18,0,18,0,1,,,,,,,,,,,,,,,,,,,,,,,,,,,,,,,,,,,,,,,,,,,,,,,,,,,,,,,,,,,,,,,,
,,,,,,,,,,1573985,2020-10-27_18h25.53.604,swahili,2020.2.4,MacIntel,60,,,,,,,,,,,,,,,,,,,,,,GRAPES - ZABIBU,,,,,,,,,,return,1.718875,19,0,19,0,1,,,,,,,,,,,,,,,,,,,,,,,,,,,,,,,,,,,,,,,,,,,,,,,,,,,,,,,,,,,,,,,,
,,,,,,,,,,1573985,2020-10-27_18h25.53.604,swahili,2020.2.4,MacIntel,60,,,,,,,,,,,,,,,,,,,,,,,,,,,,,,,,,,,,,,,,0,0,0,0,1,,,,,,,,,,,,,,,,,,,,,,,,,,,,,,,,,,,,,,,,,,,,,,,,,,,,,,,,,,
,,,,,,,,,,1573985,2020-10-27_18h25.53.604,swahili,2020.2.4,MacIntel,60,,,,,,,,,,,,,,,,,,,,,,,,,,,,,,,,,,,,,,,,1,0,1,0,1,,,,,,,,,,,,,,,,,,,,,,,,,,,,,,,,,,,,,,,,,,,,,,,,,,,,,,,,,,
,,,,,,,,,,1573985,2020-10-27_18h25.53.604,swahili,2020.2.4,MacIntel,60,,,,,,,,,,,,,,,,,,,,,,,,,,,,,,,,,,,,,,,,,,,,,0,0,0,0,1,,,,,,,,,,,,,,,,,,,,,,,,,,,,,,,,,,,,,,,,,,,,,,,,,,,,,
,,,,,,,,,,1573985,2020-10-27_18h25.53.604,swahili,2020.2.4,MacIntel,60,,,,,,,,,,-0.306103516,0.075416667,1,0,0,4.78617,unsorted_card,0,0,0,0,1,,,,,,,,,,,,,,,,,,,,,,,,,,,,,,,,,,,,,,,,,,,,,,,,,,,,,,,,,,,,,,,,,,,,,,,,,,,,,,,,,
,,,,,,,,,,1573985,2020-10-27_18h25.53.604,swahili,2020.2.4,MacIntel,60,,,,,,,,,,0.425672743,-0.049965278,1,0,0,12.37897,test_pile,1,0,1,0,1,MERCHANT - TAJIRI,,,,,,,,,,,,,,,,,,,,,,,,,,,,,,,,,,,,,,,,,,,,,,,,,,,,,,,,,,,,,,,,,,,,,,,,,,,,,,,,
,,,,,,,,,,1573985,2020-10-27_18h25.53.604,swahili,2020.2.4,MacIntel,60,,,,,,,,,,-0.3191352,-0.084010417,1,0,0,0.59737,unsorted_card,2,0,2,0,1,,,,,,,,,,,,,,,,,,,,,,,,,,,,,,,,,,,,,,,,,,,,,,,,,,,,,,,,,,,,,,,,,,,,,,,,,,,,,,,,,
,,,,,,,,,,1573985,2020-10-27_18h25.53.604,swahili,2020.2.4,MacIntel,60,,,,,,,,,,0.345328776,0.002630208,1,0,0,3.69806,test_pile,3,0,3,0,1,PARROT - KASUKU,,,,,,,,,,,,,,,,,,,,,,,,,,,,,,,,,,,,,,,,,,,,,,,,,,,,,,,,,,,,,,,,,,,,,,,,,,,,,,,,
,,,,,,,,,,1573985,2020-10-27_18h25.53.604,swahili,2020.2.4,MacIntel,60,,,,,,,,,,-0.180224609,-0.034557292,1,0,0,0.728835,unsorted_card,4,0,4,0,1,,,,,,,,,,,,,,,,,,,,,,,,,,,,,,,,,,,,,,,,,,,,,,,,,,,,,,,,,,,,,,,,,,,,,,,,,,,,,,,,,
,,,,,,,,,,1573985,2020-10-27_18h25.53.604,swahili,2020.2.4,MacIntel,60,,,,,,,,,,0.33977322,-0.010928819,1,0,0,1.218415,test_pile,5,0,5,0,1,BULL - FAHILI,,,,,,,,,,,,,,,,,,,,,,,,,,,,,,,,,,,,,,,,,,,,,,,,,,,,,,,,,,,,,,,,,,,,,,,,,,,,,,,,
,,,,,,,,,,1573985,2020-10-27_18h25.53.604,swahili,2020.2.4,MacIntel,60,,,,,,,,,,-0.181640625,-0.084939236,1,0,0,0.762225,unsorted_card,6,0,6,0,1,,,,,,,,,,,,,,,,,,,,,,,,,,,,,,,,,,,,,,,,,,,,,,,,,,,,,,,,,,,,,,,,,,,,,,,,,,,,,,,,,
,,,,,,,,,,1573985,2020-10-27_18h25.53.604,swahili,2020.2.4,MacIntel,60,,,,,,,,,,0.413937717,0.499487847,1,0,0,7.53496,study_pile,7,0,7,0,1,PLATE - SAHANI,,,,,,,,,,,,,,,,,,,,,,,,,,,,,,,,,,,,,,,,,,,,,,,,,,,,,,,,,,,,,,,,,,,,,,,,,,,,,,,,
,,,,,,,,,,1573985,2020-10-27_18h25.53.604,swahili,2020.2.4,MacIntel,60,,,,,,,,,,-0.158181424,-0.093107639,1,0,0,0.77708,unsorted_card,8,0,8,0,1,,,,,,,,,,,,,,,,,,,,,,,,,,,,,,,,,,,,,,,,,,,,,,,,,,,,,,,,,,,,,,,,,,,,,,,,,,,,,,,,,
,,,,,,,,,,1573985,2020-10-27_18h25.53.604,swahili,2020.2.4,MacIntel,60,,,,,,,,,,0.437022569,-0.056423611,1,0,0,1.64941,test_pile,9,0,9,0,1,YEAST - HAMIRA,,,,,,,,,,,,,,,,,,,,,,,,,,,,,,,,,,,,,,,,,,,,,,,,,,,,,,,,,,,,,,,,,,,,,,,,,,,,,,,,
,,,,,,,,,,1573985,2020-10-27_18h25.53.604,swahili,2020.2.4,MacIntel,60,,,,,,,,,,-0.242415365,-0.124809028,1,0,0,0.64891,unsorted_card,10,0,10,0,1,,,,,,,,,,,,,,,,,,,,,,,,,,,,,,,,,,,,,,,,,,,,,,,,,,,,,,,,,,,,,,,,,,,,,,,,,,,,,,,,,
,,,,,,,,,,1573985,2020-10-27_18h25.53.604,swahili,2020.2.4,MacIntel,60,,,,,,,,,,0.357866753,0.509704861,1,0,0,2.33283,study_pile,11,0,11,0,1,BLAME - LAWAMA,,,,,,,,,,,,,,,,,,,,,,,,,,,,,,,,,,,,,,,,,,,,,,,,,,,,,,,,,,,,,,,,,,,,,,,,,,,,,,,,
,,,,,,,,,,1573985,2020-10-27_18h25.53.604,swahili,2020.2.4,MacIntel,60,,,,,,,,,,-0.075287543,0.069704861,1,0,0,1.130195,unsorted_card,12,0,12,0,1,,,,,,,,,,,,,,,,,,,,,,,,,,,,,,,,,,,,,,,,,,,,,,,,,,,,,,,,,,,,,,,,,,,,,,,,,,,,,,,,,
,,,,,,,,,,1573985,2020-10-27_18h25.53.604,swahili,2020.2.4,MacIntel,60,,,,,,,,,,0.400694444,0.436640625,1,0,0,2.48221,study_pile,13,0,13,0,1,OATH - YAMINI,,,,,,,,,,,,,,,,,,,,,,,,,,,,,,,,,,,,,,,,,,,,,,,,,,,,,,,,,,,,,,,,,,,,,,,,,,,,,,,,
,,,,,,,,,,1573985,2020-10-27_18h25.53.604,swahili,2020.2.4,MacIntel,60,,,,,,,,,,-0.336610243,-0.007265625,1,0,0,0.633525,unsorted_card,14,0,14,0,1,,,,,,,,,,,,,,,,,,,,,,,,,,,,,,,,,,,,,,,,,,,,,,,,,,,,,,,,,,,,,,,,,,,,,,,,,,,,,,,,,
,,,,,,,,,,1573985,2020-10-27_18h25.53.604,swahili,2020.2.4,MacIntel,60,,,,,,,,,,0.439702691,0.007977431,1,0,0,3.98309,test_pile,15,0,15,0,1,CORN - NAFAKA,,,,,,,,,,,,,,,,,,,,,,,,,,,,,,,,,,,,,,,,,,,,,,,,,,,,,,,,,,,,,,,,,,,,,,,,,,,,,,,,
,,,,,,,,,,1573985,2020-10-27_18h25.53.604,swahili,2020.2.4,MacIntel,60,,,,,,,,,,-0.265435113,-0.109348958,1,0,0,0.930965,unsorted_card,16,0,16,0,1,,,,,,,,,,,,,,,,,,,,,,,,,,,,,,,,,,,,,,,,,,,,,,,,,,,,,,,,,,,,,,,,,,,,,,,,,,,,,,,,,
,,,,,,,,,,1573985,2020-10-27_18h25.53.604,swahili,2020.2.4,MacIntel,60,,,,,,,,,,0.433062066,0.063324653,1,0,0,9.181775,test_pile,17,0,17,0,1,POEM - UTENZI,,,,,,,,,,,,,,,,,,,,,,,,,,,,,,,,,,,,,,,,,,,,,,,,,,,,,,,,,,,,,,,,,,,,,,,,,,,,,,,,
,,,,,,,,,,1573985,2020-10-27_18h25.53.604,swahili,2020.2.4,MacIntel,60,,,,,,,,,,-0.273090278,-0.072942708,1,0,0,0.545365,unsorted_card,18,0,18,0,1,,,,,,,,,,,,,,,,,,,,,,,,,,,,,,,,,,,,,,,,,,,,,,,,,,,,,,,,,,,,,,,,,,,,,,,,,,,,,,,,,
,,,,,,,,,,1573985,2020-10-27_18h25.53.604,swahili,2020.2.4,MacIntel,60,,,,,,,,,,0.381396484,0.020720486,1,0,0,2.08193,test_pile,19,0,19,0,1,TAILOR - MSHONI,,,,,,,,,,,,,,,,,,,,,,,,,,,,,,,,,,,,,,,,,,,,,,,,,,,,,,,,,,,,,,,,,,,,,,,,,,,,,,,,
,,,,,,,,,,1573985,2020-10-27_18h25.53.604,swahili,2020.2.4,MacIntel,60,,,,,,,,,,-0.324039714,-0.078888889,1,0,0,0.8328,unsorted_card,20,0,20,0,1,,,,,,,,,,,,,,,,,,,,,,,,,,,,,,,,,,,,,,,,,,,,,,,,,,,,,,,,,,,,,,,,,,,,,,,,,,,,,,,,,
,,,,,,,,,,1573985,2020-10-27_18h25.53.604,swahili,2020.2.4,MacIntel,60,,,,,,,,,,0.407438151,-0.033758681,1,0,0,1.36896,test_pile,21,0,21,0,1,CHEESE - JIBINI,,,,,,,,,,,,,,,,,,,,,,,,,,,,,,,,,,,,,,,,,,,,,,,,,,,,,,,,,,,,,,,,,,,,,,,,,,,,,,,,
,,,,,,,,,,1573985,2020-10-27_18h25.53.604,swahili,2020.2.4,MacIntel,60,,,,,,,,,,-0.323361545,-0.103932292,1,0,0,0.602715,unsorted_card,22,0,22,0,1,,,,,,,,,,,,,,,,,,,,,,,,,,,,,,,,,,,,,,,,,,,,,,,,,,,,,,,,,,,,,,,,,,,,,,,,,,,,,,,,,
,,,,,,,,,,1573985,2020-10-27_18h25.53.604,swahili,2020.2.4,MacIntel,60,,,,,,,,,,0.356532118,-0.052977431,1,0,0,1.174335,test_pile,23,0,23,0,1,GRAPES - ZABIBU,,,,,,,,,,,,,,,,,,,,,,,,,,,,,,,,,,,,,,,,,,,,,,,,,,,,,,,,,,,,,,,,,,,,,,,,,,,,,,,,
,,,,,,,,,,1573985,2020-10-27_18h25.53.604,swahili,2020.2.4,MacIntel,60,,,,,,,,,,-0.327870009,-0.065920139,1,0,0,0.48371,unsorted_card,24,0,24,0,1,,,,,,,,,,,,,,,,,,,,,,,,,,,,,,,,,,,,,,,,,,,,,,,,,,,,,,,,,,,,,,,,,,,,,,,,,,,,,,,,,
,,,,,,,,,,1573985,2020-10-27_18h25.53.604,swahili,2020.2.4,MacIntel,60,,,,,,,,,,0.410986328,-0.017838542,1,0,0,1.247765,test_pile,25,0,25,0,1,GRAVE - KABURI,,,,,,,,,,,,,,,,,,,,,,,,,,,,,,,,,,,,,,,,,,,,,,,,,,,,,,,,,,,,,,,,,,,,,,,,,,,,,,,,
,,,,,,,,,,1573985,2020-10-27_18h25.53.604,swahili,2020.2.4,MacIntel,60,,,,,,,,,,-0.252007378,-0.061953125,1,0,0,0.86701,unsorted_card,26,0,26,0,1,,,,,,,,,,,,,,,,,,,,,,,,,,,,,,,,,,,,,,,,,,,,,,,,,,,,,,,,,,,,,,,,,,,,,,,,,,,,,,,,,
,,,,,,,,,,1573985,2020-10-27_18h25.53.604,swahili,2020.2.4,MacIntel,60,,,,,,,,,,0.378032769,0.459444444,1,0,0,1.296885,study_pile,27,0,27,0,1,MANURE - SAMADI,,,,,,,,,,,,,,,,,,,,,,,,,,,,,,,,,,,,,,,,,,,,,,,,,,,,,,,,,,,,,,,,,,,,,,,,,,,,,,,,
,,,,,,,,,,1573985,2020-10-27_18h25.53.604,swahili,2020.2.4,MacIntel,60,,,,,,,,,,-0.121050347,0.023211806,1,0,0,0.51437,unsorted_card,28,0,28,0,1,,,,,,,,,,,,,,,,,,,,,,,,,,,,,,,,,,,,,,,,,,,,,,,,,,,,,,,,,,,,,,,,,,,,,,,,,,,,,,,,,
,,,,,,,,,,1573985,2020-10-27_18h25.53.604,swahili,2020.2.4,MacIntel,60,,,,,,,,,,0.459315321,0.595295139,1,0,0,6.386365,study_pile,29,0,29,0,1,AGENT - WAKILI,,,,,,,,,,,,,,,,,,,,,,,,,,,,,,,,,,,,,,,,,,,,,,,,,,,,,,,,,,,,,,,,,,,,,,,,,,,,,,,,
,,,,,,,,,,1573985,2020-10-27_18h25.53.604,swahili,2020.2.4,MacIntel,60,,,,,,,,,,-0.194965278,0.039774306,1,0,0,0.750935,unsorted_card,30,0,30,0,1,,,,,,,,,,,,,,,,,,,,,,,,,,,,,,,,,,,,,,,,,,,,,,,,,,,,,,,,,,,,,,,,,,,,,,,,,,,,,,,,,
,,,,,,,,,,1573985,2020-10-27_18h25.53.604,swahili,2020.2.4,MacIntel,60,,,,,,,,,,0.429996745,-0.031102431,1,0,0,2.97859,test_pile,31,0,31,0,1,BRIBE - RUSHWA,,,,,,,,,,,,,,,,,,,,,,,,,,,,,,,,,,,,,,,,,,,,,,,,,,,,,,,,,,,,,,,,,,,,,,,,,,,,,,,,
,,,,,,,,,,1573985,2020-10-27_18h25.53.604,swahili,2020.2.4,MacIntel,60,,,,,,,,,,-0.410601128,0.051631944,1,0,0,0.61363,unsorted_card,32,0,32,0,1,,,,,,,,,,,,,,,,,,,,,,,,,,,,,,,,,,,,,,,,,,,,,,,,,,,,,,,,,,,,,,,,,,,,,,,,,,,,,,,,,
,,,,,,,,,,1573985,2020-10-27_18h25.53.604,swahili,2020.2.4,MacIntel,60,,,,,,,,,,0.376953125,0.465026042,1,0,0,1.21255,study_pile,33,0,33,0,1,ORPHAN - YATIMA,,,,,,,,,,,,,,,,,,,,,,,,,,,,,,,,,,,,,,,,,,,,,,,,,,,,,,,,,,,,,,,,,,,,,,,,,,,,,,,,
,,,,,,,,,,1573985,2020-10-27_18h25.53.604,swahili,2020.2.4,MacIntel,60,,,,,,,,,,-0.300721571,0.100217014,1,0,0,0.51891,unsorted_card,34,0,34,0,1,,,,,,,,,,,,,,,,,,,,,,,,,,,,,,,,,,,,,,,,,,,,,,,,,,,,,,,,,,,,,,,,,,,,,,,,,,,,,,,,,
,,,,,,,,,,1573985,2020-10-27_18h25.53.604,swahili,2020.2.4,MacIntel,60,,,,,,,,,,0.454844835,0.477751736,1,0,0,2.2492,study_pile,35,0,35,0,1,DIVORCE - TALAKA,,,,,,,,,,,,,,,,,,,,,,,,,,,,,,,,,,,,,,,,,,,,,,,,,,,,,,,,,,,,,,,,,,,,,,,,,,,,,,,,
,,,,,,,,,,1573985,2020-10-27_18h25.53.604,swahili,2020.2.4,MacIntel,60,,,,,,,,,,-0.213547092,0.0146875,1,0,0,0.46185,unsorted_card,36,0,36,0,1,,,,,,,,,,,,,,,,,,,,,,,,,,,,,,,,,,,,,,,,,,,,,,,,,,,,,,,,,,,,,,,,,,,,,,,,,,,,,,,,,
,,,,,,,,,,1573985,2020-10-27_18h25.53.604,swahili,2020.2.4,MacIntel,60,,,,,,,,,,0.452121311,-0.038289931,1,0,0,1.415745,test_pile,37,0,37,0,1,BOAT - MASHUA,,,,,,,,,,,,,,,,,,,,,,,,,,,,,,,,,,,,,,,,,,,,,,,,,,,,,,,,,,,,,,,,,,,,,,,,,,,,,,,,
,,,,,,,,,,1573985,2020-10-27_18h25.53.604,swahili,2020.2.4,MacIntel,60,,,,,,,,,,-0.397460938,-0.089401042,1,0,0,0.517715,unsorted_card,38,0,38,0,1,,,,,,,,,,,,,,,,,,,,,,,,,,,,,,,,,,,,,,,,,,,,,,,,,,,,,,,,,,,,,,,,,,,,,,,,,,,,,,,,,
,,,,,,,,,,1573985,2020-10-27_18h25.53.604,swahili,2020.2.4,MacIntel,60,,,,,,,,,,0.328293186,-0.017708333,1,0,0,1.862595,test_pile,39,0,39,0,1,TREASURE - DAFINA,,,,,,,,,,,,,,,,,,,,,,,,,,,,,,,,,,,,,,,,,,,,,,,,,,,,,,,,,,,,,,,,,,,,,,,,,,,,,,,,
,,,,,,,,,,1573985,2020-10-27_18h25.53.604,swahili,2020.2.4,MacIntel,60,,,,,,,,,,,,,,,,,,,,,,,0.286778429,-0.118107639,1,0,0,4.218145,test_first,,,,,0,0,0,0,1,,,,,,,,,,,,,,,,,,,,,,,,,,,,,,,,,,,,,,,,,,,,,,,,,,,,,,,,,,,,,,,,
,,,,,,,,,,1573985,2020-10-27_18h25.53.604,swahili,2020.2.4,MacIntel,60,,,,,,,,,,,,,,,,,,,,,,,,,,,,,,,,,,,,,,,return,,,,,,,,,,,5.572255,39.340815,0.380718316,0.038984375,1,0,0,2.43128,yes,BRIBE,NOTSURE,incorrect,0,0,0,0,1,,,,,,,,,,,,,,,,,,,,,,,,,,,,,,,,,,,,
,,,,,,,,,,1573985,2020-10-27_18h25.53.604,swahili,2020.2.4,MacIntel,60,,,,,,,,,,,,,,,,,,,,,,,,,,,,,,,,,,,,,,,,,,,,,,,,,,,9.900035,0.364827474,-0.127690972,1,0,0,0.61523,yes,CORN,FA,incorrect,1,0,1,0,1,,,,,,,,,,,,,,,,,,,,,,,,,,,,,,,,,,,,
,,,,,,,,,,1573985,2020-10-27_18h25.53.604,swahili,2020.2.4,MacIntel,60,,,,,,,,,,,,,,,,,,,,,,,,,,,,,,,,,,,,,,,,,,,,,,,,,,,4.580435,0.34742296,-0.085607639,1,0,0,0.98479,yes,PARROT,SU,incorrect,2,0,2,0,1,,,,,,,,,,,,,,,,,,,,,,,,,,,,,,,,,,,,
,,,,,,,,,,1573985,2020-10-27_18h25.53.604,swahili,2020.2.4,MacIntel,60,,,,,,,,,,,,,,,,,,,,,,,,,,,,,,,,,,,,,,,,,,,,,,,,,,,13.46415,0.378271484,-0.080451389,1,0,0,0.717215,yes,GRAPES,NOTSURE,incorrect,3,0,3,0,1,,,,,,,,,,,,,,,,,,,,,,,,,,,,,,,,,,,,
,,,,,,,,,,1573985,2020-10-27_18h25.53.604,swahili,2020.2.4,MacIntel,60,,,,,,,,,,,,,,,,,,,,,,,,,,,,,,,,,,,,,,,,,,,,,,,,,,,5.36674,0.489567057,0.065251736,1,0,0,0.63751,yes,POEM,UTENZI,incorrect,4,0,4,0,1,,,,,,,,,,,,,,,,,,,,,,,,,,,,,,,,,,,,
,,,,,,,,,,1573985,2020-10-27_18h25.53.604,swahili,2020.2.4,MacIntel,60,,,,,,,,,,,,,,,,,,,,,,,,,,,,,,,,,,,,,,,,,,,,,,,,,,,12.298305,0.404378255,-0.001267361,1,0,0,0.686525,yes,CHEESE,FAFI,incorrect,5,0,5,0,1,,,,,,,,,,,,,,,,,,,,,,,,,,,,,,,,,,,,
,,,,,,,,,,1573985,2020-10-27_18h25.53.604,swahili,2020.2.4,MacIntel,60,,,,,,,,,,,,,,,,,,,,,,,,,,,,,,,,,,,,,,,,,,,,,,,,,,,5.596685,0.523725043,0.097118056,1,0,0,0.53101,yes,TREASURE,DAMIKA,incorrect,6,0,6,0,1,,,,,,,,,,,,,,,,,,,,,,,,,,,,,,,,,,,,
,,,,,,,,,,1573985,2020-10-27_18h25.53.604,swahili,2020.2.4,MacIntel,60,,,,,,,,,,,,,,,,,,,,,,,,,,,,,,,,,,,,,,,,,,,,,,,,,,,13.664185,0.39968533,-0.00984375,1,0,0,0.683125,yes,TAILOR,NOTSURE,incorrect,7,0,7,0,1,,,,,,,,,,,,,,,,,,,,,,,,,,,,,,,,,,,,
,,,,,,,,,,1573985,2020-10-27_18h25.53.604,swahili,2020.2.4,MacIntel,60,,,,,,,,,,,,,,,,,,,,,,,,,,,,,,,,,,,,,,,,,,,,,,,,,,,7.764595,0.339322917,0.043585069,1,0,0,0.484455,yes,BULL,FAHI,incorrect,8,0,8,0,1,,,,,,,,,,,,,,,,,,,,,,,,,,,,,,,,,,,,
,,,,,,,,,,1573985,2020-10-27_18h25.53.604,swahili,2020.2.4,MacIntel,60,,,,,,,,,,,,,,,,,,,,,,,,,,,,,,,,,,,,,,,,,,,,,,,,,,,3.51697,0.340315755,0.005607639,1,0,0,0.534885,yes,YEAST,HAMIDA,incorrect,9,0,9,0,1,,,,,,,,,,,,,,,,,,,,,,,,,,,,,,,,,,,,
,,,,,,,,,,1573985,2020-10-27_18h25.53.604,swahili,2020.2.4,MacIntel,60,,,,,,,,,,,,,,,,,,,,,,,,,,,,,,,,,,,,,,,,,,,,,,,,,,,4.696275,0.503748915,-0.062378472,1,0,0,0.52181,yes,GRAVE,KABURI,incorrect,10,0,10,0,1,,,,,,,,,,,,,,,,,,,,,,,,,,,,,,,,,,,,
,,,,,,,,,,1573985,2020-10-27_18h25.53.604,swahili,2020.2.4,MacIntel,60,,,,,,,,,,,,,,,,,,,,,,,,,,,,,,,,,,,,,,,,,,,,,,,,,,,5.698895,0.45078125,0.111657986,1,0,0,0.481855,yes,BOAT,MASHUKA,incorrect,11,0,11,0,1,,,,,,,,,,,,,,,,,,,,,,,,,,,,,,,,,,,,
,,,,,,,,,,1573985,2020-10-27_18h25.53.604,swahili,2020.2.4,MacIntel,60,,,,,,,,,,,,,,,,,,,,,,,,,,,,,,,,,,,,,,,,,,,,,,,,,,,4.744485,0.316737196,-0.112083333,1,0,0,0.535835,yes,MERCHANT,F,incorrect,12,0,12,0,1,,,,,,,,,,,,,,,,,,,,,,,,,,,,,,,,,,,,
,,,,,,,,,,1573985,2020-10-27_18h25.53.604,swahili,2020.2.4,MacIntel,60,,,,,,,,,,,,,,,,,,,,,,,,,,,,,,,,,,,,,,,,0,0,0,0,1,,,,,,,,,,,,,,,,,,,,,,,,,,,,,,,,,,,,,,,,,,,,,,,,,,,,,,,,,,
,,,,,,,,,,1573985,2020-10-27_18h25.53.604,swahili,2020.2.4,MacIntel,60,,,,,,,,,,,,,,,,,,,,,,PLATE - SAHANI,,,,,,,,return,4.222665,return,5.30152,0,0,0,0,1,,,,,,,,,,,,,,,,,,,,,,,,,,,,,,,,,,,,,,,,,,,,,,,,,,,,,,,,,,,,,,,,
,,,,,,,,,,1573985,2020-10-27_18h25.53.604,swahili,2020.2.4,MacIntel,60,,,,,,,,,,,,,,,,,,,,,,AGENT - WAKILI,,,,,,,,,,return,7.854385,1,0,1,0,1,,,,,,,,,,,,,,,,,,,,,,,,,,,,,,,,,,,,,,,,,,,,,,,,,,,,,,,,,,,,,,,,
,,,,,,,,,,1573985,2020-10-27_18h25.53.604,swahili,2020.2.4,MacIntel,60,,,,,,,,,,,,,,,,,,,,,,DIVORCE - TALAKA,,,,,,,,,,return,5.619555,2,0,2,0,1,,,,,,,,,,,,,,,,,,,,,,,,,,,,,,,,,,,,,,,,,,,,,,,,,,,,,,,,,,,,,,,,
,,,,,,,,,,1573985,2020-10-27_18h25.53.604,swahili,2020.2.4,MacIntel,60,,,,,,,,,,,,,,,,,,,,,,MANURE - SAMADI,,,,,,,,,,return,5.67115,3,0,3,0,1,,,,,,,,,,,,,,,,,,,,,,,,,,,,,,,,,,,,,,,,,,,,,,,,,,,,,,,,,,,,,,,,
,,,,,,,,,,1573985,2020-10-27_18h25.53.604,swahili,2020.2.4,MacIntel,60,,,,,,,,,,,,,,,,,,,,,,BLAME - LAWAMA,,,,,,,,,,return,6.01695,4,0,4,0,1,,,,,,,,,,,,,,,,,,,,,,,,,,,,,,,,,,,,,,,,,,,,,,,,,,,,,,,,,,,,,,,,
,,,,,,,,,,1573985,2020-10-27_18h25.53.604,swahili,2020.2.4,MacIntel,60,,,,,,,,,,,,,,,,,,,,,,OATH - YAMINI,,,,,,,,,,return,2.336745,5,0,5,0,1,,,,,,,,,,,,,,,,,,,,,,,,,,,,,,,,,,,,,,,,,,,,,,,,,,,,,,,,,,,,,,,,
,,,,,,,,,,1573985,2020-10-27_18h25.53.604,swahili,2020.2.4,MacIntel,60,,,,,,,,,,,,,,,,,,,,,,ORPHAN - YATIMA,,,,,,,,,,return,3.13444,6,0,6,0,1,,,,,,,,,,,,,,,,,,,,,,,,,,,,,,,,,,,,,,,,,,,,,,,,,,,,,,,,,,,,,,,,
,,,,,,,,,,1573985,2020-10-27_18h25.53.604,swahili,2020.2.4,MacIntel,60,,,,,,,,,,,,,,,,,,,,,,,,,,,,,,,,,,,,,,,,1,0,1,0,1,,,,,,,,,,,,,,,,,,,,,,,,,,,,,,,,,,,,,,,,,,,,,,,,,,,,,,,,,,
,,,,,,,,,,1573985,2020-10-27_18h25.53.604,swahili,2020.2.4,MacIntel,60,,,,,,,,,,,,,,,,,,,,,,,,,,,,,,,,,,,,,,,,,,,,,1,0,1,0,1,,,,,,,,,,,,,,,,,,,,,,,,,,,,,,,,,,,,,,,,,,,,,,,,,,,,,
,,,,,,,,,,1573985,2020-10-27_18h25.53.604,swahili,2020.2.4,MacIntel,60,,,,,,,,,,-0.120057509,-0.184965278,1,0,0,1.222125,unsorted_card,0,0,0,0,1,,,,,,,,,,,,,,,,,,,,,,,,,,,,,,,,,,,,,,,,,,,,,,,,,,,,,,,,,,,,,,,,,,,,,,,,,,,,,,,,,
,,,,,,,,,,1573985,2020-10-27_18h25.53.604,swahili,2020.2.4,MacIntel,60,,,,,,,,,,0.380517578,0.029019097,1,0,0,1.848585,test_pile,1,0,1,0,1,MERCHANT - TAJIRI,,,,,,,,,,,,,,,,,,,,,,,,,,,,,,,,,,,,,,,,,,,,,,,,,,,,,,,,,,,,,,,,,,,,,,,,,,,,,,,,
,,,,,,,,,,1573985,2020-10-27_18h25.53.604,swahili,2020.2.4,MacIntel,60,,,,,,,,,,-0.369802517,-0.094722222,1,0,0,0.46206,unsorted_card,2,0,2,0,1,,,,,,,,,,,,,,,,,,,,,,,,,,,,,,,,,,,,,,,,,,,,,,,,,,,,,,,,,,,,,,,,,,,,,,,,,,,,,,,,,
,,,,,,,,,,1573985,2020-10-27_18h25.53.604,swahili,2020.2.4,MacIntel,60,,,,,,,,,,0.457606337,-0.051397569,1,0,0,2.14492,test_pile,3,0,3,0,1,PARROT - KASUKU,,,,,,,,,,,,,,,,,,,,,,,,,,,,,,,,,,,,,,,,,,,,,,,,,,,,,,,,,,,,,,,,,,,,,,,,,,,,,,,,
,,,,,,,,,,1573985,2020-10-27_18h25.53.604,swahili,2020.2.4,MacIntel,60,,,,,,,,,,-0.470274523,-0.066875,1,0,0,0.66659,unsorted_card,4,0,4,0,1,,,,,,,,,,,,,,,,,,,,,,,,,,,,,,,,,,,,,,,,,,,,,,,,,,,,,,,,,,,,,,,,,,,,,,,,,,,,,,,,,
,,,,,,,,,,1573985,2020-10-27_18h25.53.604,swahili,2020.2.4,MacIntel,60,,,,,,,,,,0.33171658,-0.035659722,1,0,0,2.54712,test_pile,5,0,5,0,1,BULL - FAHILI,,,,,,,,,,,,,,,,,,,,,,,,,,,,,,,,,,,,,,,,,,,,,,,,,,,,,,,,,,,,,,,,,,,,,,,,,,,,,,,,
,,,,,,,,,,1573985,2020-10-27_18h25.53.604,swahili,2020.2.4,MacIntel,60,,,,,,,,,,-0.355121528,-0.001701389,1,0,0,0.785805,unsorted_card,6,0,6,0,1,,,,,,,,,,,,,,,,,,,,,,,,,,,,,,,,,,,,,,,,,,,,,,,,,,,,,,,,,,,,,,,,,,,,,,,,,,,,,,,,,
,,,,,,,,,,1573985,2020-10-27_18h25.53.604,swahili,2020.2.4,MacIntel,60,,,,,,,,,,0.369059245,-0.02515625,1,0,0,4.282085,test_pile,7,0,7,0,1,PLATE - SAHANI,,,,,,,,,,,,,,,,,,,,,,,,,,,,,,,,,,,,,,,,,,,,,,,,,,,,,,,,,,,,,,,,,,,,,,,,,,,,,,,,
,,,,,,,,,,1573985,2020-10-27_18h25.53.604,swahili,2020.2.4,MacIntel,60,,,,,,,,,,-0.357986111,-0.144782986,1,0,0,0.66333,unsorted_card,8,0,8,0,1,,,,,,,,,,,,,,,,,,,,,,,,,,,,,,,,,,,,,,,,,,,,,,,,,,,,,,,,,,,,,,,,,,,,,,,,,,,,,,,,,
,,,,,,,,,,1573985,2020-10-27_18h25.53.604,swahili,2020.2.4,MacIntel,60,,,,,,,,,,0.424669054,-0.053949653,1,0,0,13.863135,test_pile,9,0,9,0,1,YEAST - HAMIRA,,,,,,,,,,,,,,,,,,,,,,,,,,,,,,,,,,,,,,,,,,,,,,,,,,,,,,,,,,,,,,,,,,,,,,,,,,,,,,,,
,,,,,,,,,,1573985,2020-10-27_18h25.53.604,swahili,2020.2.4,MacIntel,60,,,,,,,,,,-0.304492188,-0.086588542,1,0,0,0.88341,unsorted_card,10,0,10,0,1,,,,,,,,,,,,,,,,,,,,,,,,,,,,,,,,,,,,,,,,,,,,,,,,,,,,,,,,,,,,,,,,,,,,,,,,,,,,,,,,,
,,,,,,,,,,1573985,2020-10-27_18h25.53.604,swahili,2020.2.4,MacIntel,60,,,,,,,,,,0.414002821,-0.056857639,1,0,0,2.4675,test_pile,11,0,11,0,1,BLAME - LAWAMA,,,,,,,,,,,,,,,,,,,,,,,,,,,,,,,,,,,,,,,,,,,,,,,,,,,,,,,,,,,,,,,,,,,,,,,,,,,,,,,,
,,,,,,,,,,1573985,2020-10-27_18h25.53.604,swahili,2020.2.4,MacIntel,60,,,,,,,,,,-0.416585286,-0.062682292,1,0,0,0.446595,unsorted_card,12,0,12,0,1,,,,,,,,,,,,,,,,,,,,,,,,,,,,,,,,,,,,,,,,,,,,,,,,,,,,,,,,,,,,,,,,,,,,,,,,,,,,,,,,,
,,,,,,,,,,1573985,2020-10-27_18h25.53.604,swahili,2020.2.4,MacIntel,60,,,,,,,,,,0.428738064,-0.020859375,1,0,0,3.599665,test_pile,13,0,13,0,1,OATH - YAMINI,,,,,,,,,,,,,,,,,,,,,,,,,,,,,,,,,,,,,,,,,,,,,,,,,,,,,,,,,,,,,,,,,,,,,,,,,,,,,,,,
,,,,,,,,,,1573985,2020-10-27_18h25.53.604,swahili,2020.2.4,MacIntel,60,,,,,,,,,,-0.431722005,-0.007118056,1,0,0,0.53315,unsorted_card,14,0,14,0,1,,,,,,,,,,,,,,,,,,,,,,,,,,,,,,,,,,,,,,,,,,,,,,,,,,,,,,,,,,,,,,,,,,,,,,,,,,,,,,,,,
,,,,,,,,,,1573985,2020-10-27_18h25.53.604,swahili,2020.2.4,MacIntel,60,,,,,,,,,,0.439181858,-0.048854167,1,0,0,7.1483,test_pile,15,0,15,0,1,CORN - NAFAKA,,,,,,,,,,,,,,,,,,,,,,,,,,,,,,,,,,,,,,,,,,,,,,,,,,,,,,,,,,,,,,,,,,,,,,,,,,,,,,,,
,,,,,,,,,,1573985,2020-10-27_18h25.53.604,swahili,2020.2.4,MacIntel,60,,,,,,,,,,-0.236593967,0.044201389,1,0,0,0.544375,unsorted_card,16,0,16,0,1,,,,,,,,,,,,,,,,,,,,,,,,,,,,,,,,,,,,,,,,,,,,,,,,,,,,,,,,,,,,,,,,,,,,,,,,,,,,,,,,,
,,,,,,,,,,1573985,2020-10-27_18h25.53.604,swahili,2020.2.4,MacIntel,60,,,,,,,,,,0.484488932,-0.036440972,1,0,0,1.432865,test_pile,17,0,17,0,1,POEM - UTENZI,,,,,,,,,,,,,,,,,,,,,,,,,,,,,,,,,,,,,,,,,,,,,,,,,,,,,,,,,,,,,,,,,,,,,,,,,,,,,,,,
,,,,,,,,,,1573985,2020-10-27_18h25.53.604,swahili,2020.2.4,MacIntel,60,,,,,,,,,,-0.333767361,0.011128472,1,0,0,0.59993,unsorted_card,18,0,18,0,1,,,,,,,,,,,,,,,,,,,,,,,,,,,,,,,,,,,,,,,,,,,,,,,,,,,,,,,,,,,,,,,,,,,,,,,,,,,,,,,,,
,,,,,,,,,,1573985,2020-10-27_18h25.53.604,swahili,2020.2.4,MacIntel,60,,,,,,,,,,0.444992405,0.016510417,1,0,0,2.401455,test_pile,19,0,19,0,1,TAILOR - MSHONI,,,,,,,,,,,,,,,,,,,,,,,,,,,,,,,,,,,,,,,,,,,,,,,,,,,,,,,,,,,,,,,,,,,,,,,,,,,,,,,,
,,,,,,,,,,1573985,2020-10-27_18h25.53.604,swahili,2020.2.4,MacIntel,60,,,,,,,,,,-0.258501519,-0.018324653,1,0,0,0.564165,unsorted_card,20,0,20,0,1,,,,,,,,,,,,,,,,,,,,,,,,,,,,,,,,,,,,,,,,,,,,,,,,,,,,,,,,,,,,,,,,,,,,,,,,,,,,,,,,,
,,,,,,,,,,1573985,2020-10-27_18h25.53.604,swahili,2020.2.4,MacIntel,60,,,,,,,,,,0.338205295,-0.030711806,1,0,0,2.865115,test_pile,21,0,21,0,1,CHEESE - JIBINI,,,,,,,,,,,,,,,,,,,,,,,,,,,,,,,,,,,,,,,,,,,,,,,,,,,,,,,,,,,,,,,,,,,,,,,,,,,,,,,,
,,,,,,,,,,1573985,2020-10-27_18h25.53.604,swahili,2020.2.4,MacIntel,60,,,,,,,,,,-0.324631076,-0.03828125,1,0,0,0.531255,unsorted_card,22,0,22,0,1,,,,,,,,,,,,,,,,,,,,,,,,,,,,,,,,,,,,,,,,,,,,,,,,,,,,,,,,,,,,,,,,,,,,,,,,,,,,,,,,,
,,,,,,,,,,1573985,2020-10-27_18h25.53.604,swahili,2020.2.4,MacIntel,60,,,,,,,,,,0.531445313,-0.135763889,1,0,0,2.36682,test_pile,23,0,23,0,1,GRAPES - ZABIBU,,,,,,,,,,,,,,,,,,,,,,,,,,,,,,,,,,,,,,,,,,,,,,,,,,,,,,,,,,,,,,,,,,,,,,,,,,,,,,,,
,,,,,,,,,,1573985,2020-10-27_18h25.53.604,swahili,2020.2.4,MacIntel,60,,,,,,,,,,-0.197873264,-0.108368056,1,0,0,0.577845,unsorted_card,24,0,24,0,1,,,,,,,,,,,,,,,,,,,,,,,,,,,,,,,,,,,,,,,,,,,,,,,,,,,,,,,,,,,,,,,,,,,,,,,,,,,,,,,,,
,,,,,,,,,,1573985,2020-10-27_18h25.53.604,swahili,2020.2.4,MacIntel,60,,,,,,,,,,0.381955295,-0.050338542,1,0,0,2.381915,test_pile,25,0,25,0,1,GRAVE - KABURI,,,,,,,,,,,,,,,,,,,,,,,,,,,,,,,,,,,,,,,,,,,,,,,,,,,,,,,,,,,,,,,,,,,,,,,,,,,,,,,,
,,,,,,,,,,1573985,2020-10-27_18h25.53.604,swahili,2020.2.4,MacIntel,60,,,,,,,,,,-0.432872179,0.000833333,1,0,0,0.46368,unsorted_card,26,0,26,0,1,,,,,,,,,,,,,,,,,,,,,,,,,,,,,,,,,,,,,,,,,,,,,,,,,,,,,,,,,,,,,,,,,,,,,,,,,,,,,,,,,
,,,,,,,,,,1573985,2020-10-27_18h25.53.604,swahili,2020.2.4,MacIntel,60,,,,,,,,,,0.471739366,0.020868056,1,0,0,5.73602,test_pile,27,0,27,0,1,MANURE - SAMADI,,,,,,,,,,,,,,,,,,,,,,,,,,,,,,,,,,,,,,,,,,,,,,,,,,,,,,,,,,,,,,,,,,,,,,,,,,,,,,,,
,,,,,,,,,,1573985,2020-10-27_18h25.53.604,swahili,2020.2.4,MacIntel,60,,,,,,,,,,-0.23374566,-0.057630208,1,0,0,0.53022,unsorted_card,28,0,28,0,1,,,,,,,,,,,,,,,,,,,,,,,,,,,,,,,,,,,,,,,,,,,,,,,,,,,,,,,,,,,,,,,,,,,,,,,,,,,,,,,,,
,,,,,,,,,,1573985,2020-10-27_18h25.53.604,swahili,2020.2.4,MacIntel,60,,,,,,,,,,0.339670139,-0.048993056,1,0,0,4.37924,test_pile,29,0,29,0,1,AGENT - WAKILI,,,,,,,,,,,,,,,,,,,,,,,,,,,,,,,,,,,,,,,,,,,,,,,,,,,,,,,,,,,,,,,,,,,,,,,,,,,,,,,,
,,,,,,,,,,1573985,2020-10-27_18h25.53.604,swahili,2020.2.4,MacIntel,60,,,,,,,,,,-0.379041884,-0.100737847,1,0,0,0.5142,unsorted_card,30,0,30,0,1,,,,,,,,,,,,,,,,,,,,,,,,,,,,,,,,,,,,,,,,,,,,,,,,,,,,,,,,,,,,,,,,,,,,,,,,,,,,,,,,,
,,,,,,,,,,1573985,2020-10-27_18h25.53.604,swahili,2020.2.4,MacIntel,60,,,,,,,,,,0.381732856,0.022335069,1,0,0,2.16477,test_pile,31,0,31,0,1,BRIBE - RUSHWA,,,,,,,,,,,,,,,,,,,,,,,,,,,,,,,,,,,,,,,,,,,,,,,,,,,,,,,,,,,,,,,,,,,,,,,,,,,,,,,,
,,,,,,,,,,1573985,2020-10-27_18h25.53.604,swahili,2020.2.4,MacIntel,60,,,,,,,,,,-0.262760417,-0.046840278,1,0,0,0.535485,unsorted_card,32,0,32,0,1,,,,,,,,,,,,,,,,,,,,,,,,,,,,,,,,,,,,,,,,,,,,,,,,,,,,,,,,,,,,,,,,,,,,,,,,,,,,,,,,,
,,,,,,,,,,1573985,2020-10-27_18h25.53.604,swahili,2020.2.4,MacIntel,60,,,,,,,,,,0.330761719,-0.005416667,1,0,0,3.16319,test_pile,33,0,33,0,1,ORPHAN - YATIMA,,,,,,,,,,,,,,,,,,,,,,,,,,,,,,,,,,,,,,,,,,,,,,,,,,,,,,,,,,,,,,,,,,,,,,,,,,,,,,,,
,,,,,,,,,,1573985,2020-10-27_18h25.53.604,swahili,2020.2.4,MacIntel,60,,,,,,,,,,-0.337402344,0.002178819,1,0,0,0.500155,unsorted_card,34,0,34,0,1,,,,,,,,,,,,,,,,,,,,,,,,,,,,,,,,,,,,,,,,,,,,,,,,,,,,,,,,,,,,,,,,,,,,,,,,,,,,,,,,,
,,,,,,,,,,1573985,2020-10-27_18h25.53.604,swahili,2020.2.4,MacIntel,60,,,,,,,,,,0.383230252,-0.031675347,1,0,0,4.54714,test_pile,35,0,35,0,1,DIVORCE - TALAKA,,,,,,,,,,,,,,,,,,,,,,,,,,,,,,,,,,,,,,,,,,,,,,,,,,,,,,,,,,,,,,,,,,,,,,,,,,,,,,,,
,,,,,,,,,,1573985,2020-10-27_18h25.53.604,swahili,2020.2.4,MacIntel,60,,,,,,,,,,-0.364556207,-0.110572917,1,0,0,0.58169,unsorted_card,36,0,36,0,1,,,,,,,,,,,,,,,,,,,,,,,,,,,,,,,,,,,,,,,,,,,,,,,,,,,,,,,,,,,,,,,,,,,,,,,,,,,,,,,,,
,,,,,,,,,,1573985,2020-10-27_18h25.53.604,swahili,2020.2.4,MacIntel,60,,,,,,,,,,0.347450087,0.029366319,1,0,0,2.117535,test_pile,37,0,37,0,1,BOAT - MASHUA,,,,,,,,,,,,,,,,,,,,,,,,,,,,,,,,,,,,,,,,,,,,,,,,,,,,,,,,,,,,,,,,,,,,,,,,,,,,,,,,
,,,,,,,,,,1573985,2020-10-27_18h25.53.604,swahili,2020.2.4,MacIntel,60,,,,,,,,,,-0.285378689,-0.044609375,1,0,0,0.49804,unsorted_card,38,0,38,0,1,,,,,,,,,,,,,,,,,,,,,,,,,,,,,,,,,,,,,,,,,,,,,,,,,,,,,,,,,,,,,,,,,,,,,,,,,,,,,,,,,
,,,,,,,,,,1573985,2020-10-27_18h25.53.604,swahili,2020.2.4,MacIntel,60,,,,,,,,,,0.411295573,-0.024427083,1,0,0,2.9632,test_pile,39,0,39,0,1,TREASURE - DAFINA,,,,,,,,,,,,,,,,,,,,,,,,,,,,,,,,,,,,,,,,,,,,,,,,,,,,,,,,,,,,,,,,,,,,,,,,,,,,,,,,
,,,,,,,,,,1573985,2020-10-27_18h25.53.604,swahili,2020.2.4,MacIntel,60,,,,,,,,,,,,,,,,,,,,,,,,,,,,,,,,,,0,0,0,0,1,,,,,,,,,,,,,,,,,,,,,,,,,,,,,,,,,,,,,,,,,,,,,,,,,,,,,,,,,,,,,,,,
,,,,,,,,,,1573985,2020-10-27_18h25.53.604,swahili,2020.2.4,MacIntel,60,,,,,,,,,,,,,,,,,,,,,,,,,,,,,,,,,,,,,,,return,,,,,,,,,,,2.21015,4.249185,0.310026042,-0.151032986,1,0,0,0.749095,yes,YEAST,HAMIRA,incorrect,0,0,0,0,1,,,,,,,,,,,,,,,,,,,,,,,,,,,,,,,,,,,,
,,,,,,,,,,1573985,2020-10-27_18h25.53.604,swahili,2020.2.4,MacIntel,60,,,,,,,,,,,,,,,,,,,,,,,,,,,,,,,,,,,,,,,,,,,,,,,,,,,4.36041,0.381846788,-0.106189236,1,0,0,0.667805,yes,POEM,UTENZI,incorrect,1,0,1,0,1,,,,,,,,,,,,,,,,,,,,,,,,,,,,,,,,,,,,
,,,,,,,,,,1573985,2020-10-27_18h25.53.604,swahili,2020.2.4,MacIntel,60,,,,,,,,,,,,,,,,,,,,,,,,,,,,,,,,,,,,,,,,,,,,,,,,,,,8.29993,0.498187934,0.071753472,1,0,0,0.53282,yes,PLATE,SAMALA,incorrect,2,0,2,0,1,,,,,,,,,,,,,,,,,,,,,,,,,,,,,,,,,,,,
,,,,,,,,,,1573985,2020-10-27_18h25.53.604,swahili,2020.2.4,MacIntel,60,,,,,,,,,,,,,,,,,,,,,,,,,,,,,,,,,,,,,,,,,,,,,,,,,,,8.134025,0.291097005,-0.054895833,1,0,0,0.699615,yes,OATH,W,incorrect,3,0,3,0,1,,,,,,,,,,,,,,,,,,,,,,,,,,,,,,,,,,,,
,,,,,,,,,,1573985,2020-10-27_18h25.53.604,swahili,2020.2.4,MacIntel,60,,,,,,,,,,,,,,,,,,,,,,,,,,,,,,,,,,,,,,,,,,,,,,,,,,,13.89497,0.492746311,0.087699653,1,0,0,0.551705,yes,BULL,FAHALA,incorrect,4,0,4,0,1,,,,,,,,,,,,,,,,,,,,,,,,,,,,,,,,,,,,
,,,,,,,,,,1573985,2020-10-27_18h25.53.604,swahili,2020.2.4,MacIntel,60,,,,,,,,,,,,,,,,,,,,,,,,,,,,,,,,,,,,,,,,,,,,,,,,,,,8.31417,0.370166016,-0.079748264,1,0,0,0.51692,yes,MANURE,SAMUKA,incorrect,5,0,5,0,1,,,,,,,,,,,,,,,,,,,,,,,,,,,,,,,,,,,,
,,,,,,,,,,1573985,2020-10-27_18h25.53.604,swahili,2020.2.4,MacIntel,60,,,,,,,,,,,,,,,,,,,,,,,,,,,,,,,,,,,,,,,,,,,,,,,,,,,10.96577,0.462407769,-0.000842014,1,0,0,0.56678,yes,AGENT,SAMA,incorrect,6,0,6,0,1,,,,,,,,,,,,,,,,,,,,,,,,,,,,,,,,,,,,
,,,,,,,,,,1573985,2020-10-27_18h25.53.604,swahili,2020.2.4,MacIntel,60,,,,,,,,,,,,,,,,,,,,,,,,,,,,,,,,,,,,,,,,,,,,,,,,,,,6.978175,0.29468316,-0.189010417,1,0,0,0.516255,yes,BOAT,MASHUA,incorrect,7,0,7,0,1,,,,,,,,,,,,,,,,,,,,,,,,,,,,,,,,,,,,
,,,,,,,,,,1573985,2020-10-27_18h25.53.604,swahili,2020.2.4,MacIntel,60,,,,,,,,,,,,,,,,,,,,,,,,,,,,,,,,,,,,,,,,,,,,,,,,,,,17.783205,0.440337457,-0.128984375,1,0,0,0.551205,yes,GRAPES,KABIBI,incorrect,8,0,8,0,1,,,,,,,,,,,,,,,,,,,,,,,,,,,,,,,,,,,,
,,,,,,,,,,1573985,2020-10-27_18h25.53.604,swahili,2020.2.4,MacIntel,60,,,,,,,,,,,,,,,,,,,,,,,,,,,,,,,,,,,,,,,,,,,,,,,,,,,10.847765,0.328374566,-0.03609375,1,0,0,0.48507,yes,MERCHANT,JI,incorrect,9,0,9,0,1,,,,,,,,,,,,,,,,,,,,,,,,,,,,,,,,,,,,
,,,,,,,,,,1573985,2020-10-27_18h25.53.604,swahili,2020.2.4,MacIntel,60,,,,,,,,,,,,,,,,,,,,,,,,,,,,,,,,,,,,,,,,,,,,,,,,,,,7.502255,0.509011502,-0.008376736,1,0,0,0.54586,yes,BRIBE,WAMA,incorrect,10,0,10,0,1,,,,,,,,,,,,,,,,,,,,,,,,,,,,,,,,,,,,
,,,,,,,,,,1573985,2020-10-27_18h25.53.604,swahili,2020.2.4,MacIntel,60,,,,,,,,,,,,,,,,,,,,,,,,,,,,,,,,,,,,,,,,,,,,,,,,,,,13.21082,0.48343099,0.123142361,1,0,0,0.567355,yes,PARROT,KASU,incorrect,11,0,11,0,1,,,,,,,,,,,,,,,,,,,,,,,,,,,,,,,,,,,,
,,,,,,,,,,1573985,2020-10-27_18h25.53.604,swahili,2020.2.4,MacIntel,60,,,,,,,,,,,,,,,,,,,,,,,,,,,,,,,,,,,,,,,,,,,,,,,,,,,4.49982,0.584814453,0.020460069,1,0,0,0.56714,yes,CORN,FAMALA,incorrect,12,0,12,0,1,,,,,,,,,,,,,,,,,,,,,,,,,,,,,,,,,,,,
,,,,,,,,,,1573985,2020-10-27_18h25.53.604,swahili,2020.2.4,MacIntel,60,,,,,,,,,,,,,,,,,,,,,,,,,,,,,,,,,,,,,,,,,,,,,,,,,,,32.84913,0.36507704,-0.086432292,1,0,0,0.551835,yes,TAILOR,MISON,incorrect,13,0,13,0,1,,,,,,,,,,,,,,,,,,,,,,,,,,,,,,,,,,,,
,,,,,,,,,,1573985,2020-10-27_18h25.53.604,swahili,2020.2.4,MacIntel,60,,,,,,,,,,,,,,,,,,,,,,,,,,,,,,,,,,,,,,,,,,,,,,,,,,,7.09754,0.421202257,-0.003888889,1,0,0,0.618135,yes,ORPHAN,NOTSURE,incorrect,14,0,14,0,1,,,,,,,,,,,,,,,,,,,,,,,,,,,,,,,,,,,,
,,,,,,,,,,1573985,2020-10-27_18h25.53.604,swahili,2020.2.4,MacIntel,60,,,,,,,,,,,,,,,,,,,,,,,,,,,,,,,,,,,,,,,,,,,,,,,,,,,5.215365,0.320057509,0.050677083,1,0,0,0.487065,yes,DIVORCE,WAMA,incorrect,15,0,15,0,1,,,,,,,,,,,,,,,,,,,,,,,,,,,,,,,,,,,,
,,,,,,,,,,1573985,2020-10-27_18h25.53.604,swahili,2020.2.4,MacIntel,60,,,,,,,,,,,,,,,,,,,,,,,,,,,,,,,,,,,,,,,,,,,,,,,,,,,4.131205,0.54313151,-0.003637153,1,0,0,0.488235,yes,GRAVE,KABURI,incorrect,16,0,16,0,1,,,,,,,,,,,,,,,,,,,,,,,,,,,,,,,,,,,,
,,,,,,,,,,1573985,2020-10-27_18h25.53.604,swahili,2020.2.4,MacIntel,60,,,,,,,,,,,,,,,,,,,,,,,,,,,,,,,,,,,,,,,,,,,,,,,,,,,5.381635,0.398193359,-0.004079861,1,0,0,0.483885,yes,CHEESE,FAJILI,incorrect,17,0,17,0,1,,,,,,,,,,,,,,,,,,,,,,,,,,,,,,,,,,,,
,,,,,,,,,,1573985,2020-10-27_18h25.53.604,swahili,2020.2.4,MacIntel,60,,,,,,,,,,,,,,,,,,,,,,,,,,,,,,,,,,,,,,,,,,,,,,,,,,,6.048785,0.357839627,0.04421875,1,0,0,0.45117,yes,TREASURE,DAMIKA,incorrect,18,0,18,0,1,,,,,,,,,,,,,,,,,,,,,,,,,,,,,,,,,,,,
,,,,,,,,,,1573985,2020-10-27_18h25.53.604,swahili,2020.2.4,MacIntel,60,,,,,,,,,,,,,,,,,,,,,,,,,,,,,,,,,,,,,,,,,,,,,,,,,,,10.6928,0.49210612,0.050225694,1,0,0,0.551355,yes,BLAME,NOTSURE,incorrect,19,0,19,0,1,,,,,,,,,,,,,,,,,,,,,,,,,,,,,,,,,,,,
,,,,,,,,,,1573985,2020-10-27_18h25.53.604,swahili,2020.2.4,MacIntel,60,,,,,,,,,,,,,,,,,,,,,,,,,,,,,,,,,,,,,,,,0,0,0,0,1,,,,,,,,,,,,,,,,,,,,,,,,,,,,,,,,,,,,,,,,,,,,,,,,,,,,,,,,,,
,,,,,,,,,,1573985,2020-10-27_18h25.53.604,swahili,2020.2.4,MacIntel,60,,,,,,,,,,,,,,,,,,,,,,,,,,,,,,,,,,,,,,,,1,0,1,0,1,,,,,,,,,,,,,,,,,,,,,,,,,,,,,,,,,,,,,,,,,,,,,,,,,,,,,,,,,,
,,,,,,,,,,1573985,2020-10-27_18h25.53.604,swahili,2020.2.4,MacIntel,60,,,,,,,,,,,,,,,,,,,,,,,,,,,,,,,,,,,,,,,,,,,,,2,0,2,0,1,,,,,,,,,,,,,,,,,,,,,,,,,,,,,,,,,,,,,,,,,,,,,,,,,,,,,
,,,,,,,,,,1573985,2020-10-27_18h25.53.604,swahili,2020.2.4,MacIntel,60,,,,,,,,,,-0.362901476,-0.034835069,1,0,0,1.502025,unsorted_card,0,0,0,0,1,,,,,,,,,,,,,,,,,,,,,,,,,,,,,,,,,,,,,,,,,,,,,,,,,,,,,,,,,,,,,,,,,,,,,,,,,,,,,,,,,
,,,,,,,,,,1573985,2020-10-27_18h25.53.604,swahili,2020.2.4,MacIntel,60,,,,,,,,,,0.512760417,0.538576389,1,0,0,1.631765,study_pile,1,0,1,0,1,MERCHANT - TAJIRI,,,,,,,,,,,,,,,,,,,,,,,,,,,,,,,,,,,,,,,,,,,,,,,,,,,,,,,,,,,,,,,,,,,,,,,,,,,,,,,,
,,,,,,,,,,1573985,2020-10-27_18h25.53.604,swahili,2020.2.4,MacIntel,60,,,,,,,,,,-0.220648872,0.027092014,1,0,0,0.517845,unsorted_card,2,0,2,0,1,,,,,,,,,,,,,,,,,,,,,,,,,,,,,,,,,,,,,,,,,,,,,,,,,,,,,,,,,,,,,,,,,,,,,,,,,,,,,,,,,
,,,,,,,,,,1573985,2020-10-27_18h25.53.604,swahili,2020.2.4,MacIntel,60,,,,,,,,,,0.37350803,-0.059592014,1,0,0,1.793645,test_pile,3,0,3,0,1,PARROT - KASUKU,,,,,,,,,,,,,,,,,,,,,,,,,,,,,,,,,,,,,,,,,,,,,,,,,,,,,,,,,,,,,,,,,,,,,,,,,,,,,,,,
,,,,,,,,,,1573985,2020-10-27_18h25.53.604,swahili,2020.2.4,MacIntel,60,,,,,,,,,,-0.415489366,-0.030034722,1,0,0,0.480845,unsorted_card,4,0,4,0,1,,,,,,,,,,,,,,,,,,,,,,,,,,,,,,,,,,,,,,,,,,,,,,,,,,,,,,,,,,,,,,,,,,,,,,,,,,,,,,,,,
,,,,,,,,,,1573985,2020-10-27_18h25.53.604,swahili,2020.2.4,MacIntel,60,,,,,,,,,,0.347916667,0.008151042,1,0,0,1.083995,test_pile,5,0,5,0,1,BULL - FAHILI,,,,,,,,,,,,,,,,,,,,,,,,,,,,,,,,,,,,,,,,,,,,,,,,,,,,,,,,,,,,,,,,,,,,,,,,,,,,,,,,
,,,,,,,,,,1573985,2020-10-27_18h25.53.604,swahili,2020.2.4,MacIntel,60,,,,,,,,,,-0.181000434,-0.014470486,1,0,0,0.46385,unsorted_card,6,0,6,0,1,,,,,,,,,,,,,,,,,,,,,,,,,,,,,,,,,,,,,,,,,,,,,,,,,,,,,,,,,,,,,,,,,,,,,,,,,,,,,,,,,
,,,,,,,,,,1573985,2020-10-27_18h25.53.604,swahili,2020.2.4,MacIntel,60,,,,,,,,,,0.363330078,0.440477431,1,0,0,2.46673,study_pile,7,0,7,0,1,PLATE - SAHANI,,,,,,,,,,,,,,,,,,,,,,,,,,,,,,,,,,,,,,,,,,,,,,,,,,,,,,,,,,,,,,,,,,,,,,,,,,,,,,,,
,,,,,,,,,,1573985,2020-10-27_18h25.53.604,swahili,2020.2.4,MacIntel,60,,,,,,,,,,-0.294471571,-0.048828125,1,0,0,0.531085,unsorted_card,8,0,8,0,1,,,,,,,,,,,,,,,,,,,,,,,,,,,,,,,,,,,,,,,,,,,,,,,,,,,,,,,,,,,,,,,,,,,,,,,,,,,,,,,,,
,,,,,,,,,,1573985,2020-10-27_18h25.53.604,swahili,2020.2.4,MacIntel,60,,,,,,,,,,0.382980686,-0.007126736,1,0,0,2.065985,test_pile,9,0,9,0,1,YEAST - HAMIRA,,,,,,,,,,,,,,,,,,,,,,,,,,,,,,,,,,,,,,,,,,,,,,,,,,,,,,,,,,,,,,,,,,,,,,,,,,,,,,,,
,,,,,,,,,,1573985,2020-10-27_18h25.53.604,swahili,2020.2.4,MacIntel,60,,,,,,,,,,-0.231108941,-0.064913194,1,0,0,0.512405,unsorted_card,10,0,10,0,1,,,,,,,,,,,,,,,,,,,,,,,,,,,,,,,,,,,,,,,,,,,,,,,,,,,,,,,,,,,,,,,,,,,,,,,,,,,,,,,,,
,,,,,,,,,,1573985,2020-10-27_18h25.53.604,swahili,2020.2.4,MacIntel,60,,,,,,,,,,0.407014974,0.006770833,1,0,0,3.78519,test_pile,11,0,11,0,1,BLAME - LAWAMA,,,,,,,,,,,,,,,,,,,,,,,,,,,,,,,,,,,,,,,,,,,,,,,,,,,,,,,,,,,,,,,,,,,,,,,,,,,,,,,,
,,,,,,,,,,1573985,2020-10-27_18h25.53.604,swahili,2020.2.4,MacIntel,60,,,,,,,,,,-0.321853299,-0.072621528,1,0,0,0.496545,unsorted_card,12,0,12,0,1,,,,,,,,,,,,,,,,,,,,,,,,,,,,,,,,,,,,,,,,,,,,,,,,,,,,,,,,,,,,,,,,,,,,,,,,,,,,,,,,,
,,,,,,,,,,1573985,2020-10-27_18h25.53.604,swahili,2020.2.4,MacIntel,60,,,,,,,,,,0.405170356,0.458524306,1,0,0,2.35279,study_pile,13,0,13,0,1,OATH - YAMINI,,,,,,,,,,,,,,,,,,,,,,,,,,,,,,,,,,,,,,,,,,,,,,,,,,,,,,,,,,,,,,,,,,,,,,,,,,,,,,,,
,,,,,,,,,,1573985,2020-10-27_18h25.53.604,swahili,2020.2.4,MacIntel,60,,,,,,,,,,-0.259646267,-0.057708333,1,0,0,0.493465,unsorted_card,14,0,14,0,1,,,,,,,,,,,,,,,,,,,,,,,,,,,,,,,,,,,,,,,,,,,,,,,,,,,,,,,,,,,,,,,,,,,,,,,,,,,,,,,,,
,,,,,,,,,,1573985,2020-10-27_18h25.53.604,swahili,2020.2.4,MacIntel,60,,,,,,,,,,0.482725694,0.578532986,1,0,0,2.015475,study_pile,15,0,15,0,1,CORN - NAFAKA,,,,,,,,,,,,,,,,,,,,,,,,,,,,,,,,,,,,,,,,,,,,,,,,,,,,,,,,,,,,,,,,,,,,,,,,,,,,,,,,
,,,,,,,,,,1573985,2020-10-27_18h25.53.604,swahili,2020.2.4,MacIntel,60,,,,,,,,,,-0.174235026,-0.062708333,1,0,0,0.565925,unsorted_card,16,0,16,0,1,,,,,,,,,,,,,,,,,,,,,,,,,,,,,,,,,,,,,,,,,,,,,,,,,,,,,,,,,,,,,,,,,,,,,,,,,,,,,,,,,
,,,,,,,,,,1573985,2020-10-27_18h25.53.604,swahili,2020.2.4,MacIntel,60,,,,,,,,,,0.434863281,-0.044314236,1,0,0,1.951295,test_pile,17,0,17,0,1,POEM - UTENZI,,,,,,,,,,,,,,,,,,,,,,,,,,,,,,,,,,,,,,,,,,,,,,,,,,,,,,,,,,,,,,,,,,,,,,,,,,,,,,,,
,,,,,,,,,,1573985,2020-10-27_18h25.53.604,swahili,2020.2.4,MacIntel,60,,,,,,,,,,-0.343744575,-0.071579861,1,0,0,0.51363,unsorted_card,18,0,18,0,1,,,,,,,,,,,,,,,,,,,,,,,,,,,,,,,,,,,,,,,,,,,,,,,,,,,,,,,,,,,,,,,,,,,,,,,,,,,,,,,,,
,,,,,,,,,,1573985,2020-10-27_18h25.53.604,swahili,2020.2.4,MacIntel,60,,,,,,,,,,0.503889974,-0.052560764,1,0,0,4.364025,test_pile,19,0,19,0,1,TAILOR - MSHONI,,,,,,,,,,,,,,,,,,,,,,,,,,,,,,,,,,,,,,,,,,,,,,,,,,,,,,,,,,,,,,,,,,,,,,,,,,,,,,,,
,,,,,,,,,,1573985,2020-10-27_18h25.53.604,swahili,2020.2.4,MacIntel,60,,,,,,,,,,-0.143863932,-0.085399306,1,0,0,0.53066,unsorted_card,20,0,20,0,1,,,,,,,,,,,,,,,,,,,,,,,,,,,,,,,,,,,,,,,,,,,,,,,,,,,,,,,,,,,,,,,,,,,,,,,,,,,,,,,,,
,,,,,,,,,,1573985,2020-10-27_18h25.53.604,swahili,2020.2.4,MacIntel,60,,,,,,,,,,0.400645616,0.006206597,1,0,0,2.067025,test_pile,21,0,21,0,1,CHEESE - JIBINI,,,,,,,,,,,,,,,,,,,,,,,,,,,,,,,,,,,,,,,,,,,,,,,,,,,,,,,,,,,,,,,,,,,,,,,,,,,,,,,,
,,,,,,,,,,1573985,2020-10-27_18h25.53.604,swahili,2020.2.4,MacIntel,60,,,,,,,,,,-0.371044922,-0.107855903,1,0,0,0.46467,unsorted_card,22,0,22,0,1,,,,,,,,,,,,,,,,,,,,,,,,,,,,,,,,,,,,,,,,,,,,,,,,,,,,,,,,,,,,,,,,,,,,,,,,,,,,,,,,,
,,,,,,,,,,1573985,2020-10-27_18h25.53.604,swahili,2020.2.4,MacIntel,60,,,,,,,,,,0.346229384,-0.018541667,1,0,0,2.764945,test_pile,23,0,23,0,1,GRAPES - ZABIBU,,,,,,,,,,,,,,,,,,,,,,,,,,,,,,,,,,,,,,,,,,,,,,,,,,,,,,,,,,,,,,,,,,,,,,,,,,,,,,,,
,,,,,,,,,,1573985,2020-10-27_18h25.53.604,swahili,2020.2.4,MacIntel,60,,,,,,,,,,-0.311848958,-0.046310764,1,0,0,0.464365,unsorted_card,24,0,24,0,1,,,,,,,,,,,,,,,,,,,,,,,,,,,,,,,,,,,,,,,,,,,,,,,,,,,,,,,,,,,,,,,,,,,,,,,,,,,,,,,,,
,,,,,,,,,,1573985,2020-10-27_18h25.53.604,swahili,2020.2.4,MacIntel,60,,,,,,,,,,0.364870877,-0.022743056,1,0,0,1.21647,test_pile,25,0,25,0,1,GRAVE - KABURI,,,,,,,,,,,,,,,,,,,,,,,,,,,,,,,,,,,,,,,,,,,,,,,,,,,,,,,,,,,,,,,,,,,,,,,,,,,,,,,,
,,,,,,,,,,1573985,2020-10-27_18h25.53.604,swahili,2020.2.4,MacIntel,60,,,,,,,,,,-0.330457899,0.037413194,1,0,0,0.482095,unsorted_card,26,0,26,0,1,,,,,,,,,,,,,,,,,,,,,,,,,,,,,,,,,,,,,,,,,,,,,,,,,,,,,,,,,,,,,,,,,,,,,,,,,,,,,,,,,
,,,,,,,,,,1573985,2020-10-27_18h25.53.604,swahili,2020.2.4,MacIntel,60,,,,,,,,,,0.33187934,-0.043506944,1,0,0,2.41573,test_pile,27,0,27,0,1,MANURE - SAMADI,,,,,,,,,,,,,,,,,,,,,,,,,,,,,,,,,,,,,,,,,,,,,,,,,,,,,,,,,,,,,,,,,,,,,,,,,,,,,,,,
,,,,,,,,,,1573985,2020-10-27_18h25.53.604,swahili,2020.2.4,MacIntel,60,,,,,,,,,,-0.602907986,-0.04875,1,0,0,0.498815,unsorted_card,28,0,28,0,1,,,,,,,,,,,,,,,,,,,,,,,,,,,,,,,,,,,,,,,,,,,,,,,,,,,,,,,,,,,,,,,,,,,,,,,,,,,,,,,,,
,,,,,,,,,,1573985,2020-10-27_18h25.53.604,swahili,2020.2.4,MacIntel,60,,,,,,,,,,0.408572049,0.523333333,1,0,0,2.46973,study_pile,29,0,29,0,1,AGENT - WAKILI,,,,,,,,,,,,,,,,,,,,,,,,,,,,,,,,,,,,,,,,,,,,,,,,,,,,,,,,,,,,,,,,,,,,,,,,,,,,,,,,
,,,,,,,,,,1573985,2020-10-27_18h25.53.604,swahili,2020.2.4,MacIntel,60,,,,,,,,,,-0.26858724,0.060486111,1,0,0,0.662985,unsorted_card,30,0,30,0,1,,,,,,,,,,,,,,,,,,,,,,,,,,,,,,,,,,,,,,,,,,,,,,,,,,,,,,,,,,,,,,,,,,,,,,,,,,,,,,,,,
,,,,,,,,,,1573985,2020-10-27_18h25.53.604,swahili,2020.2.4,MacIntel,60,,,,,,,,,,0.413080512,0.073142361,1,0,0,1.3302,test_pile,31,0,31,0,1,BRIBE - RUSHWA,,,,,,,,,,,,,,,,,,,,,,,,,,,,,,,,,,,,,,,,,,,,,,,,,,,,,,,,,,,,,,,,,,,,,,,,,,,,,,,,
,,,,,,,,,,1573985,2020-10-27_18h25.53.604,swahili,2020.2.4,MacIntel,60,,,,,,,,,,-0.156835937,0.029045139,1,0,0,4.103125,unsorted_card,32,0,32,0,1,,,,,,,,,,,,,,,,,,,,,,,,,,,,,,,,,,,,,,,,,,,,,,,,,,,,,,,,,,,,,,,,,,,,,,,,,,,,,,,,,
,,,,,,,,,,1573985,2020-10-27_18h25.53.604,swahili,2020.2.4,MacIntel,60,,,,,,,,,,0.410394965,0.553342014,1,0,0,1.929465,study_pile,33,0,33,0,1,ORPHAN - YATIMA,,,,,,,,,,,,,,,,,,,,,,,,,,,,,,,,,,,,,,,,,,,,,,,,,,,,,,,,,,,,,,,,,,,,,,,,,,,,,,,,
,,,,,,,,,,1573985,2020-10-27_18h25.53.604,swahili,2020.2.4,MacIntel,60,,,,,,,,,,-0.221034071,0.162473958,1,0,0,0.480835,unsorted_card,34,0,34,0,1,,,,,,,,,,,,,,,,,,,,,,,,,,,,,,,,,,,,,,,,,,,,,,,,,,,,,,,,,,,,,,,,,,,,,,,,,,,,,,,,,
,,,,,,,,,,1573985,2020-10-27_18h25.53.604,swahili,2020.2.4,MacIntel,60,,,,,,,,,,0.376600477,-0.089644097,1,0,0,4.68302,test_pile,35,0,35,0,1,DIVORCE - TALAKA,,,,,,,,,,,,,,,,,,,,,,,,,,,,,,,,,,,,,,,,,,,,,,,,,,,,,,,,,,,,,,,,,,,,,,,,,,,,,,,,
,,,,,,,,,,1573985,2020-10-27_18h25.53.604,swahili,2020.2.4,MacIntel,60,,,,,,,,,,-0.355523003,-0.192517361,1,0,0,0.49803,unsorted_card,36,0,36,0,1,,,,,,,,,,,,,,,,,,,,,,,,,,,,,,,,,,,,,,,,,,,,,,,,,,,,,,,,,,,,,,,,,,,,,,,,,,,,,,,,,
,,,,,,,,,,1573985,2020-10-27_18h25.53.604,swahili,2020.2.4,MacIntel,60,,,,,,,,,,0.40007053,-0.008489583,1,0,0,0.99889,test_pile,37,0,37,0,1,BOAT - MASHUA,,,,,,,,,,,,,,,,,,,,,,,,,,,,,,,,,,,,,,,,,,,,,,,,,,,,,,,,,,,,,,,,,,,,,,,,,,,,,,,,
,,,,,,,,,,1573985,2020-10-27_18h25.53.604,swahili,2020.2.4,MacIntel,60,,,,,,,,,,-0.075189887,-0.048394097,1,0,0,0.51334,unsorted_card,38,0,38,0,1,,,,,,,,,,,,,,,,,,,,,,,,,,,,,,,,,,,,,,,,,,,,,,,,,,,,,,,,,,,,,,,,,,,,,,,,,,,,,,,,,
,,,,,,,,,,1573985,2020-10-27_18h25.53.604,swahili,2020.2.4,MacIntel,60,,,,,,,,,,0.478412543,-0.013098958,1,0,0,1.247625,test_pile,39,0,39,0,1,TREASURE - DAFINA,,,,,,,,,,,,,,,,,,,,,,,,,,,,,,,,,,,,,,,,,,,,,,,,,,,,,,,,,,,,,,,,,,,,,,,,,,,,,,,,
,,,,,,,,,,1573985,2020-10-27_18h25.53.604,swahili,2020.2.4,MacIntel,60,,,,,,,,,,,,,,,,,,,,,,PLATE - SAHANI,-0.515120443,-0.097960069,1,0,0,2.167165,study_first,return,2.825285,return,5.78079,0,0,0,0,1,,,,,,,,,,,,,,,,,,,,,,,,,,,,,,,,,,,,,,,,,,,,,,,,,,,,,,,,,,,,,,,,
,,,,,,,,,,1573985,2020-10-27_18h25.53.604,swahili,2020.2.4,MacIntel,60,,,,,,,,,,,,,,,,,,,,,,ORPHAN - YATIMA,,,,,,,,,,return,11.70074,1,0,1,0,1,,,,,,,,,,,,,,,,,,,,,,,,,,,,,,,,,,,,,,,,,,,,,,,,,,,,,,,,,,,,,,,,
,,,,,,,,,,1573985,2020-10-27_18h25.53.604,swahili,2020.2.4,MacIntel,60,,,,,,,,,,,,,,,,,,,,,,AGENT - WAKILI,,,,,,,,,,return,5.11452,2,0,2,0,1,,,,,,,,,,,,,,,,,,,,,,,,,,,,,,,,,,,,,,,,,,,,,,,,,,,,,,,,,,,,,,,,
,,,,,,,,,,1573985,2020-10-27_18h25.53.604,swahili,2020.2.4,MacIntel,60,,,,,,,,,,,,,,,,,,,,,,MERCHANT - TAJIRI,,,,,,,,,,return,3.258225,3,0,3,0,1,,,,,,,,,,,,,,,,,,,,,,,,,,,,,,,,,,,,,,,,,,,,,,,,,,,,,,,,,,,,,,,,
,,,,,,,,,,1573985,2020-10-27_18h25.53.604,swahili,2020.2.4,MacIntel,60,,,,,,,,,,,,,,,,,,,,,,OATH - YAMINI,,,,,,,,,,return,5.50632,4,0,4,0,1,,,,,,,,,,,,,,,,,,,,,,,,,,,,,,,,,,,,,,,,,,,,,,,,,,,,,,,,,,,,,,,,
,,,,,,,,,,1573985,2020-10-27_18h25.53.604,swahili,2020.2.4,MacIntel,60,,,,,,,,,,,,,,,,,,,,,,CORN - NAFAKA,,,,,,,,,,return,3.551085,5,0,5,0,1,,,,,,,,,,,,,,,,,,,,,,,,,,,,,,,,,,,,,,,,,,,,,,,,,,,,,,,,,,,,,,,,
,,,,,,,,,,1573985,2020-10-27_18h25.53.604,swahili,2020.2.4,MacIntel,60,,,,,,,,,,,,,,,,,,,,,,,,,,,,,,,,,,,,,,,,0,0,0,0,1,,,,,,,,,,,,,,,,,,,,,,,,,,,,,,,,,,,,,,,,,,,,,,,,,,,,,,,,,,
,,,,,,,,,,1573985,2020-10-27_18h25.53.604,swahili,2020.2.4,MacIntel,60,,,,,,,,,,,,,,,,,,,,,,,,,,,,,,,,,,0,0,0,0,1,,,,,,,,,,,,,,,,,,,,,,,,,,,,,,,,,,,,,,,,,,,,,,,,,,,,,,,,,,,,,,,,
,,,,,,,,,,1573985,2020-10-27_18h25.53.604,swahili,2020.2.4,MacIntel,60,,,,,,,,,,,,,,,,,,,,,,,,,,,,,,,,,,,,,,,return,,,,,,,,,,,0.865125,9.31277,0.392409939,-0.079973958,1,0,0,0.515775,yes,TAILOR,MSHONI,incorrect,0,0,0,0,1,,,,,,,,,,,,,,,,,,,,,,,,,,,,,,,,,,,,
,,,,,,,,,,1573985,2020-10-27_18h25.53.604,swahili,2020.2.4,MacIntel,60,,,,,,,,,,,,,,,,,,,,,,,,,,,,,,,,,,,,,,,,,,,,,,,,,,,3.599015,0.407855903,-0.042769097,1,0,0,0.598225,yes,POEM,UTENZI,incorrect,1,0,1,0,1,,,,,,,,,,,,,,,,,,,,,,,,,,,,,,,,,,,,
,,,,,,,,,,1573985,2020-10-27_18h25.53.604,swahili,2020.2.4,MacIntel,60,,,,,,,,,,,,,,,,,,,,,,,,,,,,,,,,,,,,,,,,,,,,,,,,,,,5.161705,0.310715061,0.011953125,1,0,0,0.58783,yes,MANURE,SAMALA,incorrect,2,0,2,0,1,,,,,,,,,,,,,,,,,,,,,,,,,,,,,,,,,,,,
,,,,,,,,,,1573985,2020-10-27_18h25.53.604,swahili,2020.2.4,MacIntel,60,,,,,,,,,,,,,,,,,,,,,,,,,,,,,,,,,,,,,,,,,,,,,,,,,,,3.41152,0.542995877,0.158107639,1,0,0,0.486835,yes,YEAST,HAMIDA,incorrect,3,0,3,0,1,,,,,,,,,,,,,,,,,,,,,,,,,,,,,,,,,,,,
,,,,,,,,,,1573985,2020-10-27_18h25.53.604,swahili,2020.2.4,MacIntel,60,,,,,,,,,,,,,,,,,,,,,,,,,,,,,,,,,,,,,,,,,,,,,,,,,,,9.912335,0.34031033,-0.011892361,1,0,0,0.65193,yes,BOAT,MASHUA,incorrect,4,0,4,0,1,,,,,,,,,,,,,,,,,,,,,,,,,,,,,,,,,,,,
,,,,,,,,,,1573985,2020-10-27_18h25.53.604,swahili,2020.2.4,MacIntel,60,,,,,,,,,,,,,,,,,,,,,,,,,,,,,,,,,,,,,,,,,,,,,,,,,,,18.46283,0.369406467,-0.117777778,1,0,0,0.583885,yes,PARROT,KASULA,incorrect,5,0,5,0,1,,,,,,,,,,,,,,,,,,,,,,,,,,,,,,,,,,,,
,,,,,,,,,,1573985,2020-10-27_18h25.53.604,swahili,2020.2.4,MacIntel,60,,,,,,,,,,,,,,,,,,,,,,,,,,,,,,,,,,,,,,,,,,,,,,,,,,,6.14824,0.339594184,0.024114583,1,0,0,0.530305,yes,GRAVE,KABURI,incorrect,6,0,6,0,1,,,,,,,,,,,,,,,,,,,,,,,,,,,,,,,,,,,,
,,,,,,,,,,1573985,2020-10-27_18h25.53.604,swahili,2020.2.4,MacIntel,60,,,,,,,,,,,,,,,,,,,,,,,,,,,,,,,,,,,,,,,,,,,,,,,,,,,7.265395,0.397135417,-0.104296875,1,0,0,0.53744,yes,CHEESE,JIBIRI,incorrect,7,0,7,0,1,,,,,,,,,,,,,,,,,,,,,,,,,,,,,,,,,,,,
,,,,,,,,,,1573985,2020-10-27_18h25.53.604,swahili,2020.2.4,MacIntel,60,,,,,,,,,,,,,,,,,,,,,,,,,,,,,,,,,,,,,,,,,,,,,,,,,,,23.596995,0.361724175,0.336597222,1,0,0,0.4645,yes,DIVORCE,HAMADA,incorrect,8,0,8,0,1,,,,,,,,,,,,,,,,,,,,,,,,,,,,,,,,,,,,
,,,,,,,,,,1573985,2020-10-27_18h25.53.604,swahili,2020.2.4,MacIntel,60,,,,,,,,,,,,,,,,,,,,,,,,,,,,,,,,,,,,,,,,,,,,,,,,,,,3.76574,0.551540799,0.074210069,1,0,0,0.467875,yes,TREASURE,HAMIDA,incorrect,9,0,9,0,1,,,,,,,,,,,,,,,,,,,,,,,,,,,,,,,,,,,,
,,,,,,,,,,1573985,2020-10-27_18h25.53.604,swahili,2020.2.4,MacIntel,60,,,,,,,,,,,,,,,,,,,,,,,,,,,,,,,,,,,,,,,,,,,,,,,,,,,19.185255,0.40523546,0.0728125,1,0,0,0.529135,yes,GRAPES,JABUKI,incorrect,10,0,10,0,1,,,,,,,,,,,,,,,,,,,,,,,,,,,,,,,,,,,,
,,,,,,,,,,1573985,2020-10-27_18h25.53.604,swahili,2020.2.4,MacIntel,60,,,,,,,,,,,,,,,,,,,,,,,,,,,,,,,,,,,,,,,,,,,,,,,,,,,50.578125,0.592361111,0.094375,1,0,0,0.702675,yes,BRIBE,TAKALI,incorrect,11,0,11,0,1,,,,,,,,,,,,,,,,,,,,,,,,,,,,,,,,,,,,
,,,,,,,,,,1573985,2020-10-27_18h25.53.604,swahili,2020.2.4,MacIntel,60,,,,,,,,,,,,,,,,,,,,,,,,,,,,,,,,,,,,,,,,,,,,,,,,,,,18.58013,0.291417101,-0.134826389,1,0,0,0.60279,yes,BLAME,HAMIDI,incorrect,12,0,12,0,1,,,,,,,,,,,,,,,,,,,,,,,,,,,,,,,,,,,,
,,,,,,,,,,1573985,2020-10-27_18h25.53.604,swahili,2020.2.4,MacIntel,60,,,,,,,,,,,,,,,,,,,,,,,,,,,,,,,,,,,,,,,,,,,,,,,,,,,9.931475,0.425537109,-0.077708333,1,0,0,0.515415,yes,BULL,FAHILI,incorrect,13,0,13,0,1,,,,,,,,,,,,,,,,,,,,,,,,,,,,,,,,,,,,
,,,,,,,,,,1573985,2020-10-27_18h25.53.604,swahili,2020.2.4,MacIntel,60,,,,,,,,,,,,,,,,,,,,,,,,,,,,,,,,,,,,,,,,1,0,1,0,1,,,,,,,,,,,,,,,,,,,,,,,,,,,,,,,,,,,,,,,,,,,,,,,,,,,,,,,,,,
,,,,,,,,,,1573985,2020-10-27_18h25.53.604,swahili,2020.2.4,MacIntel,60,,,,,,,,,,,,,,,,,,,,,,,,,,,,,,,,,,,,,,,,,,,,,3,0,3,0,1,,,,,,,,,,,,,,,,,,,,,,,,,,,,,,,,,,,,,,,,,,,,,,,,,,,,,
,,,,,,,,,,1573985,2020-10-27_18h25.53.604,swahili,2020.2.4,MacIntel,60,,,,,,,,,,-0.474625651,-0.174904514,1,0,0,3.284235,unsorted_card,0,0,0,0,1,,,,,,,,,,,,,,,,,,,,,,,,,,,,,,,,,,,,,,,,,,,,,,,,,,,,,,,,,,,,,,,,,,,,,,,,,,,,,,,,,
,,,,,,,,,,1573985,2020-10-27_18h25.53.604,swahili,2020.2.4,MacIntel,60,,,,,,,,,,0.437684462,0.078524306,1,0,0,1.648055,test_pile,1,0,1,0,1,MERCHANT - TAJIRI,,,,,,,,,,,,,,,,,,,,,,,,,,,,,,,,,,,,,,,,,,,,,,,,,,,,,,,,,,,,,,,,,,,,,,,,,,,,,,,,
,,,,,,,,,,1573985,2020-10-27_18h25.53.604,swahili,2020.2.4,MacIntel,60,,,,,,,,,,-0.498155382,0.040798611,1,0,0,0.44966,unsorted_card,2,0,2,0,1,,,,,,,,,,,,,,,,,,,,,,,,,,,,,,,,,,,,,,,,,,,,,,,,,,,,,,,,,,,,,,,,,,,,,,,,,,,,,,,,,
,,,,,,,,,,1573985,2020-10-27_18h25.53.604,swahili,2020.2.4,MacIntel,60,,,,,,,,,,0.417442491,0.041223958,1,0,0,1.465465,test_pile,3,0,3,0,1,PARROT - KASUKU,,,,,,,,,,,,,,,,,,,,,,,,,,,,,,,,,,,,,,,,,,,,,,,,,,,,,,,,,,,,,,,,,,,,,,,,,,,,,,,,
,,,,,,,,,,1573985,2020-10-27_18h25.53.604,swahili,2020.2.4,MacIntel,60,,,,,,,,,,-0.379888238,-0.098428819,1,0,0,0.448925,unsorted_card,4,0,4,0,1,,,,,,,,,,,,,,,,,,,,,,,,,,,,,,,,,,,,,,,,,,,,,,,,,,,,,,,,,,,,,,,,,,,,,,,,,,,,,,,,,
,,,,,,,,,,1573985,2020-10-27_18h25.53.604,swahili,2020.2.4,MacIntel,60,,,,,,,,,,0.421701389,0.021345486,1,0,0,0.884475,test_pile,5,0,5,0,1,BULL - FAHILI,,,,,,,,,,,,,,,,,,,,,,,,,,,,,,,,,,,,,,,,,,,,,,,,,,,,,,,,,,,,,,,,,,,,,,,,,,,,,,,,
,,,,,,,,,,1573985,2020-10-27_18h25.53.604,swahili,2020.2.4,MacIntel,60,,,,,,,,,,-0.376692708,0.014053819,1,0,0,0.42901,unsorted_card,6,0,6,0,1,,,,,,,,,,,,,,,,,,,,,,,,,,,,,,,,,,,,,,,,,,,,,,,,,,,,,,,,,,,,,,,,,,,,,,,,,,,,,,,,,
,,,,,,,,,,1573985,2020-10-27_18h25.53.604,swahili,2020.2.4,MacIntel,60,,,,,,,,,,0.439111328,-0.026684028,1,0,0,1.317375,test_pile,7,0,7,0,1,PLATE - SAHANI,,,,,,,,,,,,,,,,,,,,,,,,,,,,,,,,,,,,,,,,,,,,,,,,,,,,,,,,,,,,,,,,,,,,,,,,,,,,,,,,
,,,,,,,,,,1573985,2020-10-27_18h25.53.604,swahili,2020.2.4,MacIntel,60,,,,,,,,,,-0.559185113,-0.112734375,1,0,0,0.41649,unsorted_card,8,0,8,0,1,,,,,,,,,,,,,,,,,,,,,,,,,,,,,,,,,,,,,,,,,,,,,,,,,,,,,,,,,,,,,,,,,,,,,,,,,,,,,,,,,
,,,,,,,,,,1573985,2020-10-27_18h25.53.604,swahili,2020.2.4,MacIntel,60,,,,,,,,,,0.446549479,0.013793403,1,0,0,0.532895,test_pile,9,0,9,0,1,YEAST - HAMIRA,,,,,,,,,,,,,,,,,,,,,,,,,,,,,,,,,,,,,,,,,,,,,,,,,,,,,,,,,,,,,,,,,,,,,,,,,,,,,,,,
,,,,,,,,,,1573985,2020-10-27_18h25.53.604,swahili,2020.2.4,MacIntel,60,,,,,,,,,,-0.140098741,-0.006050347,1,0,0,0.761675,unsorted_card,10,0,10,0,1,,,,,,,,,,,,,,,,,,,,,,,,,,,,,,,,,,,,,,,,,,,,,,,,,,,,,,,,,,,,,,,,,,,,,,,,,,,,,,,,,
,,,,,,,,,,1573985,2020-10-27_18h25.53.604,swahili,2020.2.4,MacIntel,60,,,,,,,,,,0.406738281,0.010225694,1,0,0,3.194315,test_pile,11,0,11,0,1,BLAME - LAWAMA,,,,,,,,,,,,,,,,,,,,,,,,,,,,,,,,,,,,,,,,,,,,,,,,,,,,,,,,,,,,,,,,,,,,,,,,,,,,,,,,
,,,,,,,,,,1573985,2020-10-27_18h25.53.604,swahili,2020.2.4,MacIntel,60,,,,,,,,,,-0.404465061,-0.060138889,1,0,0,0.504455,unsorted_card,12,0,12,0,1,,,,,,,,,,,,,,,,,,,,,,,,,,,,,,,,,,,,,,,,,,,,,,,,,,,,,,,,,,,,,,,,,,,,,,,,,,,,,,,,,
,,,,,,,,,,1573985,2020-10-27_18h25.53.604,swahili,2020.2.4,MacIntel,60,,,,,,,,,,0.409792752,0.035876736,1,0,0,4.750475,test_pile,13,0,13,0,1,OATH - YAMINI,,,,,,,,,,,,,,,,,,,,,,,,,,,,,,,,,,,,,,,,,,,,,,,,,,,,,,,,,,,,,,,,,,,,,,,,,,,,,,,,
,,,,,,,,,,1573985,2020-10-27_18h25.53.604,swahili,2020.2.4,MacIntel,60,,,,,,,,,,-0.370377604,0.002491319,1,0,0,0.6614,unsorted_card,14,0,14,0,1,,,,,,,,,,,,,,,,,,,,,,,,,,,,,,,,,,,,,,,,,,,,,,,,,,,,,,,,,,,,,,,,,,,,,,,,,,,,,,,,,
,,,,,,,,,,1573985,2020-10-27_18h25.53.604,swahili,2020.2.4,MacIntel,60,,,,,,,,,,0.47180447,0.024609375,1,0,0,9.76909,test_pile,15,0,15,0,1,CORN - NAFAKA,,,,,,,,,,,,,,,,,,,,,,,,,,,,,,,,,,,,,,,,,,,,,,,,,,,,,,,,,,,,,,,,,,,,,,,,,,,,,,,,
,,,,,,,,,,1573985,2020-10-27_18h25.53.604,swahili,2020.2.4,MacIntel,60,,,,,,,,,,-0.271213108,-0.047873264,1,0,0,0.48107,unsorted_card,16,0,16,0,1,,,,,,,,,,,,,,,,,,,,,,,,,,,,,,,,,,,,,,,,,,,,,,,,,,,,,,,,,,,,,,,,,,,,,,,,,,,,,,,,,
,,,,,,,,,,1573985,2020-10-27_18h25.53.604,swahili,2020.2.4,MacIntel,60,,,,,,,,,,0.361545139,-0.008246528,1,0,0,1.047155,test_pile,17,0,17,0,1,POEM - UTENZI,,,,,,,,,,,,,,,,,,,,,,,,,,,,,,,,,,,,,,,,,,,,,,,,,,,,,,,,,,,,,,,,,,,,,,,,,,,,,,,,
,,,,,,,,,,1573985,2020-10-27_18h25.53.604,swahili,2020.2.4,MacIntel,60,,,,,,,,,,-0.406526693,0.088550347,1,0,0,0.46725,unsorted_card,18,0,18,0,1,,,,,,,,,,,,,,,,,,,,,,,,,,,,,,,,,,,,,,,,,,,,,,,,,,,,,,,,,,,,,,,,,,,,,,,,,,,,,,,,,
,,,,,,,,,,1573985,2020-10-27_18h25.53.604,swahili,2020.2.4,MacIntel,60,,,,,,,,,,0.354969618,-0.011137153,1,0,0,1.147075,test_pile,19,0,19,0,1,TAILOR - MSHONI,,,,,,,,,,,,,,,,,,,,,,,,,,,,,,,,,,,,,,,,,,,,,,,,,,,,,,,,,,,,,,,,,,,,,,,,,,,,,,,,
,,,,,,,,,,1573985,2020-10-27_18h25.53.604,swahili,2020.2.4,MacIntel,60,,,,,,,,,,-0.430392795,-0.070659722,1,0,0,0.466805,unsorted_card,20,0,20,0,1,,,,,,,,,,,,,,,,,,,,,,,,,,,,,,,,,,,,,,,,,,,,,,,,,,,,,,,,,,,,,,,,,,,,,,,,,,,,,,,,,
,,,,,,,,,,1573985,2020-10-27_18h25.53.604,swahili,2020.2.4,MacIntel,60,,,,,,,,,,0.424636502,-0.043376736,1,0,0,2.63142,test_pile,21,0,21,0,1,CHEESE - JIBINI,,,,,,,,,,,,,,,,,,,,,,,,,,,,,,,,,,,,,,,,,,,,,,,,,,,,,,,,,,,,,,,,,,,,,,,,,,,,,,,,
,,,,,,,,,,1573985,2020-10-27_18h25.53.604,swahili,2020.2.4,MacIntel,60,,,,,,,,,,-0.248480903,0.131831597,1,0,0,0.510235,unsorted_card,22,0,22,0,1,,,,,,,,,,,,,,,,,,,,,,,,,,,,,,,,,,,,,,,,,,,,,,,,,,,,,,,,,,,,,,,,,,,,,,,,,,,,,,,,,
,,,,,,,,,,1573985,2020-10-27_18h25.53.604,swahili,2020.2.4,MacIntel,60,,,,,,,,,,0.406011285,0.005434028,1,0,0,5.01582,test_pile,23,0,23,0,1,GRAPES - ZABIBU,,,,,,,,,,,,,,,,,,,,,,,,,,,,,,,,,,,,,,,,,,,,,,,,,,,,,,,,,,,,,,,,,,,,,,,,,,,,,,,,
,,,,,,,,,,1573985,2020-10-27_18h25.53.604,swahili,2020.2.4,MacIntel,60,,,,,,,,,,-0.371967231,-0.076371528,1,0,0,0.4653,unsorted_card,24,0,24,0,1,,,,,,,,,,,,,,,,,,,,,,,,,,,,,,,,,,,,,,,,,,,,,,,,,,,,,,,,,,,,,,,,,,,,,,,,,,,,,,,,,
,,,,,,,,,,1573985,2020-10-27_18h25.53.604,swahili,2020.2.4,MacIntel,60,,,,,,,,,,0.315375434,0.161440972,1,0,0,1.516075,test_pile,25,0,25,0,1,GRAVE - KABURI,,,,,,,,,,,,,,,,,,,,,,,,,,,,,,,,,,,,,,,,,,,,,,,,,,,,,,,,,,,,,,,,,,,,,,,,,,,,,,,,
,,,,,,,,,,1573985,2020-10-27_18h25.53.604,swahili,2020.2.4,MacIntel,60,,,,,,,,,,-0.295404731,0.080868056,1,0,0,0.500655,unsorted_card,26,0,26,0,1,,,,,,,,,,,,,,,,,,,,,,,,,,,,,,,,,,,,,,,,,,,,,,,,,,,,,,,,,,,,,,,,,,,,,,,,,,,,,,,,,
,,,,,,,,,,1573985,2020-10-27_18h25.53.604,swahili,2020.2.4,MacIntel,60,,,,,,,,,,0.419493273,-0.004991319,1,0,0,2.29825,test_pile,27,0,27,0,1,MANURE - SAMADI,,,,,,,,,,,,,,,,,,,,,,,,,,,,,,,,,,,,,,,,,,,,,,,,,,,,,,,,,,,,,,,,,,,,,,,,,,,,,,,,
,,,,,,,,,,1573985,2020-10-27_18h25.53.604,swahili,2020.2.4,MacIntel,60,,,,,,,,,,-0.351123047,-0.0459375,1,0,0,0.64938,unsorted_card,28,0,28,0,1,,,,,,,,,,,,,,,,,,,,,,,,,,,,,,,,,,,,,,,,,,,,,,,,,,,,,,,,,,,,,,,,,,,,,,,,,,,,,,,,,
,,,,,,,,,,1573985,2020-10-27_18h25.53.604,swahili,2020.2.4,MacIntel,60,,,,,,,,,,0.378667535,-0.050729167,1,0,0,2.72947,test_pile,29,0,29,0,1,AGENT - WAKILI,,,,,,,,,,,,,,,,,,,,,,,,,,,,,,,,,,,,,,,,,,,,,,,,,,,,,,,,,,,,,,,,,,,,,,,,,,,,,,,,
,,,,,,,,,,1573985,2020-10-27_18h25.53.604,swahili,2020.2.4,MacIntel,60,,,,,,,,,,-0.393853082,0.003237847,1,0,0,0.53172,unsorted_card,30,0,30,0,1,,,,,,,,,,,,,,,,,,,,,,,,,,,,,,,,,,,,,,,,,,,,,,,,,,,,,,,,,,,,,,,,,,,,,,,,,,,,,,,,,
,,,,,,,,,,1573985,2020-10-27_18h25.53.604,swahili,2020.2.4,MacIntel,60,,,,,,,,,,0.350553385,0.011267361,1,0,0,1.432075,test_pile,31,0,31,0,1,BRIBE - RUSHWA,,,,,,,,,,,,,,,,,,,,,,,,,,,,,,,,,,,,,,,,,,,,,,,,,,,,,,,,,,,,,,,,,,,,,,,,,,,,,,,,
,,,,,,,,,,1573985,2020-10-27_18h25.53.604,swahili,2020.2.4,MacIntel,60,,,,,,,,,,-0.216916233,-0.030885417,1,0,0,1.548055,unsorted_card,32,0,32,0,1,,,,,,,,,,,,,,,,,,,,,,,,,,,,,,,,,,,,,,,,,,,,,,,,,,,,,,,,,,,,,,,,,,,,,,,,,,,,,,,,,
,,,,,,,,,,1573985,2020-10-27_18h25.53.604,swahili,2020.2.4,MacIntel,60,,,,,,,,,,0.485894097,-0.061041667,1,0,0,4.132325,test_pile,33,0,33,0,1,ORPHAN - YATIMA,,,,,,,,,,,,,,,,,,,,,,,,,,,,,,,,,,,,,,,,,,,,,,,,,,,,,,,,,,,,,,,,,,,,,,,,,,,,,,,,
,,,,,,,,,,1573985,2020-10-27_18h25.53.604,swahili,2020.2.4,MacIntel,60,,,,,,,,,,-0.507231988,0.038680556,1,0,0,0.5347,unsorted_card,34,0,34,0,1,,,,,,,,,,,,,,,,,,,,,,,,,,,,,,,,,,,,,,,,,,,,,,,,,,,,,,,,,,,,,,,,,,,,,,,,,,,,,,,,,
,,,,,,,,,,1573985,2020-10-27_18h25.53.604,swahili,2020.2.4,MacIntel,60,,,,,,,,,,0.456022135,-0.010772569,1,0,0,2.599035,test_pile,35,0,35,0,1,DIVORCE - TALAKA,,,,,,,,,,,,,,,,,,,,,,,,,,,,,,,,,,,,,,,,,,,,,,,,,,,,,,,,,,,,,,,,,,,,,,,,,,,,,,,,
,,,,,,,,,,1573985,2020-10-27_18h25.53.604,swahili,2020.2.4,MacIntel,60,,,,,,,,,,-0.388769531,0.05625,1,0,0,0.563615,unsorted_card,36,0,36,0,1,,,,,,,,,,,,,,,,,,,,,,,,,,,,,,,,,,,,,,,,,,,,,,,,,,,,,,,,,,,,,,,,,,,,,,,,,,,,,,,,,
,,,,,,,,,,1573985,2020-10-27_18h25.53.604,swahili,2020.2.4,MacIntel,60,,,,,,,,,,0.375819227,0.075243056,1,0,0,1.295385,test_pile,37,0,37,0,1,BOAT - MASHUA,,,,,,,,,,,,,,,,,,,,,,,,,,,,,,,,,,,,,,,,,,,,,,,,,,,,,,,,,,,,,,,,,,,,,,,,,,,,,,,,
,,,,,,,,,,1573985,2020-10-27_18h25.53.604,swahili,2020.2.4,MacIntel,60,,,,,,,,,,-0.219536675,0.051276042,1,0,0,0.500705,unsorted_card,38,0,38,0,1,,,,,,,,,,,,,,,,,,,,,,,,,,,,,,,,,,,,,,,,,,,,,,,,,,,,,,,,,,,,,,,,,,,,,,,,,,,,,,,,,
,,,,,,,,,,1573985,2020-10-27_18h25.53.604,swahili,2020.2.4,MacIntel,60,,,,,,,,,,0.524235026,0.051276042,1,0,0,1.20084,test_pile,39,0,39,0,1,TREASURE - DAFINA,,,,,,,,,,,,,,,,,,,,,,,,,,,,,,,,,,,,,,,,,,,,,,,,,,,,,,,,,,,,,,,,,,,,,,,,,,,,,,,,
,,,,,,,,,,1573985,2020-10-27_18h25.53.604,swahili,2020.2.4,MacIntel,60,,,,,,,,,,,,,,,,,,,,,,,,,,,,,,,,,,0,0,0,0,1,,,,,,,,,,,,,,,,,,,,,,,,,,,,,,,,,,,,,,,,,,,,,,,,,,,,,,,,,,,,,,,,
,,,,,,,,,,1573985,2020-10-27_18h25.53.604,swahili,2020.2.4,MacIntel,60,,,,,,,,,,,,,,,,,,,,,,,,,,,,,,,,,,,,,,,return,,,,,,,,,,,1.296565,2.698035,0.545524089,-0.034348958,1,0,0,0.446075,yes,YEAST,HAMIDA,incorrect,0,0,0,0,1,,,,,,,,,,,,,,,,,,,,,,,,,,,,,,,,,,,,
,,,,,,,,,,1573985,2020-10-27_18h25.53.604,swahili,2020.2.4,MacIntel,60,,,,,,,,,,,,,,,,,,,,,,,,,,,,,,,,,,,,,,,,,,,,,,,,,,,9.69909,0.382297092,-0.056909722,1,0,0,0.56716,yes,PLATE,SAMADA,incorrect,1,0,1,0,1,,,,,,,,,,,,,,,,,,,,,,,,,,,,,,,,,,,,
,,,,,,,,,,1573985,2020-10-27_18h25.53.604,swahili,2020.2.4,MacIntel,60,,,,,,,,,,,,,,,,,,,,,,,,,,,,,,,,,,,,,,,,,,,,,,,,,,,4.950605,0.451746962,-0.000815972,1,0,0,0.467085,yes,AGENT,WAKILI,incorrect,2,0,2,0,1,,,,,,,,,,,,,,,,,,,,,,,,,,,,,,,,,,,,
,,,,,,,,,,1573985,2020-10-27_18h25.53.604,swahili,2020.2.4,MacIntel,60,,,,,,,,,,,,,,,,,,,,,,,,,,,,,,,,,,,,,,,,,,,,,,,,,,,3.2327,0.454427083,0.085373264,1,0,0,0.42936,yes,ORPHAN,YAMADA,incorrect,3,0,3,0,1,,,,,,,,,,,,,,,,,,,,,,,,,,,,,,,,,,,,
,,,,,,,,,,1573985,2020-10-27_18h25.53.604,swahili,2020.2.4,MacIntel,60,,,,,,,,,,,,,,,,,,,,,,,,,,,,,,,,,,,,,,,,,,,,,,,,,,,7.693915,0.517290582,-0.027925347,1,0,0,0.431925,yes,BRIBE,RUSHWA,incorrect,4,0,4,0,1,,,,,,,,,,,,,,,,,,,,,,,,,,,,,,,,,,,,
,,,,,,,,,,1573985,2020-10-27_18h25.53.604,swahili,2020.2.4,MacIntel,60,,,,,,,,,,,,,,,,,,,,,,,,,,,,,,,,,,,,,,,,,,,,,,,,,,,3.532265,0.541851128,0.066909722,1,0,0,0.48469,yes,POEM,UTENZI,incorrect,5,0,5,0,1,,,,,,,,,,,,,,,,,,,,,,,,,,,,,,,,,,,,
,,,,,,,,,,1573985,2020-10-27_18h25.53.604,swahili,2020.2.4,MacIntel,60,,,,,,,,,,,,,,,,,,,,,,,,,,,,,,,,,,,,,,,,,,,,,,,,,,,4.2809,0.563943142,-0.078003472,1,0,0,0.570095,yes,MANURE,SAMADI,incorrect,6,0,6,0,1,,,,,,,,,,,,,,,,,,,,,,,,,,,,,,,,,,,,
,,,,,,,,,,1573985,2020-10-27_18h25.53.604,swahili,2020.2.4,MacIntel,60,,,,,,,,,,,,,,,,,,,,,,,,,,,,,,,,,,,,,,,,,,,,,,,,,,,3.99873,0.415332031,0.039409722,1,0,0,0.48367,yes,OATH,YAMIDA,incorrect,7,0,7,0,1,,,,,,,,,,,,,,,,,,,,,,,,,,,,,,,,,,,,
,,,,,,,,,,1573985,2020-10-27_18h25.53.604,swahili,2020.2.4,MacIntel,60,,,,,,,,,,,,,,,,,,,,,,,,,,,,,,,,,,,,,,,,,,,,,,,,,,,9.931795,0.449842665,0.022170139,1,0,0,1.07048,yes,BOAT,MASHUA,incorrect,8,0,8,0,1,,,,,,,,,,,,,,,,,,,,,,,,,,,,,,,,,,,,
,,,,,,,,,,1573985,2020-10-27_18h25.53.604,swahili,2020.2.4,MacIntel,60,,,,,,,,,,,,,,,,,,,,,,,,,,,,,,,,,,,,,,,,,,,,,,,,,,,5.012215,0.568495009,-0.093220486,1,0,0,0.520175,yes,GRAVE,KABURI,incorrect,9,0,9,0,1,,,,,,,,,,,,,,,,,,,,,,,,,,,,,,,,,,,,
,,,,,,,,,,1573985,2020-10-27_18h25.53.604,swahili,2020.2.4,MacIntel,60,,,,,,,,,,,,,,,,,,,,,,,,,,,,,,,,,,,,,,,,,,,,,,,,,,,7.76412,0.571858724,0.034071181,1,0,0,0.46621,yes,DIVORCE,YAMIDA,incorrect,10,0,10,0,1,,,,,,,,,,,,,,,,,,,,,,,,,,,,,,,,,,,,
,,,,,,,,,,1573985,2020-10-27_18h25.53.604,swahili,2020.2.4,MacIntel,60,,,,,,,,,,,,,,,,,,,,,,,,,,,,,,,,,,,,,,,,,,,,,,,,,,,8.133435,0.567214627,0.003072917,1,0,0,0.465735,yes,GRAPES,ZABIBU,incorrect,11,0,11,0,1,,,,,,,,,,,,,,,,,,,,,,,,,,,,,,,,,,,,
,,,,,,,,,,1573985,2020-10-27_18h25.53.604,swahili,2020.2.4,MacIntel,60,,,,,,,,,,,,,,,,,,,,,,,,,,,,,,,,,,,,,,,,,,,,,,,,,,,16.44873,0.453483073,-0.013532986,1,0,0,0.418825,yes,BULL,HAFILI,incorrect,12,0,12,0,1,,,,,,,,,,,,,,,,,,,,,,,,,,,,,,,,,,,,
,,,,,,,,,,1573985,2020-10-27_18h25.53.604,swahili,2020.2.4,MacIntel,60,,,,,,,,,,,,,,,,,,,,,,,,,,,,,,,,,,,,,,,,,,,,,,,,,,,12.063535,0.341205512,-0.135920139,1,0,0,0.482705,yes,PARROT,KASUKI,incorrect,13,0,13,0,1,,,,,,,,,,,,,,,,,,,,,,,,,,,,,,,,,,,,
,,,,,,,,,,1573985,2020-10-27_18h25.53.604,swahili,2020.2.4,MacIntel,60,,,,,,,,,,,,,,,,,,,,,,,,,,,,,,,,,,,,,,,,,,,,,,,,,,,6.480915,0.39546441,-0.039401042,1,0,0,0.44989,yes,TAILOR,MSHONI,incorrect,14,0,14,0,1,,,,,,,,,,,,,,,,,,,,,,,,,,,,,,,,,,,,
,,,,,,,,,,1573985,2020-10-27_18h25.53.604,swahili,2020.2.4,MacIntel,60,,,,,,,,,,,,,,,,,,,,,,,,,,,,,,,,,,,,,,,,,,,,,,,,,,,12.430935,0.439111328,0.062630208,1,0,0,0.451165,yes,CHEESE,FAHILI,incorrect,15,0,15,0,1,,,,,,,,,,,,,,,,,,,,,,,,,,,,,,,,,,,,
,,,,,,,,,,1573985,2020-10-27_18h25.53.604,swahili,2020.2.4,MacIntel,60,,,,,,,,,,,,,,,,,,,,,,,,,,,,,,,,,,,,,,,,,,,,,,,,,,,20.74771,0.42554796,0.045885417,1,0,0,0.45225,yes,BLAME,YAMADA,incorrect,16,0,16,0,1,,,,,,,,,,,,,,,,,,,,,,,,,,,,,,,,,,,,
,,,,,,,,,,1573985,2020-10-27_18h25.53.604,swahili,2020.2.4,MacIntel,60,,,,,,,,,,,,,,,,,,,,,,,,,,,,,,,,,,,,,,,,,,,,,,,,,,,6.804145,0.371592882,-0.069227431,1,0,0,0.477345,yes,MERCHANT,FAHILI,incorrect,17,0,17,0,1,,,,,,,,,,,,,,,,,,,,,,,,,,,,,,,,,,,,
,,,,,,,,,,1573985,2020-10-27_18h25.53.604,swahili,2020.2.4,MacIntel,60,,,,,,,,,,,,,,,,,,,,,,,,,,,,,,,,,,,,,,,,,,,,,,,,,,,8.332855,0.476497396,-0.065963542,1,0,0,0.462935,yes,TREASURE,DAMIKA,incorrect,18,0,18,0,1,,,,,,,,,,,,,,,,,,,,,,,,,,,,,,,,,,,,
,,,,,,,,,,1573985,2020-10-27_18h25.53.604,swahili,2020.2.4,MacIntel,60,,,,,,,,,,,,,,,,,,,,,,,,,,,,,,,,,,,,,,,,,,,,,,,,,,,19.81821,0.448377821,-0.105928819,1,0,0,0.580105,yes,CORN,FAHILI,incorrect,19,0,19,0,1,,,,,,,,,,,,,,,,,,,,,,,,,,,,,,,,,,,,
,,,,,,,,,,1573985,2020-10-27_18h25.53.604,swahili,2020.2.4,MacIntel,60,,,,,,,,,,,,,,,,,,,,,,,,,,,,,,,,,,,,,,,,0,0,0,0,1,,,,,,,,,,,,,,,,,,,,,,,,,,,,,,,,,,,,,,,,,,,,,,,,,,,,,,,,,,
,,,,,,,,,,1573985,2020-10-27_18h25.53.604,swahili,2020.2.4,MacIntel,60,,,,,,,,,,,,,,,,,,,,,,,,,,,,,,,,,,,,,,,,1,0,1,0,1,,,,,,,,,,,,,,,,,,,,,,,,,,,,,,,,,,,,,,,,,,,,,,,,,,,,,,,,,,
,,,,,,,,,,1573985,2020-10-27_18h25.53.604,swahili,2020.2.4,MacIntel,60,,,,,,,,,,,,,,,,,,,,,,,,,,,,,,,,,,,,,,,,,,,,,4,0,4,0,1,,,,,,,,,,,,,,,,,,,,,,,,,,,,,,,,,,,,,,,,,,,,,,,,,,,,,
,,,,,,,,,,1573985,2020-10-27_18h25.53.604,swahili,2020.2.4,MacIntel,60,,,,,,,,,,-0.275504557,-0.013116319,1,0,0,1.618805,unsorted_card,0,0,0,0,1,,,,,,,,,,,,,,,,,,,,,,,,,,,,,,,,,,,,,,,,,,,,,,,,,,,,,,,,,,,,,,,,,,,,,,,,,,,,,,,,,
,,,,,,,,,,1573985,2020-10-27_18h25.53.604,swahili,2020.2.4,MacIntel,60,,,,,,,,,,0.505322266,-0.053177083,1,0,0,2.279075,test_pile,1,0,1,0,1,MERCHANT - TAJIRI,,,,,,,,,,,,,,,,,,,,,,,,,,,,,,,,,,,,,,,,,,,,,,,,,,,,,,,,,,,,,,,,,,,,,,,,,,,,,,,,
,,,,,,,,,,1573985,2020-10-27_18h25.53.604,swahili,2020.2.4,MacIntel,60,,,,,,,,,,-0.299316406,-0.057934028,1,0,0,0.48316,unsorted_card,2,0,2,0,1,,,,,,,,,,,,,,,,,,,,,,,,,,,,,,,,,,,,,,,,,,,,,,,,,,,,,,,,,,,,,,,,,,,,,,,,,,,,,,,,,
,,,,,,,,,,1573985,2020-10-27_18h25.53.604,swahili,2020.2.4,MacIntel,60,,,,,,,,,,0.38312717,-0.012795139,1,0,0,1.81598,test_pile,3,0,3,0,1,PARROT - KASUKU,,,,,,,,,,,,,,,,,,,,,,,,,,,,,,,,,,,,,,,,,,,,,,,,,,,,,,,,,,,,,,,,,,,,,,,,,,,,,,,,
,,,,,,,,,,1573985,2020-10-27_18h25.53.604,swahili,2020.2.4,MacIntel,60,,,,,,,,,,-0.464588759,0.018324653,1,0,0,0.39916,unsorted_card,4,0,4,0,1,,,,,,,,,,,,,,,,,,,,,,,,,,,,,,,,,,,,,,,,,,,,,,,,,,,,,,,,,,,,,,,,,,,,,,,,,,,,,,,,,
,,,,,,,,,,1573985,2020-10-27_18h25.53.604,swahili,2020.2.4,MacIntel,60,,,,,,,,,,0.452707248,-0.013168403,1,0,0,1.3168,test_pile,5,0,5,0,1,BULL - FAHILI,,,,,,,,,,,,,,,,,,,,,,,,,,,,,,,,,,,,,,,,,,,,,,,,,,,,,,,,,,,,,,,,,,,,,,,,,,,,,,,,
,,,,,,,,,,1573985,2020-10-27_18h25.53.604,swahili,2020.2.4,MacIntel,60,,,,,,,,,,-0.471983507,-0.067517361,1,0,0,0.54907,unsorted_card,6,0,6,0,1,,,,,,,,,,,,,,,,,,,,,,,,,,,,,,,,,,,,,,,,,,,,,,,,,,,,,,,,,,,,,,,,,,,,,,,,,,,,,,,,,
,,,,,,,,,,1573985,2020-10-27_18h25.53.604,swahili,2020.2.4,MacIntel,60,,,,,,,,,,0.391693793,0.116831597,1,0,0,2.2972,test_pile,7,0,7,0,1,PLATE - SAHANI,,,,,,,,,,,,,,,,,,,,,,,,,,,,,,,,,,,,,,,,,,,,,,,,,,,,,,,,,,,,,,,,,,,,,,,,,,,,,,,,
,,,,,,,,,,1573985,2020-10-27_18h25.53.604,swahili,2020.2.4,MacIntel,60,,,,,,,,,,-0.211919488,-0.164140625,1,0,0,0.47961,unsorted_card,8,0,8,0,1,,,,,,,,,,,,,,,,,,,,,,,,,,,,,,,,,,,,,,,,,,,,,,,,,,,,,,,,,,,,,,,,,,,,,,,,,,,,,,,,,
,,,,,,,,,,1573985,2020-10-27_18h25.53.604,swahili,2020.2.4,MacIntel,60,,,,,,,,,,0.419992405,-0.485755208,1,0,0,4.93363,done_pile,9,0,9,0,1,YEAST - HAMIRA,,,,,,,,,,,,,,,,,,,,,,,,,,,,,,,,,,,,,,,,,,,,,,,,,,,,,,,,,,,,,,,,,,,,,,,,,,,,,,,,
,,,,,,,,,,1573985,2020-10-27_18h25.53.604,swahili,2020.2.4,MacIntel,60,,,,,,,,,,-0.215597873,-0.051979167,1,0,0,0.75,unsorted_card,10,0,10,0,1,,,,,,,,,,,,,,,,,,,,,,,,,,,,,,,,,,,,,,,,,,,,,,,,,,,,,,,,,,,,,,,,,,,,,,,,,,,,,,,,,
,,,,,,,,,,1573985,2020-10-27_18h25.53.604,swahili,2020.2.4,MacIntel,60,,,,,,,,,,0.405056424,-0.077743056,1,0,0,1.265835,test_pile,11,0,11,0,1,BLAME - LAWAMA,,,,,,,,,,,,,,,,,,,,,,,,,,,,,,,,,,,,,,,,,,,,,,,,,,,,,,,,,,,,,,,,,,,,,,,,,,,,,,,,
,,,,,,,,,,1573985,2020-10-27_18h25.53.604,swahili,2020.2.4,MacIntel,60,,,,,,,,,,-0.442637804,0.009826389,1,0,0,0.43131,unsorted_card,12,0,12,0,1,,,,,,,,,,,,,,,,,,,,,,,,,,,,,,,,,,,,,,,,,,,,,,,,,,,,,,,,,,,,,,,,,,,,,,,,,,,,,,,,,
,,,,,,,,,,1573985,2020-10-27_18h25.53.604,swahili,2020.2.4,MacIntel,60,,,,,,,,,,0.532134332,0.029288194,1,0,0,6.01532,test_pile,13,0,13,0,1,OATH - YAMINI,,,,,,,,,,,,,,,,,,,,,,,,,,,,,,,,,,,,,,,,,,,,,,,,,,,,,,,,,,,,,,,,,,,,,,,,,,,,,,,,
,,,,,,,,,,1573985,2020-10-27_18h25.53.604,swahili,2020.2.4,MacIntel,60,,,,,,,,,,-0.22179362,-0.023368056,1,0,0,0.4297,unsorted_card,14,0,14,0,1,,,,,,,,,,,,,,,,,,,,,,,,,,,,,,,,,,,,,,,,,,,,,,,,,,,,,,,,,,,,,,,,,,,,,,,,,,,,,,,,,
,,,,,,,,,,1573985,2020-10-27_18h25.53.604,swahili,2020.2.4,MacIntel,60,,,,,,,,,,0.379855686,-0.051909722,1,0,0,2.203215,test_pile,15,0,15,0,1,CORN - NAFAKA,,,,,,,,,,,,,,,,,,,,,,,,,,,,,,,,,,,,,,,,,,,,,,,,,,,,,,,,,,,,,,,,,,,,,,,,,,,,,,,,
,,,,,,,,,,1573985,2020-10-27_18h25.53.604,swahili,2020.2.4,MacIntel,60,,,,,,,,,,-0.338330078,-0.048628472,1,0,0,0.54622,unsorted_card,16,0,16,0,1,,,,,,,,,,,,,,,,,,,,,,,,,,,,,,,,,,,,,,,,,,,,,,,,,,,,,,,,,,,,,,,,,,,,,,,,,,,,,,,,,
,,,,,,,,,,1573985,2020-10-27_18h25.53.604,swahili,2020.2.4,MacIntel,60,,,,,,,,,,0.348030599,-0.462404514,1,0,0,1.5951,done_pile,17,0,17,0,1,POEM - UTENZI,,,,,,,,,,,,,,,,,,,,,,,,,,,,,,,,,,,,,,,,,,,,,,,,,,,,,,,,,,,,,,,,,,,,,,,,,,,,,,,,
,,,,,,,,,,1573985,2020-10-27_18h25.53.604,swahili,2020.2.4,MacIntel,60,,,,,,,,,,-0.401209852,0.080833333,1,0,0,0.46707,unsorted_card,18,0,18,0,1,,,,,,,,,,,,,,,,,,,,,,,,,,,,,,,,,,,,,,,,,,,,,,,,,,,,,,,,,,,,,,,,,,,,,,,,,,,,,,,,,
,,,,,,,,,,1573985,2020-10-27_18h25.53.604,swahili,2020.2.4,MacIntel,60,,,,,,,,,,0.512272135,-0.509592014,1,0,0,1.55103,done_pile,19,0,19,0,1,TAILOR - MSHONI,,,,,,,,,,,,,,,,,,,,,,,,,,,,,,,,,,,,,,,,,,,,,,,,,,,,,,,,,,,,,,,,,,,,,,,,,,,,,,,,
,,,,,,,,,,1573985,2020-10-27_18h25.53.604,swahili,2020.2.4,MacIntel,60,,,,,,,,,,-0.218701172,-0.110442708,1,0,0,0.51285,unsorted_card,20,0,20,0,1,,,,,,,,,,,,,,,,,,,,,,,,,,,,,,,,,,,,,,,,,,,,,,,,,,,,,,,,,,,,,,,,,,,,,,,,,,,,,,,,,
,,,,,,,,,,1573985,2020-10-27_18h25.53.604,swahili,2020.2.4,MacIntel,60,,,,,,,,,,0.462228733,-0.020104167,1,0,0,1.082345,test_pile,21,0,21,0,1,CHEESE - JIBINI,,,,,,,,,,,,,,,,,,,,,,,,,,,,,,,,,,,,,,,,,,,,,,,,,,,,,,,,,,,,,,,,,,,,,,,,,,,,,,,,
,,,,,,,,,,1573985,2020-10-27_18h25.53.604,swahili,2020.2.4,MacIntel,60,,,,,,,,,,-0.203553602,0.024079861,1,0,0,0.448895,unsorted_card,22,0,22,0,1,,,,,,,,,,,,,,,,,,,,,,,,,,,,,,,,,,,,,,,,,,,,,,,,,,,,,,,,,,,,,,,,,,,,,,,,,,,,,,,,,
,,,,,,,,,,1573985,2020-10-27_18h25.53.604,swahili,2020.2.4,MacIntel,60,,,,,,,,,,0.360150825,-0.024314236,1,0,0,1.782315,test_pile,23,0,23,0,1,GRAPES - ZABIBU,,,,,,,,,,,,,,,,,,,,,,,,,,,,,,,,,,,,,,,,,,,,,,,,,,,,,,,,,,,,,,,,,,,,,,,,,,,,,,,,
,,,,,,,,,,1573985,2020-10-27_18h25.53.604,swahili,2020.2.4,MacIntel,60,,,,,,,,,,-0.222715929,-0.029140625,1,0,0,0.500985,unsorted_card,24,0,24,0,1,,,,,,,,,,,,,,,,,,,,,,,,,,,,,,,,,,,,,,,,,,,,,,,,,,,,,,,,,,,,,,,,,,,,,,,,,,,,,,,,,
,,,,,,,,,,1573985,2020-10-27_18h25.53.604,swahili,2020.2.4,MacIntel,60,,,,,,,,,,0.458582899,-0.489548611,1,0,0,2.01811,done_pile,25,0,25,0,1,GRAVE - KABURI,,,,,,,,,,,,,,,,,,,,,,,,,,,,,,,,,,,,,,,,,,,,,,,,,,,,,,,,,,,,,,,,,,,,,,,,,,,,,,,,
,,,,,,,,,,1573985,2020-10-27_18h25.53.604,swahili,2020.2.4,MacIntel,60,,,,,,,,,,-0.305875651,-0.138680556,1,0,0,0.49389,unsorted_card,26,0,26,0,1,,,,,,,,,,,,,,,,,,,,,,,,,,,,,,,,,,,,,,,,,,,,,,,,,,,,,,,,,,,,,,,,,,,,,,,,,,,,,,,,,
,,,,,,,,,,1573985,2020-10-27_18h25.53.604,swahili,2020.2.4,MacIntel,60,,,,,,,,,,0.468055556,-0.076909722,1,0,0,1.96622,test_pile,27,0,27,0,1,MANURE - SAMADI,,,,,,,,,,,,,,,,,,,,,,,,,,,,,,,,,,,,,,,,,,,,,,,,,,,,,,,,,,,,,,,,,,,,,,,,,,,,,,,,
,,,,,,,,,,1573985,2020-10-27_18h25.53.604,swahili,2020.2.4,MacIntel,60,,,,,,,,,,-0.245556641,-0.056553819,1,0,0,0.45172,unsorted_card,28,0,28,0,1,,,,,,,,,,,,,,,,,,,,,,,,,,,,,,,,,,,,,,,,,,,,,,,,,,,,,,,,,,,,,,,,,,,,,,,,,,,,,,,,,
,,,,,,,,,,1573985,2020-10-27_18h25.53.604,swahili,2020.2.4,MacIntel,60,,,,,,,,,,0.446603733,-0.054375,1,0,0,1.29709,test_pile,29,0,29,0,1,AGENT - WAKILI,,,,,,,,,,,,,,,,,,,,,,,,,,,,,,,,,,,,,,,,,,,,,,,,,,,,,,,,,,,,,,,,,,,,,,,,,,,,,,,,
,,,,,,,,,,1573985,2020-10-27_18h25.53.604,swahili,2020.2.4,MacIntel,60,,,,,,,,,,-0.25242513,-0.033385417,1,0,0,0.49795,unsorted_card,30,0,30,0,1,,,,,,,,,,,,,,,,,,,,,,,,,,,,,,,,,,,,,,,,,,,,,,,,,,,,,,,,,,,,,,,,,,,,,,,,,,,,,,,,,
,,,,,,,,,,1573985,2020-10-27_18h25.53.604,swahili,2020.2.4,MacIntel,60,,,,,,,,,,0.442485894,-0.018611111,1,0,0,1.519345,test_pile,31,0,31,0,1,BRIBE - RUSHWA,,,,,,,,,,,,,,,,,,,,,,,,,,,,,,,,,,,,,,,,,,,,,,,,,,,,,,,,,,,,,,,,,,,,,,,,,,,,,,,,
,,,,,,,,,,1573985,2020-10-27_18h25.53.604,swahili,2020.2.4,MacIntel,60,,,,,,,,,,-0.13554145,-0.030859375,1,0,0,0.466575,unsorted_card,32,0,32,0,1,,,,,,,,,,,,,,,,,,,,,,,,,,,,,,,,,,,,,,,,,,,,,,,,,,,,,,,,,,,,,,,,,,,,,,,,,,,,,,,,,
,,,,,,,,,,1573985,2020-10-27_18h25.53.604,swahili,2020.2.4,MacIntel,60,,,,,,,,,,0.527853733,0.005329861,1,0,0,1.01159,test_pile,33,0,33,0,1,ORPHAN - YATIMA,,,,,,,,,,,,,,,,,,,,,,,,,,,,,,,,,,,,,,,,,,,,,,,,,,,,,,,,,,,,,,,,,,,,,,,,,,,,,,,,
,,,,,,,,,,1573985,2020-10-27_18h25.53.604,swahili,2020.2.4,MacIntel,60,,,,,,,,,,-0.289301215,0.026657986,1,0,0,0.44771,unsorted_card,34,0,34,0,1,,,,,,,,,,,,,,,,,,,,,,,,,,,,,,,,,,,,,,,,,,,,,,,,,,,,,,,,,,,,,,,,,,,,,,,,,,,,,,,,,
,,,,,,,,,,1573985,2020-10-27_18h25.53.604,swahili,2020.2.4,MacIntel,60,,,,,,,,,,0.42406684,-0.039609375,1,0,0,1.384095,test_pile,35,0,35,0,1,DIVORCE - TALAKA,,,,,,,,,,,,,,,,,,,,,,,,,,,,,,,,,,,,,,,,,,,,,,,,,,,,,,,,,,,,,,,,,,,,,,,,,,,,,,,,
,,,,,,,,,,1573985,2020-10-27_18h25.53.604,swahili,2020.2.4,MacIntel,60,,,,,,,,,,-0.355121528,-0.150755208,1,0,0,0.44668,unsorted_card,36,0,36,0,1,,,,,,,,,,,,,,,,,,,,,,,,,,,,,,,,,,,,,,,,,,,,,,,,,,,,,,,,,,,,,,,,,,,,,,,,,,,,,,,,,
,,,,,,,,,,1573985,2020-10-27_18h25.53.604,swahili,2020.2.4,MacIntel,60,,,,,,,,,,0.379806858,-0.491328125,1,0,0,5.09943,done_pile,37,0,37,0,1,BOAT - MASHUA,,,,,,,,,,,,,,,,,,,,,,,,,,,,,,,,,,,,,,,,,,,,,,,,,,,,,,,,,,,,,,,,,,,,,,,,,,,,,,,,
,,,,,,,,,,1573985,2020-10-27_18h25.53.604,swahili,2020.2.4,MacIntel,60,,,,,,,,,,-0.279530165,-0.119097222,1,0,0,0.49986,unsorted_card,38,0,38,0,1,,,,,,,,,,,,,,,,,,,,,,,,,,,,,,,,,,,,,,,,,,,,,,,,,,,,,,,,,,,,,,,,,,,,,,,,,,,,,,,,,
,,,,,,,,,,1573985,2020-10-27_18h25.53.604,swahili,2020.2.4,MacIntel,60,,,,,,,,,,0.379432509,0.014991319,1,0,0,1.24791,test_pile,39,0,39,0,1,TREASURE - DAFINA,,,,,,,,,,,,,,,,,,,,,,,,,,,,,,,,,,,,,,,,,,,,,,,,,,,,,,,,,,,,,,,,,,,,,,,,,,,,,,,,
,,,,,,,,,,1573985,2020-10-27_18h25.53.604,swahili,2020.2.4,MacIntel,60,,,,,,,,,,,,,,,,,,,,,,,,,,,,,,,,,,0,0,0,0,1,,,,,,,,,,,,,,,,,,,,,,,,,,,,,,,,,,,,,,,,,,,,,,,,,,,,,,,,,,,,,,,,
,,,,,,,,,,1573985,2020-10-27_18h25.53.604,swahili,2020.2.4,MacIntel,60,,,,,,,,,,,,,,,,,,,,,,,,,,,,,,,,,,,,,,,return,,,,,,,,,,,1.11574,11.56635,0.521522352,-0.127569444,1,0,0,0.595135,yes,DIVORCE,WA,incorrect,0,0,0,0,1,,,,,,,,,,,,,,,,,,,,,,,,,,,,,,,,,,,,
,,,,,,,,,,1573985,2020-10-27_18h25.53.604,swahili,2020.2.4,MacIntel,60,,,,,,,,,,,,,,,,,,,,,,,,,,,,,,,,,,,,,,,,,,,,,,,,,,,3.95003,0.503721788,0.080442708,1,0,0,0.44721,yes,ORPHAN,YAMALA,incorrect,1,0,1,0,1,,,,,,,,,,,,,,,,,,,,,,,,,,,,,,,,,,,,
,,,,,,,,,,1573985,2020-10-27_18h25.53.604,swahili,2020.2.4,MacIntel,60,,,,,,,,,,,,,,,,,,,,,,,,,,,,,,,,,,,,,,,,,,,,,,,,,,,3.11232,0.406613498,-0.076362847,1,0,0,0.420435,yes,OATH,YAMALA,incorrect,2,0,2,0,1,,,,,,,,,,,,,,,,,,,,,,,,,,,,,,,,,,,,
,,,,,,,,,,1573985,2020-10-27_18h25.53.604,swahili,2020.2.4,MacIntel,60,,,,,,,,,,,,,,,,,,,,,,,,,,,,,,,,,,,,,,,,,,,,,,,,,,,4.497195,0.560715061,-0.103029514,1,0,0,0.49955,yes,MERCHANT,TAJIRI,incorrect,3,0,3,0,1,,,,,,,,,,,,,,,,,,,,,,,,,,,,,,,,,,,,
,,,,,,,,,,1573985,2020-10-27_18h25.53.604,swahili,2020.2.4,MacIntel,60,,,,,,,,,,,,,,,,,,,,,,,,,,,,,,,,,,,,,,,,,,,,,,,,,,,2.997175,0.442458767,0.150190972,1,0,0,0.485635,yes,MANURE,SAMADI,incorrect,4,0,4,0,1,,,,,,,,,,,,,,,,,,,,,,,,,,,,,,,,,,,,
,,,,,,,,,,1573985,2020-10-27_18h25.53.604,swahili,2020.2.4,MacIntel,60,,,,,,,,,,,,,,,,,,,,,,,,,,,,,,,,,,,,,,,,,,,,,,,,,,,5.248995,0.40086263,0.102552083,1,0,0,0.447855,yes,BULL,FAHILI,incorrect,5,0,5,0,1,,,,,,,,,,,,,,,,,,,,,,,,,,,,,,,,,,,,
,,,,,,,,,,1573985,2020-10-27_18h25.53.604,swahili,2020.2.4,MacIntel,60,,,,,,,,,,,,,,,,,,,,,,,,,,,,,,,,,,,,,,,,,,,,,,,,,,,10.518475,0.293733724,-0.029140625,1,0,0,0.612805,yes,CHEESE,JIBLI,incorrect,6,0,6,0,1,,,,,,,,,,,,,,,,,,,,,,,,,,,,,,,,,,,,
,,,,,,,,,,1573985,2020-10-27_18h25.53.604,swahili,2020.2.4,MacIntel,60,,,,,,,,,,,,,,,,,,,,,,,,,,,,,,,,,,,,,,,,,,,,,,,,,,,8.598375,0.393777127,0.002907986,1,0,0,0.415865,yes,PARROT,KASUKI,incorrect,7,0,7,0,1,,,,,,,,,,,,,,,,,,,,,,,,,,,,,,,,,,,,
,,,,,,,,,,1573985,2020-10-27_18h25.53.604,swahili,2020.2.4,MacIntel,60,,,,,,,,,,,,,,,,,,,,,,,,,,,,,,,,,,,,,,,,,,,,,,,,,,,9.41271,0.555821398,0.10953125,1,0,0,0.45272,yes,AGENT,HAMIDI,incorrect,8,0,8,0,1,,,,,,,,,,,,,,,,,,,,,,,,,,,,,,,,,,,,
,,,,,,,,,,1573985,2020-10-27_18h25.53.604,swahili,2020.2.4,MacIntel,60,,,,,,,,,,,,,,,,,,,,,,,,,,,,,,,,,,,,,,,,,,,,,,,,,,,8.75024,0.660460069,-0.081571181,1,0,0,0.451845,yes,CORN,HAFAKA,incorrect,9,0,9,0,1,,,,,,,,,,,,,,,,,,,,,,,,,,,,,,,,,,,,
,,,,,,,,,,1573985,2020-10-27_18h25.53.604,swahili,2020.2.4,MacIntel,60,,,,,,,,,,,,,,,,,,,,,,,,,,,,,,,,,,,,,,,,,,,,,,,,,,,5.865125,0.413785807,0.073810764,1,0,0,0.461775,yes,BRIBE,RUSHWA,incorrect,10,0,10,0,1,,,,,,,,,,,,,,,,,,,,,,,,,,,,,,,,,,,,
,,,,,,,,,,1573985,2020-10-27_18h25.53.604,swahili,2020.2.4,MacIntel,60,,,,,,,,,,,,,,,,,,,,,,,,,,,,,,,,,,,,,,,,,,,,,,,,,,,6.1808,0.409705946,0.036987847,1,0,0,0.43286,yes,GRAPES,ZABIBU,incorrect,11,0,11,0,1,,,,,,,,,,,,,,,,,,,,,,,,,,,,,,,,,,,,
,,,,,,,,,,1573985,2020-10-27_18h25.53.604,swahili,2020.2.4,MacIntel,60,,,,,,,,,,,,,,,,,,,,,,,,,,,,,,,,,,,,,,,,,,,,,,,,,,,7.21901,0.415001085,0.045911458,1,0,0,0.53053,yes,BLAME,WAKILI,incorrect,12,0,12,0,1,,,,,,,,,,,,,,,,,,,,,,,,,,,,,,,,,,,,
,,,,,,,,,,1573985,2020-10-27_18h25.53.604,swahili,2020.2.4,MacIntel,60,,,,,,,,,,,,,,,,,,,,,,,,,,,,,,,,,,,,,,,,,,,,,,,,,,,4.56531,0.450282118,0.059019097,1,0,0,0.414405,yes,TREASURE,DAFINA,incorrect,13,0,13,0,1,,,,,,,,,,,,,,,,,,,,,,,,,,,,,,,,,,,,
,,,,,,,,,,1573985,2020-10-27_18h25.53.604,swahili,2020.2.4,MacIntel,60,,,,,,,,,,,,,,,,,,,,,,,,,,,,,,,,,,,,,,,,,,,,,,,,,,,5.698365,0.491552734,0.111440972,1,0,0,0.500125,yes,PLATE,SAMALA,incorrect,14,0,14,0,1,,,,,,,,,,,,,,,,,,,,,,,,,,,,,,,,,,,,
,,,,,,,,,,1573985,2020-10-27_18h25.53.604,swahili,2020.2.4,MacIntel,60,,,,,,,,,,,,,,,,,,,,,,,,,,,,,,,,,,,,,,,,0,0,0,0,1,,,,,,,,,,,,,,,,,,,,,,,,,,,,,,,,,,,,,,,,,,,,,,,,,,,,,,,,,,
,,,,,,,,,,1573985,2020-10-27_18h25.53.604,swahili,2020.2.4,MacIntel,60,,,,,,,,,,,,,,,,,,,,,,,,,,,,,,,,,,,,,,,,1,0,1,0,1,,,,,,,,,,,,,,,,,,,,,,,,,,,,,,,,,,,,,,,,,,,,,,,,,,,,,,,,,,
,,,,,,,,,,1573985,2020-10-27_18h25.53.604,swahili,2020.2.4,MacIntel,60,,,,,,,,,,,,,,,,,,,,,,,,,,,,,,,,,,,,,,,,,,,,,5,0,5,0,1,,,,,,,,,,,,,,,,,,,,,,,,,,,,,,,,,,,,,,,,,,,,,,,,,,,,,
,,,,,,,,,,1573985,2020-10-27_18h25.53.604,swahili,2020.2.4,MacIntel,60,,,,,,,,,,-0.264127604,-0.137335069,1,0,0,1.017535,unsorted_card,0,0,0,0,1,,,,,,,,,,,,,,,,,,,,,,,,,,,,,,,,,,,,,,,,,,,,,,,,,,,,,,,,,,,,,,,,,,,,,,,,,,,,,,,,,
,,,,,,,,,,1573985,2020-10-27_18h25.53.604,swahili,2020.2.4,MacIntel,60,,,,,,,,,,0.378575304,0.024470486,1,0,0,1.32848,test_pile,1,0,1,0,1,MERCHANT - TAJIRI,,,,,,,,,,,,,,,,,,,,,,,,,,,,,,,,,,,,,,,,,,,,,,,,,,,,,,,,,,,,,,,,,,,,,,,,,,,,,,,,
,,,,,,,,,,1573985,2020-10-27_18h25.53.604,swahili,2020.2.4,MacIntel,60,,,,,,,,,,-0.393684896,0.051892361,1,0,0,0.40129,unsorted_card,2,0,2,0,1,,,,,,,,,,,,,,,,,,,,,,,,,,,,,,,,,,,,,,,,,,,,,,,,,,,,,,,,,,,,,,,,,,,,,,,,,,,,,,,,,
,,,,,,,,,,1573985,2020-10-27_18h25.53.604,swahili,2020.2.4,MacIntel,60,,,,,,,,,,0.369205729,0.014340278,1,0,0,2.08153,test_pile,3,0,3,0,1,PARROT - KASUKU,,,,,,,,,,,,,,,,,,,,,,,,,,,,,,,,,,,,,,,,,,,,,,,,,,,,,,,,,,,,,,,,,,,,,,,,,,,,,,,,
,,,,,,,,,,1573985,2020-10-27_18h25.53.604,swahili,2020.2.4,MacIntel,60,,,,,,,,,,-0.150564236,0.00125,1,0,0,0.43484,unsorted_card,4,0,4,0,1,,,,,,,,,,,,,,,,,,,,,,,,,,,,,,,,,,,,,,,,,,,,,,,,,,,,,,,,,,,,,,,,,,,,,,,,,,,,,,,,,
,,,,,,,,,,1573985,2020-10-27_18h25.53.604,swahili,2020.2.4,MacIntel,60,,,,,,,,,,0.511903212,-0.47828125,1,0,0,1.44778,done_pile,5,0,5,0,1,BULL - FAHILI,,,,,,,,,,,,,,,,,,,,,,,,,,,,,,,,,,,,,,,,,,,,,,,,,,,,,,,,,,,,,,,,,,,,,,,,,,,,,,,,
,,,,,,,,,,1573985,2020-10-27_18h25.53.604,swahili,2020.2.4,MacIntel,60,,,,,,,,,,-0.043234592,-0.289262153,1,0,0,0.478535,unsorted_card,6,0,6,0,1,,,,,,,,,,,,,,,,,,,,,,,,,,,,,,,,,,,,,,,,,,,,,,,,,,,,,,,,,,,,,,,,,,,,,,,,,,,,,,,,,
,,,,,,,,,,1573985,2020-10-27_18h25.53.604,swahili,2020.2.4,MacIntel,60,,,,,,,,,,0.512424045,-0.014201389,1,0,0,1.078825,test_pile,7,0,7,0,1,PLATE - SAHANI,,,,,,,,,,,,,,,,,,,,,,,,,,,,,,,,,,,,,,,,,,,,,,,,,,,,,,,,,,,,,,,,,,,,,,,,,,,,,,,,
,,,,,,,,,,1573985,2020-10-27_18h25.53.604,swahili,2020.2.4,MacIntel,60,,,,,,,,,,-0.350857205,-0.079748264,1,0,0,0.518595,unsorted_card,8,0,8,0,1,,,,,,,,,,,,,,,,,,,,,,,,,,,,,,,,,,,,,,,,,,,,,,,,,,,,,,,,,,,,,,,,,,,,,,,,,,,,,,,,,
,,,,,,,,,,1573985,2020-10-27_18h25.53.604,swahili,2020.2.4,MacIntel,60,,,,,,,,,,0.490559896,-0.079357639,1,0,0,1.548995,test_pile,9,0,9,0,1,BLAME - LAWAMA,,,,,,,,,,,,,,,,,,,,,,,,,,,,,,,,,,,,,,,,,,,,,,,,,,,,,,,,,,,,,,,,,,,,,,,,,,,,,,,,
,,,,,,,,,,1573985,2020-10-27_18h25.53.604,swahili,2020.2.4,MacIntel,60,,,,,,,,,,-0.456396484,-0.103125,1,0,0,0.462915,unsorted_card,10,0,10,0,1,,,,,,,,,,,,,,,,,,,,,,,,,,,,,,,,,,,,,,,,,,,,,,,,,,,,,,,,,,,,,,,,,,,,,,,,,,,,,,,,,
,,,,,,,,,,1573985,2020-10-27_18h25.53.604,swahili,2020.2.4,MacIntel,60,,,,,,,,,,0.382666016,0.010442708,1,0,0,1.322025,test_pile,11,0,11,0,1,OATH - YAMINI,,,,,,,,,,,,,,,,,,,,,,,,,,,,,,,,,,,,,,,,,,,,,,,,,,,,,,,,,,,,,,,,,,,,,,,,,,,,,,,,
,,,,,,,,,,1573985,2020-10-27_18h25.53.604,swahili,2020.2.4,MacIntel,60,,,,,,,,,,-0.369520399,0.137673611,1,0,0,0.49205,unsorted_card,12,0,12,0,1,,,,,,,,,,,,,,,,,,,,,,,,,,,,,,,,,,,,,,,,,,,,,,,,,,,,,,,,,,,,,,,,,,,,,,,,,,,,,,,,,
,,,,,,,,,,1573985,2020-10-27_18h25.53.604,swahili,2020.2.4,MacIntel,60,,,,,,,,,,0.462358941,0.056006944,1,0,0,1.636205,test_pile,13,0,13,0,1,CORN - NAFAKA,,,,,,,,,,,,,,,,,,,,,,,,,,,,,,,,,,,,,,,,,,,,,,,,,,,,,,,,,,,,,,,,,,,,,,,,,,,,,,,,
,,,,,,,,,,1573985,2020-10-27_18h25.53.604,swahili,2020.2.4,MacIntel,60,,,,,,,,,,-0.321099175,0.027456597,1,0,0,0.428065,unsorted_card,14,0,14,0,1,,,,,,,,,,,,,,,,,,,,,,,,,,,,,,,,,,,,,,,,,,,,,,,,,,,,,,,,,,,,,,,,,,,,,,,,,,,,,,,,,
,,,,,,,,,,1573985,2020-10-27_18h25.53.604,swahili,2020.2.4,MacIntel,60,,,,,,,,,,0.466547309,-0.002369792,1,0,0,1.95226,test_pile,15,0,15,0,1,CHEESE - JIBINI,,,,,,,,,,,,,,,,,,,,,,,,,,,,,,,,,,,,,,,,,,,,,,,,,,,,,,,,,,,,,,,,,,,,,,,,,,,,,,,,
,,,,,,,,,,1573985,2020-10-27_18h25.53.604,swahili,2020.2.4,MacIntel,60,,,,,,,,,,-0.478238932,0.066640625,1,0,0,0.41363,unsorted_card,16,0,16,0,1,,,,,,,,,,,,,,,,,,,,,,,,,,,,,,,,,,,,,,,,,,,,,,,,,,,,,,,,,,,,,,,,,,,,,,,,,,,,,,,,,
,,,,,,,,,,1573985,2020-10-27_18h25.53.604,swahili,2020.2.4,MacIntel,60,,,,,,,,,,0.34797092,-0.442048611,1,0,0,1.5478,done_pile,17,0,17,0,1,GRAPES - ZABIBU,,,,,,,,,,,,,,,,,,,,,,,,,,,,,,,,,,,,,,,,,,,,,,,,,,,,,,,,,,,,,,,,,,,,,,,,,,,,,,,,
,,,,,,,,,,1573985,2020-10-27_18h25.53.604,swahili,2020.2.4,MacIntel,60,,,,,,,,,,-0.183751085,-0.010225694,1,0,0,0.60192,unsorted_card,18,0,18,0,1,,,,,,,,,,,,,,,,,,,,,,,,,,,,,,,,,,,,,,,,,,,,,,,,,,,,,,,,,,,,,,,,,,,,,,,,,,,,,,,,,
,,,,,,,,,,1573985,2020-10-27_18h25.53.604,swahili,2020.2.4,MacIntel,60,,,,,,,,,,0.517388238,-0.456866319,1,0,0,1.42856,done_pile,19,0,19,0,1,MANURE - SAMADI,,,,,,,,,,,,,,,,,,,,,,,,,,,,,,,,,,,,,,,,,,,,,,,,,,,,,,,,,,,,,,,,,,,,,,,,,,,,,,,,
,,,,,,,,,,1573985,2020-10-27_18h25.53.604,swahili,2020.2.4,MacIntel,60,,,,,,,,,,-0.217540148,-0.144557292,1,0,0,0.46539,unsorted_card,20,0,20,0,1,,,,,,,,,,,,,,,,,,,,,,,,,,,,,,,,,,,,,,,,,,,,,,,,,,,,,,,,,,,,,,,,,,,,,,,,,,,,,,,,,
,,,,,,,,,,1573985,2020-10-27_18h25.53.604,swahili,2020.2.4,MacIntel,60,,,,,,,,,,0.48898112,-0.108706597,1,0,0,9.081825,test_pile,21,0,21,0,1,AGENT - WAKILI,,,,,,,,,,,,,,,,,,,,,,,,,,,,,,,,,,,,,,,,,,,,,,,,,,,,,,,,,,,,,,,,,,,,,,,,,,,,,,,,
,,,,,,,,,,1573985,2020-10-27_18h25.53.604,swahili,2020.2.4,MacIntel,60,,,,,,,,,,-0.299441189,-0.015034722,1,0,0,0.43324,unsorted_card,22,0,22,0,1,,,,,,,,,,,,,,,,,,,,,,,,,,,,,,,,,,,,,,,,,,,,,,,,,,,,,,,,,,,,,,,,,,,,,,,,,,,,,,,,,
,,,,,,,,,,1573985,2020-10-27_18h25.53.604,swahili,2020.2.4,MacIntel,60,,,,,,,,,,0.329633247,-0.468836806,1,0,0,2.26418,done_pile,23,0,23,0,1,BRIBE - RUSHWA,,,,,,,,,,,,,,,,,,,,,,,,,,,,,,,,,,,,,,,,,,,,,,,,,,,,,,,,,,,,,,,,,,,,,,,,,,,,,,,,
,,,,,,,,,,1573985,2020-10-27_18h25.53.604,swahili,2020.2.4,MacIntel,60,,,,,,,,,,-0.411355252,0.147925347,1,0,0,0.419325,unsorted_card,24,0,24,0,1,,,,,,,,,,,,,,,,,,,,,,,,,,,,,,,,,,,,,,,,,,,,,,,,,,,,,,,,,,,,,,,,,,,,,,,,,,,,,,,,,
,,,,,,,,,,1573985,2020-10-27_18h25.53.604,swahili,2020.2.4,MacIntel,60,,,,,,,,,,0.596674262,-0.123602431,1,0,0,1.89787,test_pile,25,0,25,0,1,ORPHAN - YATIMA,,,,,,,,,,,,,,,,,,,,,,,,,,,,,,,,,,,,,,,,,,,,,,,,,,,,,,,,,,,,,,,,,,,,,,,,,,,,,,,,
,,,,,,,,,,1573985,2020-10-27_18h25.53.604,swahili,2020.2.4,MacIntel,60,,,,,,,,,,-0.304833984,-0.027282986,1,0,0,0.443925,unsorted_card,26,0,26,0,1,,,,,,,,,,,,,,,,,,,,,,,,,,,,,,,,,,,,,,,,,,,,,,,,,,,,,,,,,,,,,,,,,,,,,,,,,,,,,,,,,
,,,,,,,,,,1573985,2020-10-27_18h25.53.604,swahili,2020.2.4,MacIntel,60,,,,,,,,,,0.364594184,-0.030390625,1,0,0,1.315495,test_pile,27,0,27,0,1,DIVORCE - TALAKA,,,,,,,,,,,,,,,,,,,,,,,,,,,,,,,,,,,,,,,,,,,,,,,,,,,,,,,,,,,,,,,,,,,,,,,,,,,,,,,,
,,,,,,,,,,1573985,2020-10-27_18h25.53.604,swahili,2020.2.4,MacIntel,60,,,,,,,,,,-0.42649197,-0.001102431,1,0,0,0.44574,unsorted_card,28,0,28,0,1,,,,,,,,,,,,,,,,,,,,,,,,,,,,,,,,,,,,,,,,,,,,,,,,,,,,,,,,,,,,,,,,,,,,,,,,,,,,,,,,,
