condition,consent_key.keys,consent_key.rt,done_with_instructions.keys,done_with_instructions.rt,instr_loop.thisRepN,instr_loop.thisTrialN,instr_loop.thisN,instr_loop.thisIndex,instr_loop.ran,Student ID #,date,expName,psychopyVersion,OS,frameRate,instr_learning_key.keys,instr_learning_key.rt,card_gen_loop.thisRepN,card_gen_loop.thisTrialN,card_gen_loop.thisN,card_gen_loop.thisIndex,card_gen_loop.ran,swa,eng,choose_pile.x,choose_pile.y,choose_pile.leftButton,choose_pile.midButton,choose_pile.rightButton,choose_pile.time,choose_pile.clicked_name,choices.thisRepN,choices.thisTrialN,choices.thisN,choices.thisIndex,choices.ran,card_to_show,mouse_pick.x,mouse_pick.y,mouse_pick.leftButton,mouse_pick.midButton,mouse_pick.rightButton,mouse_pick.time,mouse_pick.clicked_name,key_instr_study.keys,key_instr_study.rt,next_study.keys,next_study.rt,study_loop.thisRepN,study_loop.thisTrialN,study_loop.thisN,study_loop.thisIndex,study_loop.ran,key_instr_test.keys,learn_loop.thisRepN,learn_loop.thisTrialN,learn_loop.thisN,learn_loop.thisIndex,learn_loop.ran,trials.thisRepN,trials.thisTrialN,trials.thisN,trials.thisIndex,trials.ran,key_instr_test.rt,duration,yes_or_no.x,yes_or_no.y,yes_or_no.leftButton,yes_or_no.midButton,yes_or_no.rightButton,yes_or_no.time,yes_or_no.clicked_name,test_response.stim,test_response.resp,test_response.eval,test_loop.thisRepN,test_loop.thisTrialN,test_loop.thisN,test_loop.thisIndex,test_loop.ran,instr_movie_key.keys,instr_movie_key.rt,return_to_exp.keys,return_to_exp.rt,instr_assess_key.keys,instr_assess_key.rt,assess_loop.thisRepN,assess_loop.thisTrialN,assess_loop.thisN,assess_loop.thisIndex,assess_loop.ran,ans_gen_loop.thisRepN,ans_gen_loop.thisTrialN,ans_gen_loop.thisN,ans_gen_loop.thisIndex,ans_gen_loop.ran,sen,ans,instr_transfer_key.keys,instr_transfer_key.rt,transfer_response.resp,transfer_response.eval,select_word.x,select_word.y,select_word.leftButton,select_word.midButton,select_word.rightButton,select_word.time,select_word.clicked_name,transfers.thisRepN,transfers.thisTrialN,transfers.thisN,transfers.thisIndex,transfers.ran,end_experiment.keys,end_experiment.rt
2,return,14.824965,return,9.209825,0,0,0,0,1,00001591074,2020-10-17_21h00.20.442,swahili,2020.2.4,MacIntel,60,,,,,,,,,,,,,,,,,,,,,,,,,,,,,,,,,,,,,,,,,,,,,,,,,,,,,,,,,,,,,,,,,,,,,,,,,,,,,,,,,,,,,,,,,,,,,,,,,,,,,,
,,,return,7.965525,1,0,1,0,1,00001591074,2020-10-17_21h00.20.442,swahili,2020.2.4,MacIntel,60,,,,,,,,,,,,,,,,,,,,,,,,,,,,,,,,,,,,,,,,,,,,,,,,,,,,,,,,,,,,,,,,,,,,,,,,,,,,,,,,,,,,,,,,,,,,,,,,,,,,,,
,,,,,,,,,,00001591074,2020-10-17_21h00.20.442,swahili,2020.2.4,MacIntel,60,return,10.281805,0,0,0,0,1,TAJIRI,MERCHANT,,,,,,,,,,,,,,,,,,,,,,,,,,,,,,,,,,,,,,,,,,,,,,,,,,,,,,,,,,,,,,,,,,,,,,,,,,,,,,,,,,,,,,,,,,,,,
,,,,,,,,,,00001591074,2020-10-17_21h00.20.442,swahili,2020.2.4,MacIntel,60,,,0,1,1,1,1,KASUKU,PARROT,,,,,,,,,,,,,,,,,,,,,,,,,,,,,,,,,,,,,,,,,,,,,,,,,,,,,,,,,,,,,,,,,,,,,,,,,,,,,,,,,,,,,,,,,,,,,
,,,,,,,,,,00001591074,2020-10-17_21h00.20.442,swahili,2020.2.4,MacIntel,60,,,0,2,2,2,1,FAHILI,BULL,,,,,,,,,,,,,,,,,,,,,,,,,,,,,,,,,,,,,,,,,,,,,,,,,,,,,,,,,,,,,,,,,,,,,,,,,,,,,,,,,,,,,,,,,,,,,
,,,,,,,,,,00001591074,2020-10-17_21h00.20.442,swahili,2020.2.4,MacIntel,60,,,0,3,3,3,1,SAHANI,PLATE,,,,,,,,,,,,,,,,,,,,,,,,,,,,,,,,,,,,,,,,,,,,,,,,,,,,,,,,,,,,,,,,,,,,,,,,,,,,,,,,,,,,,,,,,,,,,
,,,,,,,,,,00001591074,2020-10-17_21h00.20.442,swahili,2020.2.4,MacIntel,60,,,0,4,4,4,1,HAMIRA,YEAST,,,,,,,,,,,,,,,,,,,,,,,,,,,,,,,,,,,,,,,,,,,,,,,,,,,,,,,,,,,,,,,,,,,,,,,,,,,,,,,,,,,,,,,,,,,,,
,,,,,,,,,,00001591074,2020-10-17_21h00.20.442,swahili,2020.2.4,MacIntel,60,,,0,5,5,5,1,LAWAMA,BLAME,,,,,,,,,,,,,,,,,,,,,,,,,,,,,,,,,,,,,,,,,,,,,,,,,,,,,,,,,,,,,,,,,,,,,,,,,,,,,,,,,,,,,,,,,,,,,
,,,,,,,,,,00001591074,2020-10-17_21h00.20.442,swahili,2020.2.4,MacIntel,60,,,0,6,6,6,1,YAMINI,OATH,,,,,,,,,,,,,,,,,,,,,,,,,,,,,,,,,,,,,,,,,,,,,,,,,,,,,,,,,,,,,,,,,,,,,,,,,,,,,,,,,,,,,,,,,,,,,
,,,,,,,,,,00001591074,2020-10-17_21h00.20.442,swahili,2020.2.4,MacIntel,60,,,0,7,7,7,1,NAFAKA,CORN,,,,,,,,,,,,,,,,,,,,,,,,,,,,,,,,,,,,,,,,,,,,,,,,,,,,,,,,,,,,,,,,,,,,,,,,,,,,,,,,,,,,,,,,,,,,,
,,,,,,,,,,00001591074,2020-10-17_21h00.20.442,swahili,2020.2.4,MacIntel,60,,,0,8,8,8,1,UTENZI,POEM,,,,,,,,,,,,,,,,,,,,,,,,,,,,,,,,,,,,,,,,,,,,,,,,,,,,,,,,,,,,,,,,,,,,,,,,,,,,,,,,,,,,,,,,,,,,,
,,,,,,,,,,00001591074,2020-10-17_21h00.20.442,swahili,2020.2.4,MacIntel,60,,,0,9,9,9,1,MSHONI,TAILOR,,,,,,,,,,,,,,,,,,,,,,,,,,,,,,,,,,,,,,,,,,,,,,,,,,,,,,,,,,,,,,,,,,,,,,,,,,,,,,,,,,,,,,,,,,,,,
,,,,,,,,,,00001591074,2020-10-17_21h00.20.442,swahili,2020.2.4,MacIntel,60,,,0,10,10,10,1,JIBINI,CHEESE,,,,,,,,,,,,,,,,,,,,,,,,,,,,,,,,,,,,,,,,,,,,,,,,,,,,,,,,,,,,,,,,,,,,,,,,,,,,,,,,,,,,,,,,,,,,,
,,,,,,,,,,00001591074,2020-10-17_21h00.20.442,swahili,2020.2.4,MacIntel,60,,,0,11,11,11,1,ZABIBU,GRAPES,,,,,,,,,,,,,,,,,,,,,,,,,,,,,,,,,,,,,,,,,,,,,,,,,,,,,,,,,,,,,,,,,,,,,,,,,,,,,,,,,,,,,,,,,,,,,
,,,,,,,,,,00001591074,2020-10-17_21h00.20.442,swahili,2020.2.4,MacIntel,60,,,0,12,12,12,1,KABURI,GRAVE,,,,,,,,,,,,,,,,,,,,,,,,,,,,,,,,,,,,,,,,,,,,,,,,,,,,,,,,,,,,,,,,,,,,,,,,,,,,,,,,,,,,,,,,,,,,,
,,,,,,,,,,00001591074,2020-10-17_21h00.20.442,swahili,2020.2.4,MacIntel,60,,,0,13,13,13,1,SAMADI,MANURE,,,,,,,,,,,,,,,,,,,,,,,,,,,,,,,,,,,,,,,,,,,,,,,,,,,,,,,,,,,,,,,,,,,,,,,,,,,,,,,,,,,,,,,,,,,,,
,,,,,,,,,,00001591074,2020-10-17_21h00.20.442,swahili,2020.2.4,MacIntel,60,,,0,14,14,14,1,WAKILI,AGENT,,,,,,,,,,,,,,,,,,,,,,,,,,,,,,,,,,,,,,,,,,,,,,,,,,,,,,,,,,,,,,,,,,,,,,,,,,,,,,,,,,,,,,,,,,,,,
,,,,,,,,,,00001591074,2020-10-17_21h00.20.442,swahili,2020.2.4,MacIntel,60,,,0,15,15,15,1,RUSHWA,BRIBE,,,,,,,,,,,,,,,,,,,,,,,,,,,,,,,,,,,,,,,,,,,,,,,,,,,,,,,,,,,,,,,,,,,,,,,,,,,,,,,,,,,,,,,,,,,,,
,,,,,,,,,,00001591074,2020-10-17_21h00.20.442,swahili,2020.2.4,MacIntel,60,,,0,16,16,16,1,YATIMA,ORPHAN,,,,,,,,,,,,,,,,,,,,,,,,,,,,,,,,,,,,,,,,,,,,,,,,,,,,,,,,,,,,,,,,,,,,,,,,,,,,,,,,,,,,,,,,,,,,,
,,,,,,,,,,00001591074,2020-10-17_21h00.20.442,swahili,2020.2.4,MacIntel,60,,,0,17,17,17,1,TALAKA,DIVORCE,,,,,,,,,,,,,,,,,,,,,,,,,,,,,,,,,,,,,,,,,,,,,,,,,,,,,,,,,,,,,,,,,,,,,,,,,,,,,,,,,,,,,,,,,,,,,
,,,,,,,,,,00001591074,2020-10-17_21h00.20.442,swahili,2020.2.4,MacIntel,60,,,0,18,18,18,1,MASHUA,BOAT,,,,,,,,,,,,,,,,,,,,,,,,,,,,,,,,,,,,,,,,,,,,,,,,,,,,,,,,,,,,,,,,,,,,,,,,,,,,,,,,,,,,,,,,,,,,,
,,,,,,,,,,00001591074,2020-10-17_21h00.20.442,swahili,2020.2.4,MacIntel,60,,,0,19,19,19,1,DAFINA,TREASURE,,,,,,,,,,,,,,,,,,,,,,,,,,,,,,,,,,,,,,,,,,,,,,,,,,,,,,,,,,,,,,,,,,,,,,,,,,,,,,,,,,,,,,,,,,,,,
,,,,,,,,,,00001591074,2020-10-17_21h00.20.442,swahili,2020.2.4,MacIntel,60,,,,,,,,,,-0.259803602,-0.129513889,1,0,0,3.427075,unsorted_card,0,0,0,0,1,,,,,,,,,,,,,,,,,,,,,,,,,,,,,,,,,,,,,,,,,,,,,,,,,,,,,,,,,,,,,,,,,,,,,,,,,,,,,,,,,
,,,,,,,,,,00001591074,2020-10-17_21h00.20.442,swahili,2020.2.4,MacIntel,60,,,,,,,,,,0.415972222,0.430208333,1,0,0,2.594675,study_pile,1,0,1,0,1,MERCHANT - TAJIRI,,,,,,,,,,,,,,,,,,,,,,,,,,,,,,,,,,,,,,,,,,,,,,,,,,,,,,,,,,,,,,,,,,,,,,,,,,,,,,,,
,,,,,,,,,,00001591074,2020-10-17_21h00.20.442,swahili,2020.2.4,MacIntel,60,,,,,,,,,,-0.143440755,-0.034427083,1,0,0,1.84725,unsorted_card,2,0,2,0,1,,,,,,,,,,,,,,,,,,,,,,,,,,,,,,,,,,,,,,,,,,,,,,,,,,,,,,,,,,,,,,,,,,,,,,,,,,,,,,,,,
,,,,,,,,,,00001591074,2020-10-17_21h00.20.442,swahili,2020.2.4,MacIntel,60,,,,,,,,,,0.473708767,0.471953125,1,0,0,2.464325,study_pile,3,0,3,0,1,PARROT - KASUKU,,,,,,,,,,,,,,,,,,,,,,,,,,,,,,,,,,,,,,,,,,,,,,,,,,,,,,,,,,,,,,,,,,,,,,,,,,,,,,,,
,,,,,,,,,,00001591074,2020-10-17_21h00.20.442,swahili,2020.2.4,MacIntel,60,,,,,,,,,,-0.29656033,-0.081154514,1,0,0,0.79731,unsorted_card,4,0,4,0,1,,,,,,,,,,,,,,,,,,,,,,,,,,,,,,,,,,,,,,,,,,,,,,,,,,,,,,,,,,,,,,,,,,,,,,,,,,,,,,,,,
,,,,,,,,,,00001591074,2020-10-17_21h00.20.442,swahili,2020.2.4,MacIntel,60,,,,,,,,,,0.375379774,0.445043403,1,0,0,1.43211,study_pile,5,0,5,0,1,BULL - FAHILI,,,,,,,,,,,,,,,,,,,,,,,,,,,,,,,,,,,,,,,,,,,,,,,,,,,,,,,,,,,,,,,,,,,,,,,,,,,,,,,,
,,,,,,,,,,00001591074,2020-10-17_21h00.20.442,swahili,2020.2.4,MacIntel,60,,,,,,,,,,-0.156662326,-0.010269097,1,0,0,0.647265,unsorted_card,6,0,6,0,1,,,,,,,,,,,,,,,,,,,,,,,,,,,,,,,,,,,,,,,,,,,,,,,,,,,,,,,,,,,,,,,,,,,,,,,,,,,,,,,,,
,,,,,,,,,,00001591074,2020-10-17_21h00.20.442,swahili,2020.2.4,MacIntel,60,,,,,,,,,,0.464241536,0.559036458,1,0,0,0.982595,study_pile,7,0,7,0,1,PLATE - SAHANI,,,,,,,,,,,,,,,,,,,,,,,,,,,,,,,,,,,,,,,,,,,,,,,,,,,,,,,,,,,,,,,,,,,,,,,,,,,,,,,,
,,,,,,,,,,00001591074,2020-10-17_21h00.20.442,swahili,2020.2.4,MacIntel,60,,,,,,,,,,-0.353781467,-0.099817708,1,0,0,0.663265,unsorted_card,8,0,8,0,1,,,,,,,,,,,,,,,,,,,,,,,,,,,,,,,,,,,,,,,,,,,,,,,,,,,,,,,,,,,,,,,,,,,,,,,,,,,,,,,,,
,,,,,,,,,,00001591074,2020-10-17_21h00.20.442,swahili,2020.2.4,MacIntel,60,,,,,,,,,,0.354470486,0.446276042,1,0,0,1.232155,study_pile,9,0,9,0,1,YEAST - HAMIRA,,,,,,,,,,,,,,,,,,,,,,,,,,,,,,,,,,,,,,,,,,,,,,,,,,,,,,,,,,,,,,,,,,,,,,,,,,,,,,,,
,,,,,,,,,,00001591074,2020-10-17_21h00.20.442,swahili,2020.2.4,MacIntel,60,,,,,,,,,,-0.189171007,0.050164931,1,0,0,0.59899,unsorted_card,10,0,10,0,1,,,,,,,,,,,,,,,,,,,,,,,,,,,,,,,,,,,,,,,,,,,,,,,,,,,,,,,,,,,,,,,,,,,,,,,,,,,,,,,,,
,,,,,,,,,,00001591074,2020-10-17_21h00.20.442,swahili,2020.2.4,MacIntel,60,,,,,,,,,,0.474240451,0.546171875,1,0,0,1.230645,study_pile,11,0,11,0,1,BLAME - LAWAMA,,,,,,,,,,,,,,,,,,,,,,,,,,,,,,,,,,,,,,,,,,,,,,,,,,,,,,,,,,,,,,,,,,,,,,,,,,,,,,,,
,,,,,,,,,,00001591074,2020-10-17_21h00.20.442,swahili,2020.2.4,MacIntel,60,,,,,,,,,,-0.1613227,3.47222E-05,1,0,0,0.713975,unsorted_card,12,0,12,0,1,,,,,,,,,,,,,,,,,,,,,,,,,,,,,,,,,,,,,,,,,,,,,,,,,,,,,,,,,,,,,,,,,,,,,,,,,,,,,,,,,
,,,,,,,,,,00001591074,2020-10-17_21h00.20.442,swahili,2020.2.4,MacIntel,60,,,,,,,,,,0.36304796,0.424175347,1,0,0,1.631635,study_pile,13,0,13,0,1,OATH - YAMINI,,,,,,,,,,,,,,,,,,,,,,,,,,,,,,,,,,,,,,,,,,,,,,,,,,,,,,,,,,,,,,,,,,,,,,,,,,,,,,,,
,,,,,,,,,,00001591074,2020-10-17_21h00.20.442,swahili,2020.2.4,MacIntel,60,,,,,,,,,,-0.140218099,-0.039505208,1,0,0,0.763715,unsorted_card,14,0,14,0,1,,,,,,,,,,,,,,,,,,,,,,,,,,,,,,,,,,,,,,,,,,,,,,,,,,,,,,,,,,,,,,,,,,,,,,,,,,,,,,,,,
,,,,,,,,,,00001591074,2020-10-17_21h00.20.442,swahili,2020.2.4,MacIntel,60,,,,,,,,,,0.41726888,0.464366319,1,0,0,1.015545,study_pile,15,0,15,0,1,CORN - NAFAKA,,,,,,,,,,,,,,,,,,,,,,,,,,,,,,,,,,,,,,,,,,,,,,,,,,,,,,,,,,,,,,,,,,,,,,,,,,,,,,,,
,,,,,,,,,,00001591074,2020-10-17_21h00.20.442,swahili,2020.2.4,MacIntel,60,,,,,,,,,,-0.27453342,0.030885417,1,0,0,1.130735,unsorted_card,16,0,16,0,1,,,,,,,,,,,,,,,,,,,,,,,,,,,,,,,,,,,,,,,,,,,,,,,,,,,,,,,,,,,,,,,,,,,,,,,,,,,,,,,,,
,,,,,,,,,,00001591074,2020-10-17_21h00.20.442,swahili,2020.2.4,MacIntel,60,,,,,,,,,,0.366292318,0.428342014,1,0,0,1.795765,study_pile,17,0,17,0,1,POEM - UTENZI,,,,,,,,,,,,,,,,,,,,,,,,,,,,,,,,,,,,,,,,,,,,,,,,,,,,,,,,,,,,,,,,,,,,,,,,,,,,,,,,
,,,,,,,,,,00001591074,2020-10-17_21h00.20.442,swahili,2020.2.4,MacIntel,60,,,,,,,,,,-0.21477322,0.028046875,1,0,0,1.082105,unsorted_card,18,0,18,0,1,,,,,,,,,,,,,,,,,,,,,,,,,,,,,,,,,,,,,,,,,,,,,,,,,,,,,,,,,,,,,,,,,,,,,,,,,,,,,,,,,
,,,,,,,,,,00001591074,2020-10-17_21h00.20.442,swahili,2020.2.4,MacIntel,60,,,,,,,,,,0.423681641,0.553810764,1,0,0,1.19774,study_pile,19,0,19,0,1,TAILOR - MSHONI,,,,,,,,,,,,,,,,,,,,,,,,,,,,,,,,,,,,,,,,,,,,,,,,,,,,,,,,,,,,,,,,,,,,,,,,,,,,,,,,
,,,,,,,,,,00001591074,2020-10-17_21h00.20.442,swahili,2020.2.4,MacIntel,60,,,,,,,,,,-0.301904297,0.123680556,1,0,0,0.697815,unsorted_card,20,0,20,0,1,,,,,,,,,,,,,,,,,,,,,,,,,,,,,,,,,,,,,,,,,,,,,,,,,,,,,,,,,,,,,,,,,,,,,,,,,,,,,,,,,
,,,,,,,,,,00001591074,2020-10-17_21h00.20.442,swahili,2020.2.4,MacIntel,60,,,,,,,,,,0.446104601,0.567482639,1,0,0,1.114535,study_pile,21,0,21,0,1,CHEESE - JIBINI,,,,,,,,,,,,,,,,,,,,,,,,,,,,,,,,,,,,,,,,,,,,,,,,,,,,,,,,,,,,,,,,,,,,,,,,,,,,,,,,
,,,,,,,,,,00001591074,2020-10-17_21h00.20.442,swahili,2020.2.4,MacIntel,60,,,,,,,,,,-0.319699436,-0.040069444,1,0,0,0.614585,unsorted_card,22,0,22,0,1,,,,,,,,,,,,,,,,,,,,,,,,,,,,,,,,,,,,,,,,,,,,,,,,,,,,,,,,,,,,,,,,,,,,,,,,,,,,,,,,,
,,,,,,,,,,00001591074,2020-10-17_21h00.20.442,swahili,2020.2.4,MacIntel,60,,,,,,,,,,0.404242622,0.404470486,1,0,0,1.364755,study_pile,23,0,23,0,1,GRAPES - ZABIBU,,,,,,,,,,,,,,,,,,,,,,,,,,,,,,,,,,,,,,,,,,,,,,,,,,,,,,,,,,,,,,,,,,,,,,,,,,,,,,,,
,,,,,,,,,,00001591074,2020-10-17_21h00.20.442,swahili,2020.2.4,MacIntel,60,,,,,,,,,,-0.166183811,-0.067977431,1,0,0,0.847775,unsorted_card,24,0,24,0,1,,,,,,,,,,,,,,,,,,,,,,,,,,,,,,,,,,,,,,,,,,,,,,,,,,,,,,,,,,,,,,,,,,,,,,,,,,,,,,,,,
,,,,,,,,,,00001591074,2020-10-17_21h00.20.442,swahili,2020.2.4,MacIntel,60,,,,,,,,,,0.378081597,0.426432292,1,0,0,1.464105,study_pile,25,0,25,0,1,GRAVE - KABURI,,,,,,,,,,,,,,,,,,,,,,,,,,,,,,,,,,,,,,,,,,,,,,,,,,,,,,,,,,,,,,,,,,,,,,,,,,,,,,,,
,,,,,,,,,,00001591074,2020-10-17_21h00.20.442,swahili,2020.2.4,MacIntel,60,,,,,,,,,,-0.401296658,-0.108133681,1,0,0,0.664585,unsorted_card,26,0,26,0,1,,,,,,,,,,,,,,,,,,,,,,,,,,,,,,,,,,,,,,,,,,,,,,,,,,,,,,,,,,,,,,,,,,,,,,,,,,,,,,,,,
,,,,,,,,,,00001591074,2020-10-17_21h00.20.442,swahili,2020.2.4,MacIntel,60,,,,,,,,,,0.364756944,0.415269097,1,0,0,1.49758,study_pile,27,0,27,0,1,MANURE - SAMADI,,,,,,,,,,,,,,,,,,,,,,,,,,,,,,,,,,,,,,,,,,,,,,,,,,,,,,,,,,,,,,,,,,,,,,,,,,,,,,,,
,,,,,,,,,,00001591074,2020-10-17_21h00.20.442,swahili,2020.2.4,MacIntel,60,,,,,,,,,,-0.091536458,0.144817708,1,0,0,0.7148,unsorted_card,28,0,28,0,1,,,,,,,,,,,,,,,,,,,,,,,,,,,,,,,,,,,,,,,,,,,,,,,,,,,,,,,,,,,,,,,,,,,,,,,,,,,,,,,,,
,,,,,,,,,,00001591074,2020-10-17_21h00.20.442,swahili,2020.2.4,MacIntel,60,,,,,,,,,,0.445589193,0.533515625,1,0,0,1.015075,study_pile,29,0,29,0,1,AGENT - WAKILI,,,,,,,,,,,,,,,,,,,,,,,,,,,,,,,,,,,,,,,,,,,,,,,,,,,,,,,,,,,,,,,,,,,,,,,,,,,,,,,,
,,,,,,,,,,00001591074,2020-10-17_21h00.20.442,swahili,2020.2.4,MacIntel,60,,,,,,,,,,-0.249880642,0.058072917,1,0,0,0.897305,unsorted_card,30,0,30,0,1,,,,,,,,,,,,,,,,,,,,,,,,,,,,,,,,,,,,,,,,,,,,,,,,,,,,,,,,,,,,,,,,,,,,,,,,,,,,,,,,,
,,,,,,,,,,00001591074,2020-10-17_21h00.20.442,swahili,2020.2.4,MacIntel,60,,,,,,,,,,0.374104818,0.488237847,1,0,0,1.4154,study_pile,31,0,31,0,1,BRIBE - RUSHWA,,,,,,,,,,,,,,,,,,,,,,,,,,,,,,,,,,,,,,,,,,,,,,,,,,,,,,,,,,,,,,,,,,,,,,,,,,,,,,,,
,,,,,,,,,,00001591074,2020-10-17_21h00.20.442,swahili,2020.2.4,MacIntel,60,,,,,,,,,,-0.158311632,0.089947917,1,0,0,0.963455,unsorted_card,32,0,32,0,1,,,,,,,,,,,,,,,,,,,,,,,,,,,,,,,,,,,,,,,,,,,,,,,,,,,,,,,,,,,,,,,,,,,,,,,,,,,,,,,,,
,,,,,,,,,,00001591074,2020-10-17_21h00.20.442,swahili,2020.2.4,MacIntel,60,,,,,,,,,,0.424994575,0.447387153,1,0,0,1.098685,study_pile,33,0,33,0,1,ORPHAN - YATIMA,,,,,,,,,,,,,,,,,,,,,,,,,,,,,,,,,,,,,,,,,,,,,,,,,,,,,,,,,,,,,,,,,,,,,,,,,,,,,,,,
,,,,,,,,,,00001591074,2020-10-17_21h00.20.442,swahili,2020.2.4,MacIntel,60,,,,,,,,,,-0.323231337,-0.088072917,1,0,0,0.697425,unsorted_card,34,0,34,0,1,,,,,,,,,,,,,,,,,,,,,,,,,,,,,,,,,,,,,,,,,,,,,,,,,,,,,,,,,,,,,,,,,,,,,,,,,,,,,,,,,
,,,,,,,,,,00001591074,2020-10-17_21h00.20.442,swahili,2020.2.4,MacIntel,60,,,,,,,,,,0.369021267,0.469505208,1,0,0,1.248725,study_pile,35,0,35,0,1,DIVORCE - TALAKA,,,,,,,,,,,,,,,,,,,,,,,,,,,,,,,,,,,,,,,,,,,,,,,,,,,,,,,,,,,,,,,,,,,,,,,,,,,,,,,,
,,,,,,,,,,00001591074,2020-10-17_21h00.20.442,swahili,2020.2.4,MacIntel,60,,,,,,,,,,-0.442323134,-0.115659722,1,0,0,0.647545,unsorted_card,36,0,36,0,1,,,,,,,,,,,,,,,,,,,,,,,,,,,,,,,,,,,,,,,,,,,,,,,,,,,,,,,,,,,,,,,,,,,,,,,,,,,,,,,,,
,,,,,,,,,,00001591074,2020-10-17_21h00.20.442,swahili,2020.2.4,MacIntel,60,,,,,,,,,,0.415218099,0.425711806,1,0,0,1.21526,study_pile,37,0,37,0,1,BOAT - MASHUA,,,,,,,,,,,,,,,,,,,,,,,,,,,,,,,,,,,,,,,,,,,,,,,,,,,,,,,,,,,,,,,,,,,,,,,,,,,,,,,,
,,,,,,,,,,00001591074,2020-10-17_21h00.20.442,swahili,2020.2.4,MacIntel,60,,,,,,,,,,-0.336398655,-0.047664931,1,0,0,0.697435,unsorted_card,38,0,38,0,1,,,,,,,,,,,,,,,,,,,,,,,,,,,,,,,,,,,,,,,,,,,,,,,,,,,,,,,,,,,,,,,,,,,,,,,,,,,,,,,,,
,,,,,,,,,,00001591074,2020-10-17_21h00.20.442,swahili,2020.2.4,MacIntel,60,,,,,,,,,,0.484939236,0.556032986,1,0,0,1.349255,study_pile,39,0,39,0,1,TREASURE - DAFINA,,,,,,,,,,,,,,,,,,,,,,,,,,,,,,,,,,,,,,,,,,,,,,,,,,,,,,,,,,,,,,,,,,,,,,,,,,,,,,,,
,,,,,,,,,,00001591074,2020-10-17_21h00.20.442,swahili,2020.2.4,MacIntel,60,,,,,,,,,,,,,,,,,,,,,,OATH - YAMINI,,,,,,,,return,5.17266,return,3.157745,0,0,0,0,1,,,,,,,,,,,,,,,,,,,,,,,,,,,,,,,,,,,,,,,,,,,,,,,,,,,,,,,,,,,,,,,,
,,,,,,,,,,00001591074,2020-10-17_21h00.20.442,swahili,2020.2.4,MacIntel,60,,,,,,,,,,,,,,,,,,,,,,DIVORCE - TALAKA,,,,,,,,,,return,4.498035,1,0,1,0,1,,,,,,,,,,,,,,,,,,,,,,,,,,,,,,,,,,,,,,,,,,,,,,,,,,,,,,,,,,,,,,,,
,,,,,,,,,,00001591074,2020-10-17_21h00.20.442,swahili,2020.2.4,MacIntel,60,,,,,,,,,,,,,,,,,,,,,,PARROT - KASUKU,,,,,,,,,,return,1.964435,2,0,2,0,1,,,,,,,,,,,,,,,,,,,,,,,,,,,,,,,,,,,,,,,,,,,,,,,,,,,,,,,,,,,,,,,,
,,,,,,,,,,00001591074,2020-10-17_21h00.20.442,swahili,2020.2.4,MacIntel,60,,,,,,,,,,,,,,,,,,,,,,CHEESE - JIBINI,,,,,,,,,,return,2.736085,3,0,3,0,1,,,,,,,,,,,,,,,,,,,,,,,,,,,,,,,,,,,,,,,,,,,,,,,,,,,,,,,,,,,,,,,,
,,,,,,,,,,00001591074,2020-10-17_21h00.20.442,swahili,2020.2.4,MacIntel,60,,,,,,,,,,,,,,,,,,,,,,TAILOR - MSHONI,,,,,,,,,,return,1.548945,4,0,4,0,1,,,,,,,,,,,,,,,,,,,,,,,,,,,,,,,,,,,,,,,,,,,,,,,,,,,,,,,,,,,,,,,,
,,,,,,,,,,00001591074,2020-10-17_21h00.20.442,swahili,2020.2.4,MacIntel,60,,,,,,,,,,,,,,,,,,,,,,POEM - UTENZI,,,,,,,,,,return,1.8308,5,0,5,0,1,,,,,,,,,,,,,,,,,,,,,,,,,,,,,,,,,,,,,,,,,,,,,,,,,,,,,,,,,,,,,,,,
,,,,,,,,,,00001591074,2020-10-17_21h00.20.442,swahili,2020.2.4,MacIntel,60,,,,,,,,,,,,,,,,,,,,,,MERCHANT - TAJIRI,,,,,,,,,,return,3.14896,6,0,6,0,1,,,,,,,,,,,,,,,,,,,,,,,,,,,,,,,,,,,,,,,,,,,,,,,,,,,,,,,,,,,,,,,,
,,,,,,,,,,00001591074,2020-10-17_21h00.20.442,swahili,2020.2.4,MacIntel,60,,,,,,,,,,,,,,,,,,,,,,PLATE - SAHANI,,,,,,,,,,return,1.663605,7,0,7,0,1,,,,,,,,,,,,,,,,,,,,,,,,,,,,,,,,,,,,,,,,,,,,,,,,,,,,,,,,,,,,,,,,
,,,,,,,,,,00001591074,2020-10-17_21h00.20.442,swahili,2020.2.4,MacIntel,60,,,,,,,,,,,,,,,,,,,,,,YEAST - HAMIRA,,,,,,,,,,return,1.652305,8,0,8,0,1,,,,,,,,,,,,,,,,,,,,,,,,,,,,,,,,,,,,,,,,,,,,,,,,,,,,,,,,,,,,,,,,
,,,,,,,,,,00001591074,2020-10-17_21h00.20.442,swahili,2020.2.4,MacIntel,60,,,,,,,,,,,,,,,,,,,,,,BRIBE - RUSHWA,,,,,,,,,,return,6.55197,9,0,9,0,1,,,,,,,,,,,,,,,,,,,,,,,,,,,,,,,,,,,,,,,,,,,,,,,,,,,,,,,,,,,,,,,,
,,,,,,,,,,00001591074,2020-10-17_21h00.20.442,swahili,2020.2.4,MacIntel,60,,,,,,,,,,,,,,,,,,,,,,MANURE - SAMADI,,,,,,,,,,return,3.565195,10,0,10,0,1,,,,,,,,,,,,,,,,,,,,,,,,,,,,,,,,,,,,,,,,,,,,,,,,,,,,,,,,,,,,,,,,
,,,,,,,,,,00001591074,2020-10-17_21h00.20.442,swahili,2020.2.4,MacIntel,60,,,,,,,,,,,,,,,,,,,,,,BOAT - MASHUA,,,,,,,,,,return,4.867055,11,0,11,0,1,,,,,,,,,,,,,,,,,,,,,,,,,,,,,,,,,,,,,,,,,,,,,,,,,,,,,,,,,,,,,,,,
,,,,,,,,,,00001591074,2020-10-17_21h00.20.442,swahili,2020.2.4,MacIntel,60,,,,,,,,,,,,,,,,,,,,,,TREASURE - DAFINA,,,,,,,,,,return,2.78321,12,0,12,0,1,,,,,,,,,,,,,,,,,,,,,,,,,,,,,,,,,,,,,,,,,,,,,,,,,,,,,,,,,,,,,,,,
,,,,,,,,,,00001591074,2020-10-17_21h00.20.442,swahili,2020.2.4,MacIntel,60,,,,,,,,,,,,,,,,,,,,,,GRAVE - KABURI,,,,,,,,,,return,1.914115,13,0,13,0,1,,,,,,,,,,,,,,,,,,,,,,,,,,,,,,,,,,,,,,,,,,,,,,,,,,,,,,,,,,,,,,,,
,,,,,,,,,,00001591074,2020-10-17_21h00.20.442,swahili,2020.2.4,MacIntel,60,,,,,,,,,,,,,,,,,,,,,,AGENT - WAKILI,,,,,,,,,,return,1.51765,14,0,14,0,1,,,,,,,,,,,,,,,,,,,,,,,,,,,,,,,,,,,,,,,,,,,,,,,,,,,,,,,,,,,,,,,,
,,,,,,,,,,00001591074,2020-10-17_21h00.20.442,swahili,2020.2.4,MacIntel,60,,,,,,,,,,,,,,,,,,,,,,BLAME - LAWAMA,,,,,,,,,,return,2.000685,15,0,15,0,1,,,,,,,,,,,,,,,,,,,,,,,,,,,,,,,,,,,,,,,,,,,,,,,,,,,,,,,,,,,,,,,,
,,,,,,,,,,00001591074,2020-10-17_21h00.20.442,swahili,2020.2.4,MacIntel,60,,,,,,,,,,,,,,,,,,,,,,ORPHAN - YATIMA,,,,,,,,,,return,1.31514,16,0,16,0,1,,,,,,,,,,,,,,,,,,,,,,,,,,,,,,,,,,,,,,,,,,,,,,,,,,,,,,,,,,,,,,,,
,,,,,,,,,,00001591074,2020-10-17_21h00.20.442,swahili,2020.2.4,MacIntel,60,,,,,,,,,,,,,,,,,,,,,,CORN - NAFAKA,,,,,,,,,,return,1.981615,17,0,17,0,1,,,,,,,,,,,,,,,,,,,,,,,,,,,,,,,,,,,,,,,,,,,,,,,,,,,,,,,,,,,,,,,,
,,,,,,,,,,00001591074,2020-10-17_21h00.20.442,swahili,2020.2.4,MacIntel,60,,,,,,,,,,,,,,,,,,,,,,BULL - FAHILI,,,,,,,,,,return,0.98703,18,0,18,0,1,,,,,,,,,,,,,,,,,,,,,,,,,,,,,,,,,,,,,,,,,,,,,,,,,,,,,,,,,,,,,,,,
,,,,,,,,,,00001591074,2020-10-17_21h00.20.442,swahili,2020.2.4,MacIntel,60,,,,,,,,,,,,,,,,,,,,,,GRAPES - ZABIBU,,,,,,,,,,return,1.088695,19,0,19,0,1,,,,,,,,,,,,,,,,,,,,,,,,,,,,,,,,,,,,,,,,,,,,,,,,,,,,,,,,,,,,,,,,
,,,,,,,,,,00001591074,2020-10-17_21h00.20.442,swahili,2020.2.4,MacIntel,60,,,,,,,,,,,,,,,,,,,,,,,,,,,,,,,,,,,,,,,,0,0,0,0,1,,,,,,,,,,,,,,,,,,,,,,,,,,,,,,,,,,,,,,,,,,,,,,,,,,,,,,,,,,
,,,,,,,,,,00001591074,2020-10-17_21h00.20.442,swahili,2020.2.4,MacIntel,60,,,,,,,,,,,,,,,,,,,,,,,,,,,,,,,,,,,,,,,,1,0,1,0,1,,,,,,,,,,,,,,,,,,,,,,,,,,,,,,,,,,,,,,,,,,,,,,,,,,,,,,,,,,
,,,,,,,,,,00001591074,2020-10-17_21h00.20.442,swahili,2020.2.4,MacIntel,60,,,,,,,,,,,,,,,,,,,,,,,,,,,,,,,,,,,,,,,,,,,,,0,0,0,0,1,,,,,,,,,,,,,,,,,,,,,,,,,,,,,,,,,,,,,,,,,,,,,,,,,,,,,
,,,,,,,,,,00001591074,2020-10-17_21h00.20.442,swahili,2020.2.4,MacIntel,60,,,,,,,,,,-0.156038411,0.094244792,1,0,0,1.888385,unsorted_card,0,0,0,0,1,,,,,,,,,,,,,,,,,,,,,,,,,,,,,,,,,,,,,,,,,,,,,,,,,,,,,,,,,,,,,,,,,,,,,,,,,,,,,,,,,
,,,,,,,,,,00001591074,2020-10-17_21h00.20.442,swahili,2020.2.4,MacIntel,60,,,,,,,,,,0.453369141,-0.001935764,1,0,0,1.180165,test_pile,1,0,1,0,1,MERCHANT - TAJIRI,,,,,,,,,,,,,,,,,,,,,,,,,,,,,,,,,,,,,,,,,,,,,,,,,,,,,,,,,,,,,,,,,,,,,,,,,,,,,,,,
,,,,,,,,,,00001591074,2020-10-17_21h00.20.442,swahili,2020.2.4,MacIntel,60,,,,,,,,,,-0.082291667,-0.106319444,1,0,0,0.648135,unsorted_card,2,0,2,0,1,,,,,,,,,,,,,,,,,,,,,,,,,,,,,,,,,,,,,,,,,,,,,,,,,,,,,,,,,,,,,,,,,,,,,,,,,,,,,,,,,
,,,,,,,,,,00001591074,2020-10-17_21h00.20.442,swahili,2020.2.4,MacIntel,60,,,,,,,,,,0.429465061,0.057152778,1,0,0,1.19786,test_pile,3,0,3,0,1,PARROT - KASUKU,,,,,,,,,,,,,,,,,,,,,,,,,,,,,,,,,,,,,,,,,,,,,,,,,,,,,,,,,,,,,,,,,,,,,,,,,,,,,,,,
,,,,,,,,,,00001591074,2020-10-17_21h00.20.442,swahili,2020.2.4,MacIntel,60,,,,,,,,,,-0.304237196,-0.065364583,1,0,0,0.547665,unsorted_card,4,0,4,0,1,,,,,,,,,,,,,,,,,,,,,,,,,,,,,,,,,,,,,,,,,,,,,,,,,,,,,,,,,,,,,,,,,,,,,,,,,,,,,,,,,
,,,,,,,,,,00001591074,2020-10-17_21h00.20.442,swahili,2020.2.4,MacIntel,60,,,,,,,,,,0.419666884,-0.011388889,1,0,0,1.099295,test_pile,5,0,5,0,1,BULL - FAHILI,,,,,,,,,,,,,,,,,,,,,,,,,,,,,,,,,,,,,,,,,,,,,,,,,,,,,,,,,,,,,,,,,,,,,,,,,,,,,,,,
,,,,,,,,,,00001591074,2020-10-17_21h00.20.442,swahili,2020.2.4,MacIntel,60,,,,,,,,,,-0.380457899,-0.167083333,1,0,0,0.64725,unsorted_card,6,0,6,0,1,,,,,,,,,,,,,,,,,,,,,,,,,,,,,,,,,,,,,,,,,,,,,,,,,,,,,,,,,,,,,,,,,,,,,,,,,,,,,,,,,
,,,,,,,,,,00001591074,2020-10-17_21h00.20.442,swahili,2020.2.4,MacIntel,60,,,,,,,,,,0.493381076,-0.032951389,1,0,0,1.03149,test_pile,7,0,7,0,1,PLATE - SAHANI,,,,,,,,,,,,,,,,,,,,,,,,,,,,,,,,,,,,,,,,,,,,,,,,,,,,,,,,,,,,,,,,,,,,,,,,,,,,,,,,
,,,,,,,,,,00001591074,2020-10-17_21h00.20.442,swahili,2020.2.4,MacIntel,60,,,,,,,,,,-0.231944444,-0.061788194,1,0,0,0.51477,unsorted_card,8,0,8,0,1,,,,,,,,,,,,,,,,,,,,,,,,,,,,,,,,,,,,,,,,,,,,,,,,,,,,,,,,,,,,,,,,,,,,,,,,,,,,,,,,,
,,,,,,,,,,00001591074,2020-10-17_21h00.20.442,swahili,2020.2.4,MacIntel,60,,,,,,,,,,0.33499349,0.035920139,1,0,0,1.09817,test_pile,9,0,9,0,1,YEAST - HAMIRA,,,,,,,,,,,,,,,,,,,,,,,,,,,,,,,,,,,,,,,,,,,,,,,,,,,,,,,,,,,,,,,,,,,,,,,,,,,,,,,,
,,,,,,,,,,00001591074,2020-10-17_21h00.20.442,swahili,2020.2.4,MacIntel,60,,,,,,,,,,-0.300363498,-0.013411458,1,0,0,0.515135,unsorted_card,10,0,10,0,1,,,,,,,,,,,,,,,,,,,,,,,,,,,,,,,,,,,,,,,,,,,,,,,,,,,,,,,,,,,,,,,,,,,,,,,,,,,,,,,,,
,,,,,,,,,,00001591074,2020-10-17_21h00.20.442,swahili,2020.2.4,MacIntel,60,,,,,,,,,,0.394504123,-0.048541667,1,0,0,1.082515,test_pile,11,0,11,0,1,BLAME - LAWAMA,,,,,,,,,,,,,,,,,,,,,,,,,,,,,,,,,,,,,,,,,,,,,,,,,,,,,,,,,,,,,,,,,,,,,,,,,,,,,,,,
,,,,,,,,,,00001591074,2020-10-17_21h00.20.442,swahili,2020.2.4,MacIntel,60,,,,,,,,,,-0.262771267,-0.122960069,1,0,0,0.53005,unsorted_card,12,0,12,0,1,,,,,,,,,,,,,,,,,,,,,,,,,,,,,,,,,,,,,,,,,,,,,,,,,,,,,,,,,,,,,,,,,,,,,,,,,,,,,,,,,
,,,,,,,,,,00001591074,2020-10-17_21h00.20.442,swahili,2020.2.4,MacIntel,60,,,,,,,,,,0.32718099,0.037829861,1,0,0,1.16613,test_pile,13,0,13,0,1,OATH - YAMINI,,,,,,,,,,,,,,,,,,,,,,,,,,,,,,,,,,,,,,,,,,,,,,,,,,,,,,,,,,,,,,,,,,,,,,,,,,,,,,,,
,,,,,,,,,,00001591074,2020-10-17_21h00.20.442,swahili,2020.2.4,MacIntel,60,,,,,,,,,,-0.272319878,0.017282986,1,0,0,0.49911,unsorted_card,14,0,14,0,1,,,,,,,,,,,,,,,,,,,,,,,,,,,,,,,,,,,,,,,,,,,,,,,,,,,,,,,,,,,,,,,,,,,,,,,,,,,,,,,,,
,,,,,,,,,,00001591074,2020-10-17_21h00.20.442,swahili,2020.2.4,MacIntel,60,,,,,,,,,,0.376285807,0.082960069,1,0,0,1.16461,test_pile,15,0,15,0,1,CORN - NAFAKA,,,,,,,,,,,,,,,,,,,,,,,,,,,,,,,,,,,,,,,,,,,,,,,,,,,,,,,,,,,,,,,,,,,,,,,,,,,,,,,,
,,,,,,,,,,00001591074,2020-10-17_21h00.20.442,swahili,2020.2.4,MacIntel,60,,,,,,,,,,-0.393560113,-0.098810764,1,0,0,0.497425,unsorted_card,16,0,16,0,1,,,,,,,,,,,,,,,,,,,,,,,,,,,,,,,,,,,,,,,,,,,,,,,,,,,,,,,,,,,,,,,,,,,,,,,,,,,,,,,,,
,,,,,,,,,,00001591074,2020-10-17_21h00.20.442,swahili,2020.2.4,MacIntel,60,,,,,,,,,,0.358544922,-0.070859375,1,0,0,1.049305,test_pile,17,0,17,0,1,POEM - UTENZI,,,,,,,,,,,,,,,,,,,,,,,,,,,,,,,,,,,,,,,,,,,,,,,,,,,,,,,,,,,,,,,,,,,,,,,,,,,,,,,,
,,,,,,,,,,00001591074,2020-10-17_21h00.20.442,swahili,2020.2.4,MacIntel,60,,,,,,,,,,-0.274207899,-0.055850694,1,0,0,0.46317,unsorted_card,18,0,18,0,1,,,,,,,,,,,,,,,,,,,,,,,,,,,,,,,,,,,,,,,,,,,,,,,,,,,,,,,,,,,,,,,,,,,,,,,,,,,,,,,,,
,,,,,,,,,,00001591074,2020-10-17_21h00.20.442,swahili,2020.2.4,MacIntel,60,,,,,,,,,,0.36336263,0.011762153,1,0,0,1.03208,test_pile,19,0,19,0,1,TAILOR - MSHONI,,,,,,,,,,,,,,,,,,,,,,,,,,,,,,,,,,,,,,,,,,,,,,,,,,,,,,,,,,,,,,,,,,,,,,,,,,,,,,,,
,,,,,,,,,,00001591074,2020-10-17_21h00.20.442,swahili,2020.2.4,MacIntel,60,,,,,,,,,,-0.229790582,-0.0028125,1,0,0,0.46389,unsorted_card,20,0,20,0,1,,,,,,,,,,,,,,,,,,,,,,,,,,,,,,,,,,,,,,,,,,,,,,,,,,,,,,,,,,,,,,,,,,,,,,,,,,,,,,,,,
,,,,,,,,,,00001591074,2020-10-17_21h00.20.442,swahili,2020.2.4,MacIntel,60,,,,,,,,,,0.449576823,0.006319444,1,0,0,0.883655,test_pile,21,0,21,0,1,CHEESE - JIBINI,,,,,,,,,,,,,,,,,,,,,,,,,,,,,,,,,,,,,,,,,,,,,,,,,,,,,,,,,,,,,,,,,,,,,,,,,,,,,,,,
,,,,,,,,,,00001591074,2020-10-17_21h00.20.442,swahili,2020.2.4,MacIntel,60,,,,,,,,,,-0.141064453,-0.013020833,1,0,0,0.59549,unsorted_card,22,0,22,0,1,,,,,,,,,,,,,,,,,,,,,,,,,,,,,,,,,,,,,,,,,,,,,,,,,,,,,,,,,,,,,,,,,,,,,,,,,,,,,,,,,
,,,,,,,,,,00001591074,2020-10-17_21h00.20.442,swahili,2020.2.4,MacIntel,60,,,,,,,,,,0.432763672,0.00796875,1,0,0,1.164345,test_pile,23,0,23,0,1,GRAPES - ZABIBU,,,,,,,,,,,,,,,,,,,,,,,,,,,,,,,,,,,,,,,,,,,,,,,,,,,,,,,,,,,,,,,,,,,,,,,,,,,,,,,,
,,,,,,,,,,00001591074,2020-10-17_21h00.20.442,swahili,2020.2.4,MacIntel,60,,,,,,,,,,-0.451730686,-0.001171875,1,0,0,0.44868,unsorted_card,24,0,24,0,1,,,,,,,,,,,,,,,,,,,,,,,,,,,,,,,,,,,,,,,,,,,,,,,,,,,,,,,,,,,,,,,,,,,,,,,,,,,,,,,,,
,,,,,,,,,,00001591074,2020-10-17_21h00.20.442,swahili,2020.2.4,MacIntel,60,,,,,,,,,,0.407242839,0.036380208,1,0,0,1.13195,test_pile,25,0,25,0,1,GRAVE - KABURI,,,,,,,,,,,,,,,,,,,,,,,,,,,,,,,,,,,,,,,,,,,,,,,,,,,,,,,,,,,,,,,,,,,,,,,,,,,,,,,,
,,,,,,,,,,00001591074,2020-10-17_21h00.20.442,swahili,2020.2.4,MacIntel,60,,,,,,,,,,-0.306754557,0.012274306,1,0,0,0.448775,unsorted_card,26,0,26,0,1,,,,,,,,,,,,,,,,,,,,,,,,,,,,,,,,,,,,,,,,,,,,,,,,,,,,,,,,,,,,,,,,,,,,,,,,,,,,,,,,,
,,,,,,,,,,00001591074,2020-10-17_21h00.20.442,swahili,2020.2.4,MacIntel,60,,,,,,,,,,0.343538411,-0.005451389,1,0,0,1.230565,test_pile,27,0,27,0,1,MANURE - SAMADI,,,,,,,,,,,,,,,,,,,,,,,,,,,,,,,,,,,,,,,,,,,,,,,,,,,,,,,,,,,,,,,,,,,,,,,,,,,,,,,,
,,,,,,,,,,00001591074,2020-10-17_21h00.20.442,swahili,2020.2.4,MacIntel,60,,,,,,,,,,-0.416547309,-0.074184028,1,0,0,0.48075,unsorted_card,28,0,28,0,1,,,,,,,,,,,,,,,,,,,,,,,,,,,,,,,,,,,,,,,,,,,,,,,,,,,,,,,,,,,,,,,,,,,,,,,,,,,,,,,,,
,,,,,,,,,,00001591074,2020-10-17_21h00.20.442,swahili,2020.2.4,MacIntel,60,,,,,,,,,,0.344504123,-0.010052083,1,0,0,1.163975,test_pile,29,0,29,0,1,AGENT - WAKILI,,,,,,,,,,,,,,,,,,,,,,,,,,,,,,,,,,,,,,,,,,,,,,,,,,,,,,,,,,,,,,,,,,,,,,,,,,,,,,,,
,,,,,,,,,,00001591074,2020-10-17_21h00.20.442,swahili,2020.2.4,MacIntel,60,,,,,,,,,,-0.341650391,-0.054348958,1,0,0,0.46456,unsorted_card,30,0,30,0,1,,,,,,,,,,,,,,,,,,,,,,,,,,,,,,,,,,,,,,,,,,,,,,,,,,,,,,,,,,,,,,,,,,,,,,,,,,,,,,,,,
,,,,,,,,,,00001591074,2020-10-17_21h00.20.442,swahili,2020.2.4,MacIntel,60,,,,,,,,,,0.385036892,-0.010546875,1,0,0,1.232765,test_pile,31,0,31,0,1,BRIBE - RUSHWA,,,,,,,,,,,,,,,,,,,,,,,,,,,,,,,,,,,,,,,,,,,,,,,,,,,,,,,,,,,,,,,,,,,,,,,,,,,,,,,,
,,,,,,,,,,00001591074,2020-10-17_21h00.20.442,swahili,2020.2.4,MacIntel,60,,,,,,,,,,-0.270865885,-0.010546875,1,0,0,0.513965,unsorted_card,32,0,32,0,1,,,,,,,,,,,,,,,,,,,,,,,,,,,,,,,,,,,,,,,,,,,,,,,,,,,,,,,,,,,,,,,,,,,,,,,,,,,,,,,,,
,,,,,,,,,,00001591074,2020-10-17_21h00.20.442,swahili,2020.2.4,MacIntel,60,,,,,,,,,,0.497998047,-0.035407986,1,0,0,0.981755,test_pile,33,0,33,0,1,ORPHAN - YATIMA,,,,,,,,,,,,,,,,,,,,,,,,,,,,,,,,,,,,,,,,,,,,,,,,,,,,,,,,,,,,,,,,,,,,,,,,,,,,,,,,
,,,,,,,,,,00001591074,2020-10-17_21h00.20.442,swahili,2020.2.4,MacIntel,60,,,,,,,,,,-0.296994358,-0.158446181,1,0,0,0.546965,unsorted_card,34,0,34,0,1,,,,,,,,,,,,,,,,,,,,,,,,,,,,,,,,,,,,,,,,,,,,,,,,,,,,,,,,,,,,,,,,,,,,,,,,,,,,,,,,,
,,,,,,,,,,00001591074,2020-10-17_21h00.20.442,swahili,2020.2.4,MacIntel,60,,,,,,,,,,0.407904731,-0.075026042,1,0,0,1.16625,test_pile,35,0,35,0,1,DIVORCE - TALAKA,,,,,,,,,,,,,,,,,,,,,,,,,,,,,,,,,,,,,,,,,,,,,,,,,,,,,,,,,,,,,,,,,,,,,,,,,,,,,,,,
,,,,,,,,,,00001591074,2020-10-17_21h00.20.442,swahili,2020.2.4,MacIntel,60,,,,,,,,,,-0.374745009,-0.089427083,1,0,0,0.53084,unsorted_card,36,0,36,0,1,,,,,,,,,,,,,,,,,,,,,,,,,,,,,,,,,,,,,,,,,,,,,,,,,,,,,,,,,,,,,,,,,,,,,,,,,,,,,,,,,
,,,,,,,,,,00001591074,2020-10-17_21h00.20.442,swahili,2020.2.4,MacIntel,60,,,,,,,,,,0.396592882,0.035399306,1,0,0,0.91499,test_pile,37,0,37,0,1,BOAT - MASHUA,,,,,,,,,,,,,,,,,,,,,,,,,,,,,,,,,,,,,,,,,,,,,,,,,,,,,,,,,,,,,,,,,,,,,,,,,,,,,,,,
,,,,,,,,,,00001591074,2020-10-17_21h00.20.442,swahili,2020.2.4,MacIntel,60,,,,,,,,,,-0.273388672,-0.065885417,1,0,0,0.748015,unsorted_card,38,0,38,0,1,,,,,,,,,,,,,,,,,,,,,,,,,,,,,,,,,,,,,,,,,,,,,,,,,,,,,,,,,,,,,,,,,,,,,,,,,,,,,,,,,
,,,,,,,,,,00001591074,2020-10-17_21h00.20.442,swahili,2020.2.4,MacIntel,60,,,,,,,,,,0.433599175,0.056076389,1,0,0,0.998595,test_pile,39,0,39,0,1,TREASURE - DAFINA,,,,,,,,,,,,,,,,,,,,,,,,,,,,,,,,,,,,,,,,,,,,,,,,,,,,,,,,,,,,,,,,,,,,,,,,,,,,,,,,
,,,,,,,,,,00001591074,2020-10-17_21h00.20.442,swahili,2020.2.4,MacIntel,60,,,,,,,,,,,,,,,,,,,,,,,,,,,,,,,,,,0,0,0,0,1,,,,,,,,,,,,,,,,,,,,,,,,,,,,,,,,,,,,,,,,,,,,,,,,,,,,,,,,,,,,,,,,
,,,,,,,,,,00001591074,2020-10-17_21h00.20.442,swahili,2020.2.4,MacIntel,60,,,,,,,,,,,,,,,,,,,,,,,,,,,,,,,,,,,,,,,return,,,,,,,,,,,2.662555,3.364185,0.445399306,-0.092578125,1,0,0,1.81412,yes,BRIBE,RUSHWA,incorrect,0,0,0,0,1,,,,,,,,,,,,,,,,,,,,,,,,,,,,,,,,,,,,
,,,,,,,,,,00001591074,2020-10-17_21h00.20.442,swahili,2020.2.4,MacIntel,60,,,,,,,,,,,,,,,,,,,,,,,,,,,,,,,,,,,,,,,,,,,,,,,,,,,12.67974,0.360080295,-0.13875,1,0,0,1.18379,yes,BOAT,MBURU,incorrect,1,0,1,0,1,,,,,,,,,,,,,,,,,,,,,,,,,,,,,,,,,,,,
,,,,,,,,,,00001591074,2020-10-17_21h00.20.442,swahili,2020.2.4,MacIntel,60,,,,,,,,,,,,,,,,,,,,,,,,,,,,,,,,,,,,,,,,,,,,,,,,,,,4.69707,0.338693576,-0.151189236,1,0,0,1.16687,yes,PARROT,N,incorrect,2,0,2,0,1,,,,,,,,,,,,,,,,,,,,,,,,,,,,,,,,,,,,
,,,,,,,,,,00001591074,2020-10-17_21h00.20.442,swahili,2020.2.4,MacIntel,60,,,,,,,,,,,,,,,,,,,,,,,,,,,,,,,,,,,,,,,,,,,,,,,,,,,4.913995,0.45093316,-0.084053819,1,0,0,0.95028,yes,MERCHANT,MBUSHI,incorrect,3,0,3,0,1,,,,,,,,,,,,,,,,,,,,,,,,,,,,,,,,,,,,
,,,,,,,,,,00001591074,2020-10-17_21h00.20.442,swahili,2020.2.4,MacIntel,60,,,,,,,,,,,,,,,,,,,,,,,,,,,,,,,,,,,,,,,,,,,,,,,,,,,4.93011,0.470947266,0.071510417,1,0,0,0.83241,yes,CHEESE,JIKIRI,incorrect,4,0,4,0,1,,,,,,,,,,,,,,,,,,,,,,,,,,,,,,,,,,,,
,,,,,,,,,,00001591074,2020-10-17_21h00.20.442,swahili,2020.2.4,MacIntel,60,,,,,,,,,,,,,,,,,,,,,,,,,,,,,,,,,,,,,,,,,,,,,,,,,,,7.715355,0.353108724,-0.047907986,1,0,0,0.948945,yes,BLAME,MBUSHU,incorrect,5,0,5,0,1,,,,,,,,,,,,,,,,,,,,,,,,,,,,,,,,,,,,
,,,,,,,,,,00001591074,2020-10-17_21h00.20.442,swahili,2020.2.4,MacIntel,60,,,,,,,,,,,,,,,,,,,,,,,,,,,,,,,,,,,,,,,,,,,,,,,,,,,3.14754,0.365608724,-0.001727431,1,0,0,0.748965,yes,TAILOR,MBUSHU,incorrect,6,0,6,0,1,,,,,,,,,,,,,,,,,,,,,,,,,,,,,,,,,,,,
,,,,,,,,,,00001591074,2020-10-17_21h00.20.442,swahili,2020.2.4,MacIntel,60,,,,,,,,,,,,,,,,,,,,,,,,,,,,,,,,,,,,,,,,,,,,,,,,,,,3.33054,0.33913303,-0.051892361,1,0,0,0.782825,yes,MANURE,YAKAMA,incorrect,7,0,7,0,1,,,,,,,,,,,,,,,,,,,,,,,,,,,,,,,,,,,,
,,,,,,,,,,00001591074,2020-10-17_21h00.20.442,swahili,2020.2.4,MacIntel,60,,,,,,,,,,,,,,,,,,,,,,,,,,,,,,,,,,,,,,,,,,,,,,,,,,,7.19596,0.334217665,-0.088298611,1,0,0,0.7332,yes,CORN,Y,incorrect,8,0,8,0,1,,,,,,,,,,,,,,,,,,,,,,,,,,,,,,,,,,,,
,,,,,,,,,,00001591074,2020-10-17_21h00.20.442,swahili,2020.2.4,MacIntel,60,,,,,,,,,,,,,,,,,,,,,,,,,,,,,,,,,,,,,,,,,,,,,,,,,,,2.83103,0.373394097,-0.068715278,1,0,0,1.032335,yes,OATH,K,incorrect,9,0,9,0,1,,,,,,,,,,,,,,,,,,,,,,,,,,,,,,,,,,,,
,,,,,,,,,,00001591074,2020-10-17_21h00.20.442,swahili,2020.2.4,MacIntel,60,,,,,,,,,,,,,,,,,,,,,,,,,,,,,,,,,,,,,,,,,,,,,,,,,,,2.36366,0.361214193,-0.107664931,1,0,0,0.83313,yes,BULL,M,incorrect,10,0,10,0,1,,,,,,,,,,,,,,,,,,,,,,,,,,,,,,,,,,,,
,,,,,,,,,,00001591074,2020-10-17_21h00.20.442,swahili,2020.2.4,MacIntel,60,,,,,,,,,,,,,,,,,,,,,,,,,,,,,,,,,,,,,,,,,,,,,,,,,,,2.48143,0.460525174,-0.052543403,1,0,0,0.7824,yes,TREASURE,M,incorrect,11,0,11,0,1,,,,,,,,,,,,,,,,,,,,,,,,,,,,,,,,,,,,
,,,,,,,,,,00001591074,2020-10-17_21h00.20.442,swahili,2020.2.4,MacIntel,60,,,,,,,,,,,,,,,,,,,,,,,,,,,,,,,,,,,,,,,,,,,,,,,,,,,9.16476,0.325895182,-0.104852431,1,0,0,0.799065,yes,POEM,UTIZA,incorrect,12,0,12,0,1,,,,,,,,,,,,,,,,,,,,,,,,,,,,,,,,,,,,
,,,,,,,,,,00001591074,2020-10-17_21h00.20.442,swahili,2020.2.4,MacIntel,60,,,,,,,,,,,,,,,,,,,,,,,,,,,,,,,,,,,,,,,,,,,,,,,,,,,2.28135,0.414181858,-0.019800347,1,0,0,0.78176,yes,DIVORCE,M,incorrect,13,0,13,0,1,,,,,,,,,,,,,,,,,,,,,,,,,,,,,,,,,,,,
,,,,,,,,,,00001591074,2020-10-17_21h00.20.442,swahili,2020.2.4,MacIntel,60,,,,,,,,,,,,,,,,,,,,,,,,,,,,,,,,,,,,,,,,,,,,,,,,,,,4.26374,0.444786241,0.005998264,1,0,0,0.6837,yes,PLATE,SAHINI,incorrect,14,0,14,0,1,,,,,,,,,,,,,,,,,,,,,,,,,,,,,,,,,,,,
,,,,,,,,,,00001591074,2020-10-17_21h00.20.442,swahili,2020.2.4,MacIntel,60,,,,,,,,,,,,,,,,,,,,,,,,,,,,,,,,,,,,,,,,,,,,,,,,,,,1.5975,0.400254991,0.068784722,1,0,0,0.74974,yes,GRAPES,M,incorrect,15,0,15,0,1,,,,,,,,,,,,,,,,,,,,,,,,,,,,,,,,,,,,
,,,,,,,,,,00001591074,2020-10-17_21h00.20.442,swahili,2020.2.4,MacIntel,60,,,,,,,,,,,,,,,,,,,,,,,,,,,,,,,,,,,,,,,,,,,,,,,,,,,2.5801,0.327956814,-0.092604167,1,0,0,0.73283,yes,YEAST,M,incorrect,16,0,16,0,1,,,,,,,,,,,,,,,,,,,,,,,,,,,,,,,,,,,,
,,,,,,,,,,00001591074,2020-10-17_21h00.20.442,swahili,2020.2.4,MacIntel,60,,,,,,,,,,,,,,,,,,,,,,,,,,,,,,,,,,,,,,,,,,,,,,,,,,,2.01223,0.411295573,-0.065685764,1,0,0,0.68092,yes,GRAVE,M,incorrect,17,0,17,0,1,,,,,,,,,,,,,,,,,,,,,,,,,,,,,,,,,,,,
,,,,,,,,,,00001591074,2020-10-17_21h00.20.442,swahili,2020.2.4,MacIntel,60,,,,,,,,,,,,,,,,,,,,,,,,,,,,,,,,,,,,,,,,,,,,,,,,,,,4.0805,0.425325521,-0.088810764,1,0,0,0.68337,yes,ORPHAN,YATIMA,incorrect,18,0,18,0,1,,,,,,,,,,,,,,,,,,,,,,,,,,,,,,,,,,,,
,,,,,,,,,,00001591074,2020-10-17_21h00.20.442,swahili,2020.2.4,MacIntel,60,,,,,,,,,,,,,,,,,,,,,,,,,,,,,,,,,,,,,,,,,,,,,,,,,,,2.94753,0.360997179,-0.109592014,1,0,0,0.68293,yes,AGENT,M,incorrect,19,0,19,0,1,,,,,,,,,,,,,,,,,,,,,,,,,,,,,,,,,,,,
,,,,,,,,,,00001591074,2020-10-17_21h00.20.442,swahili,2020.2.4,MacIntel,60,,,,,,,,,,,,,,,,,,,,,,,,,,,,,,,,,,,,,,,,0,0,0,0,1,,,,,,,,,,,,,,,,,,,,,,,,,,,,,,,,,,,,,,,,,,,,,,,,,,,,,,,,,,
,,,,,,,,,,00001591074,2020-10-17_21h00.20.442,swahili,2020.2.4,MacIntel,60,,,,,,,,,,,,,,,,,,,,,,,,,,,,,,,,,,,,,,,,1,0,1,0,1,,,,,,,,,,,,,,,,,,,,,,,,,,,,,,,,,,,,,,,,,,,,,,,,,,,,,,,,,,
,,,,,,,,,,00001591074,2020-10-17_21h00.20.442,swahili,2020.2.4,MacIntel,60,,,,,,,,,,,,,,,,,,,,,,,,,,,,,,,,,,,,,,,,,,,,,1,0,1,0,1,,,,,,,,,,,,,,,,,,,,,,,,,,,,,,,,,,,,,,,,,,,,,,,,,,,,,
,,,,,,,,,,00001591074,2020-10-17_21h00.20.442,swahili,2020.2.4,MacIntel,60,,,,,,,,,,-0.424663628,-0.094878472,1,0,0,1.498325,unsorted_card,0,0,0,0,1,,,,,,,,,,,,,,,,,,,,,,,,,,,,,,,,,,,,,,,,,,,,,,,,,,,,,,,,,,,,,,,,,,,,,,,,,,,,,,,,,
,,,,,,,,,,00001591074,2020-10-17_21h00.20.442,swahili,2020.2.4,MacIntel,60,,,,,,,,,,0.403542752,-0.035581597,1,0,0,2.394545,test_pile,1,0,1,0,1,MERCHANT - TAJIRI,,,,,,,,,,,,,,,,,,,,,,,,,,,,,,,,,,,,,,,,,,,,,,,,,,,,,,,,,,,,,,,,,,,,,,,,,,,,,,,,
,,,,,,,,,,00001591074,2020-10-17_21h00.20.442,swahili,2020.2.4,MacIntel,60,,,,,,,,,,-0.125797526,-0.102916667,1,0,0,0.86622,unsorted_card,2,0,2,0,1,,,,,,,,,,,,,,,,,,,,,,,,,,,,,,,,,,,,,,,,,,,,,,,,,,,,,,,,,,,,,,,,,,,,,,,,,,,,,,,,,
,,,,,,,,,,00001591074,2020-10-17_21h00.20.442,swahili,2020.2.4,MacIntel,60,,,,,,,,,,0.510519748,0.059505208,1,0,0,1.115195,test_pile,3,0,3,0,1,PARROT - KASUKU,,,,,,,,,,,,,,,,,,,,,,,,,,,,,,,,,,,,,,,,,,,,,,,,,,,,,,,,,,,,,,,,,,,,,,,,,,,,,,,,
,,,,,,,,,,00001591074,2020-10-17_21h00.20.442,swahili,2020.2.4,MacIntel,60,,,,,,,,,,-0.21171875,-0.040972222,1,0,0,0.514005,unsorted_card,4,0,4,0,1,,,,,,,,,,,,,,,,,,,,,,,,,,,,,,,,,,,,,,,,,,,,,,,,,,,,,,,,,,,,,,,,,,,,,,,,,,,,,,,,,
,,,,,,,,,,00001591074,2020-10-17_21h00.20.442,swahili,2020.2.4,MacIntel,60,,,,,,,,,,0.387141927,0.013967014,1,0,0,3.26539,test_pile,5,0,5,0,1,BULL - FAHILI,,,,,,,,,,,,,,,,,,,,,,,,,,,,,,,,,,,,,,,,,,,,,,,,,,,,,,,,,,,,,,,,,,,,,,,,,,,,,,,,
,,,,,,,,,,00001591074,2020-10-17_21h00.20.442,swahili,2020.2.4,MacIntel,60,,,,,,,,,,-0.322867839,-0.149678819,1,0,0,0.49781,unsorted_card,6,0,6,0,1,,,,,,,,,,,,,,,,,,,,,,,,,,,,,,,,,,,,,,,,,,,,,,,,,,,,,,,,,,,,,,,,,,,,,,,,,,,,,,,,,
,,,,,,,,,,00001591074,2020-10-17_21h00.20.442,swahili,2020.2.4,MacIntel,60,,,,,,,,,,0.411393229,-0.064791667,1,0,0,1.18207,test_pile,7,0,7,0,1,PLATE - SAHANI,,,,,,,,,,,,,,,,,,,,,,,,,,,,,,,,,,,,,,,,,,,,,,,,,,,,,,,,,,,,,,,,,,,,,,,,,,,,,,,,
,,,,,,,,,,00001591074,2020-10-17_21h00.20.442,swahili,2020.2.4,MacIntel,60,,,,,,,,,,-0.402794054,-0.151909722,1,0,0,0.649565,unsorted_card,8,0,8,0,1,,,,,,,,,,,,,,,,,,,,,,,,,,,,,,,,,,,,,,,,,,,,,,,,,,,,,,,,,,,,,,,,,,,,,,,,,,,,,,,,,
,,,,,,,,,,00001591074,2020-10-17_21h00.20.442,swahili,2020.2.4,MacIntel,60,,,,,,,,,,0.538460286,-0.024375,1,0,0,15.98003,test_pile,9,0,9,0,1,YEAST - HAMIRA,,,,,,,,,,,,,,,,,,,,,,,,,,,,,,,,,,,,,,,,,,,,,,,,,,,,,,,,,,,,,,,,,,,,,,,,,,,,,,,,
,,,,,,,,,,00001591074,2020-10-17_21h00.20.442,swahili,2020.2.4,MacIntel,60,,,,,,,,,,0.538460286,-0.024375,1,0,0,1.081045,test_pile,10,0,10,0,1,,,,,,,,,,,,,,,,,,,,,,,,,,,,,,,,,,,,,,,,,,,,,,,,,,,,,,,,,,,,,,,,,,,,,,,,,,,,,,,,,
,,,,,,,,,,00001591074,2020-10-17_21h00.20.442,swahili,2020.2.4,MacIntel,60,,,,,,,,,,-0.394514974,-0.129956597,1,0,0,0.698685,unsorted_card,11,0,11,0,1,,,,,,,,,,,,,,,,,,,,,,,,,,,,,,,,,,,,,,,,,,,,,,,,,,,,,,,,,,,,,,,,,,,,,,,,,,,,,,,,,
,,,,,,,,,,00001591074,2020-10-17_21h00.20.442,swahili,2020.2.4,MacIntel,60,,,,,,,,,,0.441726345,0.014131944,1,0,0,1.232065,test_pile,12,0,12,0,1,BLAME - LAWAMA,,,,,,,,,,,,,,,,,,,,,,,,,,,,,,,,,,,,,,,,,,,,,,,,,,,,,,,,,,,,,,,,,,,,,,,,,,,,,,,,
,,,,,,,,,,00001591074,2020-10-17_21h00.20.442,swahili,2020.2.4,MacIntel,60,,,,,,,,,,-0.16539171,-0.079921875,1,0,0,0.56504,unsorted_card,13,0,13,0,1,,,,,,,,,,,,,,,,,,,,,,,,,,,,,,,,,,,,,,,,,,,,,,,,,,,,,,,,,,,,,,,,,,,,,,,,,,,,,,,,,
,,,,,,,,,,00001591074,2020-10-17_21h00.20.442,swahili,2020.2.4,MacIntel,60,,,,,,,,,,0.367469618,-0.044079861,1,0,0,44.73162,test_pile,14,0,14,0,1,OATH - YAMINI,,,,,,,,,,,,,,,,,,,,,,,,,,,,,,,,,,,,,,,,,,,,,,,,,,,,,,,,,,,,,,,,,,,,,,,,,,,,,,,,
,,,,,,,,,,00001591074,2020-10-17_21h00.20.442,swahili,2020.2.4,MacIntel,60,,,,,,,,,,-0.262603082,-0.027482639,1,0,0,1.22837,unsorted_card,15,0,15,0,1,,,,,,,,,,,,,,,,,,,,,,,,,,,,,,,,,,,,,,,,,,,,,,,,,,,,,,,,,,,,,,,,,,,,,,,,,,,,,,,,,
,,,,,,,,,,00001591074,2020-10-17_21h00.20.442,swahili,2020.2.4,MacIntel,60,,,,,,,,,,0.371842448,0.04828125,1,0,0,8.432655,test_pile,16,0,16,0,1,CORN - NAFAKA,,,,,,,,,,,,,,,,,,,,,,,,,,,,,,,,,,,,,,,,,,,,,,,,,,,,,,,,,,,,,,,,,,,,,,,,,,,,,,,,
,,,,,,,,,,00001591074,2020-10-17_21h00.20.442,swahili,2020.2.4,MacIntel,60,,,,,,,,,,-0.213818359,0.101883681,1,0,0,0.847235,unsorted_card,17,0,17,0,1,,,,,,,,,,,,,,,,,,,,,,,,,,,,,,,,,,,,,,,,,,,,,,,,,,,,,,,,,,,,,,,,,,,,,,,,,,,,,,,,,
,,,,,,,,,,00001591074,2020-10-17_21h00.20.442,swahili,2020.2.4,MacIntel,60,,,,,,,,,,0.474734158,-0.073723958,1,0,0,21.31347,test_pile,18,0,18,0,1,POEM - UTENZI,,,,,,,,,,,,,,,,,,,,,,,,,,,,,,,,,,,,,,,,,,,,,,,,,,,,,,,,,,,,,,,,,,,,,,,,,,,,,,,,
,,,,,,,,,,00001591074,2020-10-17_21h00.20.442,swahili,2020.2.4,MacIntel,60,,,,,,,,,,-0.192437066,-0.064322917,1,0,0,1.73127,unsorted_card,19,0,19,0,1,,,,,,,,,,,,,,,,,,,,,,,,,,,,,,,,,,,,,,,,,,,,,,,,,,,,,,,,,,,,,,,,,,,,,,,,,,,,,,,,,
,,,,,,,,,,00001591074,2020-10-17_21h00.20.442,swahili,2020.2.4,MacIntel,60,,,,,,,,,,0.382855903,0.037708333,1,0,0,4.31493,test_pile,20,0,20,0,1,TAILOR - MSHONI,,,,,,,,,,,,,,,,,,,,,,,,,,,,,,,,,,,,,,,,,,,,,,,,,,,,,,,,,,,,,,,,,,,,,,,,,,,,,,,,
,,,,,,,,,,00001591074,2020-10-17_21h00.20.442,swahili,2020.2.4,MacIntel,60,,,,,,,,,,-0.27569987,-0.003081597,1,0,0,0.663065,unsorted_card,21,0,21,0,1,,,,,,,,,,,,,,,,,,,,,,,,,,,,,,,,,,,,,,,,,,,,,,,,,,,,,,,,,,,,,,,,,,,,,,,,,,,,,,,,,
,,,,,,,,,,00001591074,2020-10-17_21h00.20.442,swahili,2020.2.4,MacIntel,60,,,,,,,,,,0.389089627,0.017916667,1,0,0,1.298785,test_pile,22,0,22,0,1,CHEESE - JIBINI,,,,,,,,,,,,,,,,,,,,,,,,,,,,,,,,,,,,,,,,,,,,,,,,,,,,,,,,,,,,,,,,,,,,,,,,,,,,,,,,
,,,,,,,,,,00001591074,2020-10-17_21h00.20.442,swahili,2020.2.4,MacIntel,60,,,,,,,,,,-0.20476888,-0.027934028,1,0,0,0.58261,unsorted_card,23,0,23,0,1,,,,,,,,,,,,,,,,,,,,,,,,,,,,,,,,,,,,,,,,,,,,,,,,,,,,,,,,,,,,,,,,,,,,,,,,,,,,,,,,,
,,,,,,,,,,00001591074,2020-10-17_21h00.20.442,swahili,2020.2.4,MacIntel,60,,,,,,,,,,0.449880642,-0.020642361,1,0,0,1.53198,test_pile,24,0,24,0,1,GRAPES - ZABIBU,,,,,,,,,,,,,,,,,,,,,,,,,,,,,,,,,,,,,,,,,,,,,,,,,,,,,,,,,,,,,,,,,,,,,,,,,,,,,,,,
,,,,,,,,,,00001591074,2020-10-17_21h00.20.442,swahili,2020.2.4,MacIntel,60,,,,,,,,,,-0.259651693,-0.216631944,1,0,0,0.581985,unsorted_card,25,0,25,0,1,,,,,,,,,,,,,,,,,,,,,,,,,,,,,,,,,,,,,,,,,,,,,,,,,,,,,,,,,,,,,,,,,,,,,,,,,,,,,,,,,
,,,,,,,,,,00001591074,2020-10-17_21h00.20.442,swahili,2020.2.4,MacIntel,60,,,,,,,,,,0.412169054,-0.093559028,1,0,0,3.347925,test_pile,26,0,26,0,1,GRAVE - KABURI,,,,,,,,,,,,,,,,,,,,,,,,,,,,,,,,,,,,,,,,,,,,,,,,,,,,,,,,,,,,,,,,,,,,,,,,,,,,,,,,
,,,,,,,,,,00001591074,2020-10-17_21h00.20.442,swahili,2020.2.4,MacIntel,60,,,,,,,,,,-0.415945095,-0.102560764,1,0,0,0.61292,unsorted_card,27,0,27,0,1,,,,,,,,,,,,,,,,,,,,,,,,,,,,,,,,,,,,,,,,,,,,,,,,,,,,,,,,,,,,,,,,,,,,,,,,,,,,,,,,,
,,,,,,,,,,00001591074,2020-10-17_21h00.20.442,swahili,2020.2.4,MacIntel,60,,,,,,,,,,0.623936632,-0.022829861,1,0,0,2.51481,test_pile,28,0,28,0,1,MANURE - SAMADI,,,,,,,,,,,,,,,,,,,,,,,,,,,,,,,,,,,,,,,,,,,,,,,,,,,,,,,,,,,,,,,,,,,,,,,,,,,,,,,,
,,,,,,,,,,00001591074,2020-10-17_21h00.20.442,swahili,2020.2.4,MacIntel,60,,,,,,,,,,-0.277435981,0.051440972,1,0,0,0.664175,unsorted_card,29,0,29,0,1,,,,,,,,,,,,,,,,,,,,,,,,,,,,,,,,,,,,,,,,,,,,,,,,,,,,,,,,,,,,,,,,,,,,,,,,,,,,,,,,,
,,,,,,,,,,00001591074,2020-10-17_21h00.20.442,swahili,2020.2.4,MacIntel,60,,,,,,,,,,0.33108724,0.001710069,1,0,0,2.116005,test_pile,30,0,30,0,1,AGENT - WAKILI,,,,,,,,,,,,,,,,,,,,,,,,,,,,,,,,,,,,,,,,,,,,,,,,,,,,,,,,,,,,,,,,,,,,,,,,,,,,,,,,
,,,,,,,,,,00001591074,2020-10-17_21h00.20.442,swahili,2020.2.4,MacIntel,60,,,,,,,,,,-0.360498047,0.004166667,1,0,0,0.516025,unsorted_card,31,0,31,0,1,,,,,,,,,,,,,,,,,,,,,,,,,,,,,,,,,,,,,,,,,,,,,,,,,,,,,,,,,,,,,,,,,,,,,,,,,,,,,,,,,
,,,,,,,,,,00001591074,2020-10-17_21h00.20.442,swahili,2020.2.4,MacIntel,60,,,,,,,,,,0.349831814,0.052552083,1,0,0,1.39758,test_pile,32,0,32,0,1,BRIBE - RUSHWA,,,,,,,,,,,,,,,,,,,,,,,,,,,,,,,,,,,,,,,,,,,,,,,,,,,,,,,,,,,,,,,,,,,,,,,,,,,,,,,,
,,,,,,,,,,00001591074,2020-10-17_21h00.20.442,swahili,2020.2.4,MacIntel,60,,,,,,,,,,-0.334282769,0.075772569,1,0,0,0.816335,unsorted_card,33,0,33,0,1,,,,,,,,,,,,,,,,,,,,,,,,,,,,,,,,,,,,,,,,,,,,,,,,,,,,,,,,,,,,,,,,,,,,,,,,,,,,,,,,,
,,,,,,,,,,00001591074,2020-10-17_21h00.20.442,swahili,2020.2.4,MacIntel,60,,,,,,,,,,0.417019314,-0.427274306,1,0,0,1.613895,done_pile,34,0,34,0,1,ORPHAN - YATIMA,,,,,,,,,,,,,,,,,,,,,,,,,,,,,,,,,,,,,,,,,,,,,,,,,,,,,,,,,,,,,,,,,,,,,,,,,,,,,,,,
,,,,,,,,,,00001591074,2020-10-17_21h00.20.442,swahili,2020.2.4,MacIntel,60,,,,,,,,,,-0.303900825,-0.036918403,1,0,0,0.54627,unsorted_card,35,0,35,0,1,,,,,,,,,,,,,,,,,,,,,,,,,,,,,,,,,,,,,,,,,,,,,,,,,,,,,,,,,,,,,,,,,,,,,,,,,,,,,,,,,
,,,,,,,,,,00001591074,2020-10-17_21h00.20.442,swahili,2020.2.4,MacIntel,60,,,,,,,,,,0.532058377,-0.015026042,1,0,0,1.116785,test_pile,36,0,36,0,1,DIVORCE - TALAKA,,,,,,,,,,,,,,,,,,,,,,,,,,,,,,,,,,,,,,,,,,,,,,,,,,,,,,,,,,,,,,,,,,,,,,,,,,,,,,,,
,,,,,,,,,,00001591074,2020-10-17_21h00.20.442,swahili,2020.2.4,MacIntel,60,,,,,,,,,,-0.419184028,-0.056623264,1,0,0,0.61466,unsorted_card,37,0,37,0,1,,,,,,,,,,,,,,,,,,,,,,,,,,,,,,,,,,,,,,,,,,,,,,,,,,,,,,,,,,,,,,,,,,,,,,,,,,,,,,,,,
,,,,,,,,,,00001591074,2020-10-17_21h00.20.442,swahili,2020.2.4,MacIntel,60,,,,,,,,,,0.337120226,-0.086814236,1,0,0,2.245775,test_pile,38,0,38,0,1,BOAT - MASHUA,,,,,,,,,,,,,,,,,,,,,,,,,,,,,,,,,,,,,,,,,,,,,,,,,,,,,,,,,,,,,,,,,,,,,,,,,,,,,,,,
,,,,,,,,,,00001591074,2020-10-17_21h00.20.442,swahili,2020.2.4,MacIntel,60,,,,,,,,,,-0.391042752,-0.108237847,1,0,0,0.63183,unsorted_card,39,0,39,0,1,,,,,,,,,,,,,,,,,,,,,,,,,,,,,,,,,,,,,,,,,,,,,,,,,,,,,,,,,,,,,,,,,,,,,,,,,,,,,,,,,
,,,,,,,,,,00001591074,2020-10-17_21h00.20.442,swahili,2020.2.4,MacIntel,60,,,,,,,,,,0.577435981,-0.031197917,1,0,0,1.047735,test_pile,40,0,40,0,1,TREASURE - DAFINA,,,,,,,,,,,,,,,,,,,,,,,,,,,,,,,,,,,,,,,,,,,,,,,,,,,,,,,,,,,,,,,,,,,,,,,,,,,,,,,,
,,,,,,,,,,00001591074,2020-10-17_21h00.20.442,swahili,2020.2.4,MacIntel,60,,,,,,,,,,,,,,,,,,,,,,,,,,,,,,,,,,0,0,0,0,1,,,,,,,,,,,,,,,,,,,,,,,,,,,,,,,,,,,,,,,,,,,,,,,,,,,,,,,,,,,,,,,,
,,,,,,,,,,00001591074,2020-10-17_21h00.20.442,swahili,2020.2.4,MacIntel,60,,,,,,,,,,,,,,,,,,,,,,,,,,,,,,,,,,,,,,,return,,,,,,,,,,,1.19791,4.58228,0.388232422,-0.102708333,1,0,0,0.898965,yes,PLATE,SAHANA,incorrect,0,0,0,0,1,,,,,,,,,,,,,,,,,,,,,,,,,,,,,,,,,,,,
,,,,,,,,,,00001591074,2020-10-17_21h00.20.442,swahili,2020.2.4,MacIntel,60,,,,,,,,,,,,,,,,,,,,,,,,,,,,,,,,,,,,,,,,,,,,,,,,,,,5.213945,0.388232422,-0.102708333,1,0,0,0.60033,yes,POEM,UTENZI,incorrect,1,0,1,0,1,,,,,,,,,,,,,,,,,,,,,,,,,,,,,,,,,,,,
,,,,,,,,,,00001591074,2020-10-17_21h00.20.442,swahili,2020.2.4,MacIntel,60,,,,,,,,,,,,,,,,,,,,,,,,,,,,,,,,,,,,,,,,,,,,,,,,,,,2.94634,0.351090495,-0.166649306,1,0,0,0.68349,yes,OATH,YAMAKA,incorrect,2,0,2,0,1,,,,,,,,,,,,,,,,,,,,,,,,,,,,,,,,,,,,
,,,,,,,,,,00001591074,2020-10-17_21h00.20.442,swahili,2020.2.4,MacIntel,60,,,,,,,,,,,,,,,,,,,,,,,,,,,,,,,,,,,,,,,,,,,,,,,,,,,3.78143,0.360861545,-0.135277778,1,0,0,0.63271,yes,BULL,RUSHWA,incorrect,3,0,3,0,1,,,,,,,,,,,,,,,,,,,,,,,,,,,,,,,,,,,,
,,,,,,,,,,00001591074,2020-10-17_21h00.20.442,swahili,2020.2.4,MacIntel,60,,,,,,,,,,,,,,,,,,,,,,,,,,,,,,,,,,,,,,,,,,,,,,,,,,,7.348385,0.398149957,-0.076397569,1,0,0,0.81628,yes,PARROT,Y,incorrect,4,0,4,0,1,,,,,,,,,,,,,,,,,,,,,,,,,,,,,,,,,,,,
,,,,,,,,,,00001591074,2020-10-17_21h00.20.442,swahili,2020.2.4,MacIntel,60,,,,,,,,,,,,,,,,,,,,,,,,,,,,,,,,,,,,,,,,,,,,,,,,,,,5.164645,0.398149957,-0.076397569,1,0,0,0.76551,yes,TREASURE,A,incorrect,5,0,5,0,1,,,,,,,,,,,,,,,,,,,,,,,,,,,,,,,,,,,,
,,,,,,,,,,00001591074,2020-10-17_21h00.20.442,swahili,2020.2.4,MacIntel,60,,,,,,,,,,,,,,,,,,,,,,,,,,,,,,,,,,,,,,,,,,,,,,,,,,,4.213605,0.292247179,-0.191762153,1,0,0,0.966335,yes,AGENT,MSHURI,incorrect,6,0,6,0,1,,,,,,,,,,,,,,,,,,,,,,,,,,,,,,,,,,,,
,,,,,,,,,,00001591074,2020-10-17_21h00.20.442,swahili,2020.2.4,MacIntel,60,,,,,,,,,,,,,,,,,,,,,,,,,,,,,,,,,,,,,,,,,,,,,,,,,,,11.34767,0.292247179,-0.191762153,1,0,0,0.515565,yes,BLAME,YAMAKA,incorrect,7,0,7,0,1,,,,,,,,,,,,,,,,,,,,,,,,,,,,,,,,,,,,
,,,,,,,,,,00001591074,2020-10-17_21h00.20.442,swahili,2020.2.4,MacIntel,60,,,,,,,,,,,,,,,,,,,,,,,,,,,,,,,,,,,,,,,,,,,,,,,,,,,2.497015,0.416851128,-0.062873264,1,0,0,0.66523,yes,TAILOR,MSHURI,incorrect,8,0,8,0,1,,,,,,,,,,,,,,,,,,,,,,,,,,,,,,,,,,,,
,,,,,,,,,,00001591074,2020-10-17_21h00.20.442,swahili,2020.2.4,MacIntel,60,,,,,,,,,,,,,,,,,,,,,,,,,,,,,,,,,,,,,,,,,,,,,,,,,,,22.631125,0.340489366,-0.019470486,1,0,0,0.88336,yes,BOAT,M,incorrect,9,0,9,0,1,,,,,,,,,,,,,,,,,,,,,,,,,,,,,,,,,,,,
,,,,,,,,,,00001591074,2020-10-17_21h00.20.442,swahili,2020.2.4,MacIntel,60,,,,,,,,,,,,,,,,,,,,,,,,,,,,,,,,,,,,,,,,,,,,,,,,,,,4.82979,0.340489366,-0.019470486,1,0,0,14.21637,yes,GRAVE,B,incorrect,10,0,10,0,1,,,,,,,,,,,,,,,,,,,,,,,,,,,,,,,,,,,,
,,,,,,,,,,00001591074,2020-10-17_21h00.20.442,swahili,2020.2.4,MacIntel,60,,,,,,,,,,,,,,,,,,,,,,,,,,,,,,,,,,,,,,,,,,,,,,,,,,,1.6971,0.340489366,-0.019470486,1,0,0,0.683075,yes,YEAST,M,incorrect,11,0,11,0,1,,,,,,,,,,,,,,,,,,,,,,,,,,,,,,,,,,,,
,,,,,,,,,,00001591074,2020-10-17_21h00.20.442,swahili,2020.2.4,MacIntel,60,,,,,,,,,,,,,,,,,,,,,,,,,,,,,,,,,,,,,,,,,,,,,,,,,,,2.597235,0.340489366,-0.019470486,1,0,0,0.733415,yes,DIVORCE,M,incorrect,12,0,12,0,1,,,,,,,,,,,,,,,,,,,,,,,,,,,,,,,,,,,,
,,,,,,,,,,00001591074,2020-10-17_21h00.20.442,swahili,2020.2.4,MacIntel,60,,,,,,,,,,,,,,,,,,,,,,,,,,,,,,,,,,,,,,,,,,,,,,,,,,,5.59676,0.340489366,-0.019470486,1,0,0,0.96662,yes,MERCHANT,MBARA,incorrect,13,0,13,0,1,,,,,,,,,,,,,,,,,,,,,,,,,,,,,,,,,,,,
,,,,,,,,,,00001591074,2020-10-17_21h00.20.442,swahili,2020.2.4,MacIntel,60,,,,,,,,,,,,,,,,,,,,,,,,,,,,,,,,,,,,,,,,,,,,,,,,,,,2.84698,0.25609809,0.037907986,1,0,0,0.566785,yes,CHEESE,JIHINI,incorrect,14,0,14,0,1,,,,,,,,,,,,,,,,,,,,,,,,,,,,,,,,,,,,
,,,,,,,,,,00001591074,2020-10-17_21h00.20.442,swahili,2020.2.4,MacIntel,60,,,,,,,,,,,,,,,,,,,,,,,,,,,,,,,,,,,,,,,,,,,,,,,,,,,2.4814,0.314306641,-0.102491319,1,0,0,0.833855,yes,GRAPES,M,incorrect,15,0,15,0,1,,,,,,,,,,,,,,,,,,,,,,,,,,,,,,,,,,,,
,,,,,,,,,,00001591074,2020-10-17_21h00.20.442,swahili,2020.2.4,MacIntel,60,,,,,,,,,,,,,,,,,,,,,,,,,,,,,,,,,,,,,,,,,,,,,,,,,,,2.130375,0.314306641,-0.102491319,1,0,0,0.54973,yes,CORN,A,incorrect,16,0,16,0,1,,,,,,,,,,,,,,,,,,,,,,,,,,,,,,,,,,,,
,,,,,,,,,,00001591074,2020-10-17_21h00.20.442,swahili,2020.2.4,MacIntel,60,,,,,,,,,,,,,,,,,,,,,,,,,,,,,,,,,,,,,,,,,,,,,,,,,,,1.86389,0.314306641,-0.102491319,1,0,0,0.832365,yes,BRIBE,M,incorrect,17,0,17,0,1,,,,,,,,,,,,,,,,,,,,,,,,,,,,,,,,,,,,
,,,,,,,,,,00001591074,2020-10-17_21h00.20.442,swahili,2020.2.4,MacIntel,60,,,,,,,,,,,,,,,,,,,,,,,,,,,,,,,,,,,,,,,,,,,,,,,,,,,4.230695,0.314306641,-0.099409722,1,0,0,0.76628,yes,MANURE,K,incorrect,18,0,18,0,1,,,,,,,,,,,,,,,,,,,,,,,,,,,,,,,,,,,,
,,,,,,,,,,00001591074,2020-10-17_21h00.20.442,swahili,2020.2.4,MacIntel,60,,,,,,,,,,,,,,,,,,,,,,,,,,,,,,,,,,,,,,,,0,0,0,0,1,,,,,,,,,,,,,,,,,,,,,,,,,,,,,,,,,,,,,,,,,,,,,,,,,,,,,,,,,,
,,,,,,,,,,00001591074,2020-10-17_21h00.20.442,swahili,2020.2.4,MacIntel,60,,,,,,,,,,,,,,,,,,,,,,,,,,,,,,,,,,,,,,,,1,0,1,0,1,,,,,,,,,,,,,,,,,,,,,,,,,,,,,,,,,,,,,,,,,,,,,,,,,,,,,,,,,,
,,,,,,,,,,00001591074,2020-10-17_21h00.20.442,swahili,2020.2.4,MacIntel,60,,,,,,,,,,,,,,,,,,,,,,,,,,,,,,,,,,,,,,,,,,,,,2,0,2,0,1,,,,,,,,,,,,,,,,,,,,,,,,,,,,,,,,,,,,,,,,,,,,,,,,,,,,,
,,,,,,,,,,00001591074,2020-10-17_21h00.20.442,swahili,2020.2.4,MacIntel,60,,,,,,,,,,-0.336165365,-0.122074653,1,0,0,1.166305,unsorted_card,0,0,0,0,1,,,,,,,,,,,,,,,,,,,,,,,,,,,,,,,,,,,,,,,,,,,,,,,,,,,,,,,,,,,,,,,,,,,,,,,,,,,,,,,,,
,,,,,,,,,,00001591074,2020-10-17_21h00.20.442,swahili,2020.2.4,MacIntel,60,,,,,,,,,,0.358268229,-0.106857639,1,0,0,5.744165,test_pile,1,0,1,0,1,MERCHANT - TAJIRI,,,,,,,,,,,,,,,,,,,,,,,,,,,,,,,,,,,,,,,,,,,,,,,,,,,,,,,,,,,,,,,,,,,,,,,,,,,,,,,,
,,,,,,,,,,00001591074,2020-10-17_21h00.20.442,swahili,2020.2.4,MacIntel,60,,,,,,,,,,0.358268229,-0.106857639,1,0,0,0.69728,test_pile,2,0,2,0,1,,,,,,,,,,,,,,,,,,,,,,,,,,,,,,,,,,,,,,,,,,,,,,,,,,,,,,,,,,,,,,,,,,,,,,,,,,,,,,,,,
,,,,,,,,,,00001591074,2020-10-17_21h00.20.442,swahili,2020.2.4,MacIntel,60,,,,,,,,,,-0.209570312,0.011605903,1,0,0,0.982005,unsorted_card,3,0,3,0,1,,,,,,,,,,,,,,,,,,,,,,,,,,,,,,,,,,,,,,,,,,,,,,,,,,,,,,,,,,,,,,,,,,,,,,,,,,,,,,,,,
,,,,,,,,,,00001591074,2020-10-17_21h00.20.442,swahili,2020.2.4,MacIntel,60,,,,,,,,,,0.537163628,0.015555556,1,0,0,1.015365,test_pile,4,0,4,0,1,PARROT - KASUKU,,,,,,,,,,,,,,,,,,,,,,,,,,,,,,,,,,,,,,,,,,,,,,,,,,,,,,,,,,,,,,,,,,,,,,,,,,,,,,,,
,,,,,,,,,,00001591074,2020-10-17_21h00.20.442,swahili,2020.2.4,MacIntel,60,,,,,,,,,,-0.444455295,0.105963542,1,0,0,0.73241,unsorted_card,5,0,5,0,1,,,,,,,,,,,,,,,,,,,,,,,,,,,,,,,,,,,,,,,,,,,,,,,,,,,,,,,,,,,,,,,,,,,,,,,,,,,,,,,,,
,,,,,,,,,,00001591074,2020-10-17_21h00.20.442,swahili,2020.2.4,MacIntel,60,,,,,,,,,,0.499479167,-0.084010417,1,0,0,1.68083,test_pile,6,0,6,0,1,BULL - FAHILI,,,,,,,,,,,,,,,,,,,,,,,,,,,,,,,,,,,,,,,,,,,,,,,,,,,,,,,,,,,,,,,,,,,,,,,,,,,,,,,,
,,,,,,,,,,00001591074,2020-10-17_21h00.20.442,swahili,2020.2.4,MacIntel,60,,,,,,,,,,-0.272987196,-0.141883681,1,0,0,0.649115,unsorted_card,7,0,7,0,1,,,,,,,,,,,,,,,,,,,,,,,,,,,,,,,,,,,,,,,,,,,,,,,,,,,,,,,,,,,,,,,,,,,,,,,,,,,,,,,,,
,,,,,,,,,,00001591074,2020-10-17_21h00.20.442,swahili,2020.2.4,MacIntel,60,,,,,,,,,,0.517784288,-0.071432292,1,0,0,0.998795,test_pile,8,0,8,0,1,PLATE - SAHANI,,,,,,,,,,,,,,,,,,,,,,,,,,,,,,,,,,,,,,,,,,,,,,,,,,,,,,,,,,,,,,,,,,,,,,,,,,,,,,,,
,,,,,,,,,,00001591074,2020-10-17_21h00.20.442,swahili,2020.2.4,MacIntel,60,,,,,,,,,,-0.282666016,0.097022569,1,0,0,0.68017,unsorted_card,9,0,9,0,1,,,,,,,,,,,,,,,,,,,,,,,,,,,,,,,,,,,,,,,,,,,,,,,,,,,,,,,,,,,,,,,,,,,,,,,,,,,,,,,,,
,,,,,,,,,,00001591074,2020-10-17_21h00.20.442,swahili,2020.2.4,MacIntel,60,,,,,,,,,,0.512093099,-0.079904514,1,0,0,1.083045,test_pile,10,0,10,0,1,YEAST - HAMIRA,,,,,,,,,,,,,,,,,,,,,,,,,,,,,,,,,,,,,,,,,,,,,,,,,,,,,,,,,,,,,,,,,,,,,,,,,,,,,,,,
,,,,,,,,,,00001591074,2020-10-17_21h00.20.442,swahili,2020.2.4,MacIntel,60,,,,,,,,,,-0.336306424,-0.040355903,1,0,0,0.5314,unsorted_card,11,0,11,0,1,,,,,,,,,,,,,,,,,,,,,,,,,,,,,,,,,,,,,,,,,,,,,,,,,,,,,,,,,,,,,,,,,,,,,,,,,,,,,,,,,
,,,,,,,,,,00001591074,2020-10-17_21h00.20.442,swahili,2020.2.4,MacIntel,60,,,,,,,,,,0.333691406,-0.034470486,1,0,0,34.014995,test_pile,12,0,12,0,1,BLAME - LAWAMA,,,,,,,,,,,,,,,,,,,,,,,,,,,,,,,,,,,,,,,,,,,,,,,,,,,,,,,,,,,,,,,,,,,,,,,,,,,,,,,,
,,,,,,,,,,00001591074,2020-10-17_21h00.20.442,swahili,2020.2.4,MacIntel,60,,,,,,,,,,-0.337820095,-0.037777778,1,0,0,1.23065,unsorted_card,13,0,13,0,1,,,,,,,,,,,,,,,,,,,,,,,,,,,,,,,,,,,,,,,,,,,,,,,,,,,,,,,,,,,,,,,,,,,,,,,,,,,,,,,,,
,,,,,,,,,,00001591074,2020-10-17_21h00.20.442,swahili,2020.2.4,MacIntel,60,,,,,,,,,,0.491509332,-0.083177083,1,0,0,6.880935,test_pile,14,0,14,0,1,OATH - YAMINI,,,,,,,,,,,,,,,,,,,,,,,,,,,,,,,,,,,,,,,,,,,,,,,,,,,,,,,,,,,,,,,,,,,,,,,,,,,,,,,,
,,,,,,,,,,00001591074,2020-10-17_21h00.20.442,swahili,2020.2.4,MacIntel,60,,,,,,,,,,-0.285150825,-0.0646875,1,0,0,0.713845,unsorted_card,15,0,15,0,1,,,,,,,,,,,,,,,,,,,,,,,,,,,,,,,,,,,,,,,,,,,,,,,,,,,,,,,,,,,,,,,,,,,,,,,,,,,,,,,,,
,,,,,,,,,,00001591074,2020-10-17_21h00.20.442,swahili,2020.2.4,MacIntel,60,,,,,,,,,,0.359738498,-0.062491319,1,0,0,5.23165,test_pile,16,0,16,0,1,CORN - NAFAKA,,,,,,,,,,,,,,,,,,,,,,,,,,,,,,,,,,,,,,,,,,,,,,,,,,,,,,,,,,,,,,,,,,,,,,,,,,,,,,,,
,,,,,,,,,,00001591074,2020-10-17_21h00.20.442,swahili,2020.2.4,MacIntel,60,,,,,,,,,,-0.096365017,-0.125651042,1,0,0,1.964015,unsorted_card,17,0,17,0,1,,,,,,,,,,,,,,,,,,,,,,,,,,,,,,,,,,,,,,,,,,,,,,,,,,,,,,,,,,,,,,,,,,,,,,,,,,,,,,,,,
,,,,,,,,,,00001591074,2020-10-17_21h00.20.442,swahili,2020.2.4,MacIntel,60,,,,,,,,,,0.524869792,-0.056111111,1,0,0,2.61437,test_pile,18,0,18,0,1,POEM - UTENZI,,,,,,,,,,,,,,,,,,,,,,,,,,,,,,,,,,,,,,,,,,,,,,,,,,,,,,,,,,,,,,,,,,,,,,,,,,,,,,,,
,,,,,,,,,,00001591074,2020-10-17_21h00.20.442,swahili,2020.2.4,MacIntel,60,,,,,,,,,,-0.244330512,-0.010026042,1,0,0,2.199385,unsorted_card,19,0,19,0,1,,,,,,,,,,,,,,,,,,,,,,,,,,,,,,,,,,,,,,,,,,,,,,,,,,,,,,,,,,,,,,,,,,,,,,,,,,,,,,,,,
,,,,,,,,,,00001591074,2020-10-17_21h00.20.442,swahili,2020.2.4,MacIntel,60,,,,,,,,,,0.474549696,-0.011579861,1,0,0,5.696435,test_pile,20,0,20,0,1,TAILOR - MSHONI,,,,,,,,,,,,,,,,,,,,,,,,,,,,,,,,,,,,,,,,,,,,,,,,,,,,,,,,,,,,,,,,,,,,,,,,,,,,,,,,
,,,,,,,,,,00001591074,2020-10-17_21h00.20.442,swahili,2020.2.4,MacIntel,60,,,,,,,,,,-0.18031684,-0.062595486,1,0,0,0.997505,unsorted_card,21,0,21,0,1,,,,,,,,,,,,,,,,,,,,,,,,,,,,,,,,,,,,,,,,,,,,,,,,,,,,,,,,,,,,,,,,,,,,,,,,,,,,,,,,,
,,,,,,,,,,00001591074,2020-10-17_21h00.20.442,swahili,2020.2.4,MacIntel,60,,,,,,,,,,0.456054688,-0.047387153,1,0,0,3.315925,test_pile,22,0,22,0,1,CHEESE - JIBINI,,,,,,,,,,,,,,,,,,,,,,,,,,,,,,,,,,,,,,,,,,,,,,,,,,,,,,,,,,,,,,,,,,,,,,,,,,,,,,,,
,,,,,,,,,,00001591074,2020-10-17_21h00.20.442,swahili,2020.2.4,MacIntel,60,,,,,,,,,,-0.379177517,-0.207309028,1,0,0,1.26309,unsorted_card,23,0,23,0,1,,,,,,,,,,,,,,,,,,,,,,,,,,,,,,,,,,,,,,,,,,,,,,,,,,,,,,,,,,,,,,,,,,,,,,,,,,,,,,,,,
,,,,,,,,,,00001591074,2020-10-17_21h00.20.442,swahili,2020.2.4,MacIntel,60,,,,,,,,,,0.377756076,-0.063654514,1,0,0,21.94753,test_pile,24,0,24,0,1,GRAPES - ZABIBU,,,,,,,,,,,,,,,,,,,,,,,,,,,,,,,,,,,,,,,,,,,,,,,,,,,,,,,,,,,,,,,,,,,,,,,,,,,,,,,,
,,,,,,,,,,00001591074,2020-10-17_21h00.20.442,swahili,2020.2.4,MacIntel,60,,,,,,,,,,-0.196050347,-0.043515625,1,0,0,1.3313,unsorted_card,25,0,25,0,1,,,,,,,,,,,,,,,,,,,,,,,,,,,,,,,,,,,,,,,,,,,,,,,,,,,,,,,,,,,,,,,,,,,,,,,,,,,,,,,,,
,,,,,,,,,,00001591074,2020-10-17_21h00.20.442,swahili,2020.2.4,MacIntel,60,,,,,,,,,,0.461691623,-0.004444444,1,0,0,13.29817,test_pile,26,0,26,0,1,GRAVE - KABURI,,,,,,,,,,,,,,,,,,,,,,,,,,,,,,,,,,,,,,,,,,,,,,,,,,,,,,,,,,,,,,,,,,,,,,,,,,,,,,,,
,,,,,,,,,,00001591074,2020-10-17_21h00.20.442,swahili,2020.2.4,MacIntel,60,,,,,,,,,,-0.347439236,0.035989583,1,0,0,0.7635,unsorted_card,27,0,27,0,1,,,,,,,,,,,,,,,,,,,,,,,,,,,,,,,,,,,,,,,,,,,,,,,,,,,,,,,,,,,,,,,,,,,,,,,,,,,,,,,,,
,,,,,,,,,,00001591074,2020-10-17_21h00.20.442,swahili,2020.2.4,MacIntel,60,,,,,,,,,,0.382242839,0.018975694,1,0,0,4.7659,test_pile,28,0,28,0,1,MANURE - SAMADI,,,,,,,,,,,,,,,,,,,,,,,,,,,,,,,,,,,,,,,,,,,,,,,,,,,,,,,,,,,,,,,,,,,,,,,,,,,,,,,,
,,,,,,,,,,00001591074,2020-10-17_21h00.20.442,swahili,2020.2.4,MacIntel,60,,,,,,,,,,-0.303445095,0.071579861,1,0,0,0.664895,unsorted_card,29,0,29,0,1,,,,,,,,,,,,,,,,,,,,,,,,,,,,,,,,,,,,,,,,,,,,,,,,,,,,,,,,,,,,,,,,,,,,,,,,,,,,,,,,,
,,,,,,,,,,00001591074,2020-10-17_21h00.20.442,swahili,2020.2.4,MacIntel,60,,,,,,,,,,0.540863715,0.051059028,1,0,0,1.063905,test_pile,30,0,30,0,1,AGENT - WAKILI,,,,,,,,,,,,,,,,,,,,,,,,,,,,,,,,,,,,,,,,,,,,,,,,,,,,,,,,,,,,,,,,,,,,,,,,,,,,,,,,
,,,,,,,,,,00001591074,2020-10-17_21h00.20.442,swahili,2020.2.4,MacIntel,60,,,,,,,,,,-0.685194227,0.022612847,1,0,0,0.847825,unsorted_card,31,0,31,0,1,,,,,,,,,,,,,,,,,,,,,,,,,,,,,,,,,,,,,,,,,,,,,,,,,,,,,,,,,,,,,,,,,,,,,,,,,,,,,,,,,
,,,,,,,,,,00001591074,2020-10-17_21h00.20.442,swahili,2020.2.4,MacIntel,60,,,,,,,,,,0.39788954,-0.097873264,1,0,0,1.183465,test_pile,32,0,32,0,1,BRIBE - RUSHWA,,,,,,,,,,,,,,,,,,,,,,,,,,,,,,,,,,,,,,,,,,,,,,,,,,,,,,,,,,,,,,,,,,,,,,,,,,,,,,,,
,,,,,,,,,,00001591074,2020-10-17_21h00.20.442,swahili,2020.2.4,MacIntel,60,,,,,,,,,,-0.490049913,0.086579861,1,0,0,0.678855,unsorted_card,33,0,33,0,1,,,,,,,,,,,,,,,,,,,,,,,,,,,,,,,,,,,,,,,,,,,,,,,,,,,,,,,,,,,,,,,,,,,,,,,,,,,,,,,,,
,,,,,,,,,,00001591074,2020-10-17_21h00.20.442,swahili,2020.2.4,MacIntel,60,,,,,,,,,,0.599690755,-0.037048611,1,0,0,1.099585,test_pile,34,0,34,0,1,DIVORCE - TALAKA,,,,,,,,,,,,,,,,,,,,,,,,,,,,,,,,,,,,,,,,,,,,,,,,,,,,,,,,,,,,,,,,,,,,,,,,,,,,,,,,
,,,,,,,,,,00001591074,2020-10-17_21h00.20.442,swahili,2020.2.4,MacIntel,60,,,,,,,,,,-0.174305556,0.037274306,1,0,0,0.698245,unsorted_card,35,0,35,0,1,,,,,,,,,,,,,,,,,,,,,,,,,,,,,,,,,,,,,,,,,,,,,,,,,,,,,,,,,,,,,,,,,,,,,,,,,,,,,,,,,
,,,,,,,,,,00001591074,2020-10-17_21h00.20.442,swahili,2020.2.4,MacIntel,60,,,,,,,,,,0.454318576,-0.034887153,1,0,0,0.91662,test_pile,36,0,36,0,1,BOAT - MASHUA,,,,,,,,,,,,,,,,,,,,,,,,,,,,,,,,,,,,,,,,,,,,,,,,,,,,,,,,,,,,,,,,,,,,,,,,,,,,,,,,
,,,,,,,,,,00001591074,2020-10-17_21h00.20.442,swahili,2020.2.4,MacIntel,60,,,,,,,,,,-0.233121745,-0.069618056,1,0,0,0.880865,unsorted_card,37,0,37,0,1,,,,,,,,,,,,,,,,,,,,,,,,,,,,,,,,,,,,,,,,,,,,,,,,,,,,,,,,,,,,,,,,,,,,,,,,,,,,,,,,,
,,,,,,,,,,00001591074,2020-10-17_21h00.20.442,swahili,2020.2.4,MacIntel,60,,,,,,,,,,0.520952691,-0.025633681,1,0,0,0.831845,test_pile,38,0,38,0,1,TREASURE - DAFINA,,,,,,,,,,,,,,,,,,,,,,,,,,,,,,,,,,,,,,,,,,,,,,,,,,,,,,,,,,,,,,,,,,,,,,,,,,,,,,,,
,,,,,,,,,,00001591074,2020-10-17_21h00.20.442,swahili,2020.2.4,MacIntel,60,,,,,,,,,,,,,,,,,,,,,,,,,,,,,,,,,,0,0,0,0,1,,,,,,,,,,,,,,,,,,,,,,,,,,,,,,,,,,,,,,,,,,,,,,,,,,,,,,,,,,,,,,,,
,,,,,,,,,,00001591074,2020-10-17_21h00.20.442,swahili,2020.2.4,MacIntel,60,,,,,,,,,,,,,,,,,,,,,,,,,,,,,,,,,,,,,,,return,,,,,,,,,,,1.22861,10.696315,0.520952691,-0.025633681,1,0,0,0.69959,yes,CORN,GAMURA,incorrect,0,0,0,0,1,,,,,,,,,,,,,,,,,,,,,,,,,,,,,,,,,,,,
,,,,,,,,,,00001591074,2020-10-17_21h00.20.442,swahili,2020.2.4,MacIntel,60,,,,,,,,,,,,,,,,,,,,,,,,,,,,,,,,,,,,,,,,,,,,,,,,,,,4.56342,0.520952691,-0.025633681,1,0,0,0.50011,yes,OATH,KALAWA,incorrect,1,0,1,0,1,,,,,,,,,,,,,,,,,,,,,,,,,,,,,,,,,,,,
,,,,,,,,,,00001591074,2020-10-17_21h00.20.442,swahili,2020.2.4,MacIntel,60,,,,,,,,,,,,,,,,,,,,,,,,,,,,,,,,,,,,,,,,,,,,,,,,,,,3.08048,0.520952691,-0.025633681,1,0,0,0.649915,yes,BOAT,MASHUA,incorrect,2,0,2,0,1,,,,,,,,,,,,,,,,,,,,,,,,,,,,,,,,,,,,
,,,,,,,,,,00001591074,2020-10-17_21h00.20.442,swahili,2020.2.4,MacIntel,60,,,,,,,,,,,,,,,,,,,,,,,,,,,,,,,,,,,,,,,,,,,,,,,,,,,3.113725,0.520952691,-0.025633681,1,0,0,0.44957,yes,DIVORCE,YAMAKA,incorrect,3,0,3,0,1,,,,,,,,,,,,,,,,,,,,,,,,,,,,,,,,,,,,
,,,,,,,,,,00001591074,2020-10-17_21h00.20.442,swahili,2020.2.4,MacIntel,60,,,,,,,,,,,,,,,,,,,,,,,,,,,,,,,,,,,,,,,,,,,,,,,,,,,6.81423,0.520952691,-0.025633681,1,0,0,0.666495,yes,PLATE,SAHINI,incorrect,4,0,4,0,1,,,,,,,,,,,,,,,,,,,,,,,,,,,,,,,,,,,,
,,,,,,,,,,00001591074,2020-10-17_21h00.20.442,swahili,2020.2.4,MacIntel,60,,,,,,,,,,,,,,,,,,,,,,,,,,,,,,,,,,,,,,,,,,,,,,,,,,,5.61359,0.187065972,-0.2396875,1,0,0,0.48358,yes,BULL,M,incorrect,5,0,5,0,1,,,,,,,,,,,,,,,,,,,,,,,,,,,,,,,,,,,,
,,,,,,,,,,00001591074,2020-10-17_21h00.20.442,swahili,2020.2.4,MacIntel,60,,,,,,,,,,,,,,,,,,,,,,,,,,,,,,,,,,,,,,,,,,,,,,,,,,,7.01329,0.316682943,-0.134913194,1,0,0,0.44996,yes,BRIBE,WASHUMA,incorrect,6,0,6,0,1,,,,,,,,,,,,,,,,,,,,,,,,,,,,,,,,,,,,
,,,,,,,,,,00001591074,2020-10-17_21h00.20.442,swahili,2020.2.4,MacIntel,60,,,,,,,,,,,,,,,,,,,,,,,,,,,,,,,,,,,,,,,,,,,,,,,,,,,5.58045,0.38640408,-0.112491319,1,0,0,0.66666,yes,MERCHANT,MSHURI,incorrect,7,0,7,0,1,,,,,,,,,,,,,,,,,,,,,,,,,,,,,,,,,,,,
,,,,,,,,,,00001591074,2020-10-17_21h00.20.442,swahili,2020.2.4,MacIntel,60,,,,,,,,,,,,,,,,,,,,,,,,,,,,,,,,,,,,,,,,,,,,,,,,,,,4.69715,0.38640408,-0.112491319,1,0,0,0.598825,yes,BLAME,Y,incorrect,8,0,8,0,1,,,,,,,,,,,,,,,,,,,,,,,,,,,,,,,,,,,,
,,,,,,,,,,00001591074,2020-10-17_21h00.20.442,swahili,2020.2.4,MacIntel,60,,,,,,,,,,,,,,,,,,,,,,,,,,,,,,,,,,,,,,,,,,,,,,,,,,,2.863225,0.38640408,-0.112491319,1,0,0,0.698745,yes,TREASURE,K,incorrect,9,0,9,0,1,,,,,,,,,,,,,,,,,,,,,,,,,,,,,,,,,,,,
,,,,,,,,,,00001591074,2020-10-17_21h00.20.442,swahili,2020.2.4,MacIntel,60,,,,,,,,,,,,,,,,,,,,,,,,,,,,,,,,,,,,,,,,,,,,,,,,,,,2.19671,0.38640408,-0.112491319,1,0,0,0.766385,yes,GRAVE,B,incorrect,10,0,10,0,1,,,,,,,,,,,,,,,,,,,,,,,,,,,,,,,,,,,,
,,,,,,,,,,00001591074,2020-10-17_21h00.20.442,swahili,2020.2.4,MacIntel,60,,,,,,,,,,,,,,,,,,,,,,,,,,,,,,,,,,,,,,,,,,,,,,,,,,,3.630605,0.38640408,-0.112491319,1,0,0,0.81733,yes,POEM,UTENZI,incorrect,11,0,11,0,1,,,,,,,,,,,,,,,,,,,,,,,,,,,,,,,,,,,,
,,,,,,,,,,00001591074,2020-10-17_21h00.20.442,swahili,2020.2.4,MacIntel,60,,,,,,,,,,,,,,,,,,,,,,,,,,,,,,,,,,,,,,,,,,,,,,,,,,,4.929675,0.38640408,-0.112491319,1,0,0,0.750895,yes,GRAPES,G,incorrect,12,0,12,0,1,,,,,,,,,,,,,,,,,,,,,,,,,,,,,,,,,,,,
,,,,,,,,,,00001591074,2020-10-17_21h00.20.442,swahili,2020.2.4,MacIntel,60,,,,,,,,,,,,,,,,,,,,,,,,,,,,,,,,,,,,,,,,,,,,,,,,,,,3.863445,0.38640408,-0.112491319,1,0,0,0.46791,yes,PARROT,YAKINA,incorrect,13,0,13,0,1,,,,,,,,,,,,,,,,,,,,,,,,,,,,,,,,,,,,
,,,,,,,,,,00001591074,2020-10-17_21h00.20.442,swahili,2020.2.4,MacIntel,60,,,,,,,,,,,,,,,,,,,,,,,,,,,,,,,,,,,,,,,,,,,,,,,,,,,2.496315,0.38640408,-0.112491319,1,0,0,0.58415,yes,CHEESE,JIBINI,incorrect,14,0,14,0,1,,,,,,,,,,,,,,,,,,,,,,,,,,,,,,,,,,,,
,,,,,,,,,,00001591074,2020-10-17_21h00.20.442,swahili,2020.2.4,MacIntel,60,,,,,,,,,,,,,,,,,,,,,,,,,,,,,,,,,,,,,,,,,,,,,,,,,,,2.963745,0.38640408,-0.112491319,1,0,0,0.616055,yes,TAILOR,MSHURU,incorrect,15,0,15,0,1,,,,,,,,,,,,,,,,,,,,,,,,,,,,,,,,,,,,
,,,,,,,,,,00001591074,2020-10-17_21h00.20.442,swahili,2020.2.4,MacIntel,60,,,,,,,,,,,,,,,,,,,,,,,,,,,,,,,,,,,,,,,,,,,,,,,,,,,12.080695,0.38640408,-0.112491319,1,0,0,0.48204,yes,AGENT,Y,incorrect,16,0,16,0,1,,,,,,,,,,,,,,,,,,,,,,,,,,,,,,,,,,,,
,,,,,,,,,,00001591074,2020-10-17_21h00.20.442,swahili,2020.2.4,MacIntel,60,,,,,,,,,,,,,,,,,,,,,,,,,,,,,,,,,,,,,,,,,,,,,,,,,,,5.630805,0.38640408,-0.112491319,1,0,0,0.61554,yes,MANURE,M,incorrect,17,0,17,0,1,,,,,,,,,,,,,,,,,,,,,,,,,,,,,,,,,,,,
,,,,,,,,,,00001591074,2020-10-17_21h00.20.442,swahili,2020.2.4,MacIntel,60,,,,,,,,,,,,,,,,,,,,,,,,,,,,,,,,,,,,,,,,,,,,,,,,,,,2.964025,0.38640408,-0.112491319,1,0,0,0.566835,yes,YEAST,MAKI,incorrect,18,0,18,0,1,,,,,,,,,,,,,,,,,,,,,,,,,,,,,,,,,,,,
,,,,,,,,,,00001591074,2020-10-17_21h00.20.442,swahili,2020.2.4,MacIntel,60,,,,,,,,,,,,,,,,,,,,,,,,,,,,,,,,,,,,,,,,0,0,0,0,1,,,,,,,,,,,,,,,,,,,,,,,,,,,,,,,,,,,,,,,,,,,,,,,,,,,,,,,,,,
,,,,,,,,,,00001591074,2020-10-17_21h00.20.442,swahili,2020.2.4,MacIntel,60,,,,,,,,,,,,,,,,,,,,,,,,,,,,,,,,,,,,,,,,1,0,1,0,1,,,,,,,,,,,,,,,,,,,,,,,,,,,,,,,,,,,,,,,,,,,,,,,,,,,,,,,,,,
,,,,,,,,,,00001591074,2020-10-17_21h00.20.442,swahili,2020.2.4,MacIntel,60,,,,,,,,,,,,,,,,,,,,,,,,,,,,,,,,,,,,,,,,,,,,,3,0,3,0,1,,,,,,,,,,,,,,,,,,,,,,,,,,,,,,,,,,,,,,,,,,,,,,,,,,,,,
,,,,,,,,,,00001591074,2020-10-17_21h00.20.442,swahili,2020.2.4,MacIntel,60,,,,,,,,,,-0.441064453,-0.217413194,1,0,0,1.964995,unsorted_card,0,0,0,0,1,,,,,,,,,,,,,,,,,,,,,,,,,,,,,,,,,,,,,,,,,,,,,,,,,,,,,,,,,,,,,,,,,,,,,,,,,,,,,,,,,
,,,,,,,,,,00001591074,2020-10-17_21h00.20.442,swahili,2020.2.4,MacIntel,60,,,,,,,,,,0.339002821,0.017725694,1,0,0,3.047615,test_pile,1,0,1,0,1,MERCHANT - TAJIRI,,,,,,,,,,,,,,,,,,,,,,,,,,,,,,,,,,,,,,,,,,,,,,,,,,,,,,,,,,,,,,,,,,,,,,,,,,,,,,,,
,,,,,,,,,,00001591074,2020-10-17_21h00.20.442,swahili,2020.2.4,MacIntel,60,,,,,,,,,,-0.308924696,-0.036067708,1,0,0,0.679975,unsorted_card,2,0,2,0,1,,,,,,,,,,,,,,,,,,,,,,,,,,,,,,,,,,,,,,,,,,,,,,,,,,,,,,,,,,,,,,,,,,,,,,,,,,,,,,,,,
,,,,,,,,,,00001591074,2020-10-17_21h00.20.442,swahili,2020.2.4,MacIntel,60,,,,,,,,,,0.446527778,0.009965278,1,0,0,1.031645,test_pile,3,0,3,0,1,PARROT - KASUKU,,,,,,,,,,,,,,,,,,,,,,,,,,,,,,,,,,,,,,,,,,,,,,,,,,,,,,,,,,,,,,,,,,,,,,,,,,,,,,,,
,,,,,,,,,,00001591074,2020-10-17_21h00.20.442,swahili,2020.2.4,MacIntel,60,,,,,,,,,,-0.218576389,0.020529514,1,0,0,0.64879,unsorted_card,4,0,4,0,1,,,,,,,,,,,,,,,,,,,,,,,,,,,,,,,,,,,,,,,,,,,,,,,,,,,,,,,,,,,,,,,,,,,,,,,,,,,,,,,,,
,,,,,,,,,,00001591074,2020-10-17_21h00.20.442,swahili,2020.2.4,MacIntel,60,,,,,,,,,,0.472281901,0.030711806,1,0,0,5.11608,test_pile,5,0,5,0,1,BULL - FAHILI,,,,,,,,,,,,,,,,,,,,,,,,,,,,,,,,,,,,,,,,,,,,,,,,,,,,,,,,,,,,,,,,,,,,,,,,,,,,,,,,
,,,,,,,,,,00001591074,2020-10-17_21h00.20.442,swahili,2020.2.4,MacIntel,60,,,,,,,,,,-0.161496311,-0.001822917,1,0,0,0.613175,unsorted_card,6,0,6,0,1,,,,,,,,,,,,,,,,,,,,,,,,,,,,,,,,,,,,,,,,,,,,,,,,,,,,,,,,,,,,,,,,,,,,,,,,,,,,,,,,,
,,,,,,,,,,00001591074,2020-10-17_21h00.20.442,swahili,2020.2.4,MacIntel,60,,,,,,,,,,0.436056858,-0.018888889,1,0,0,4.347885,test_pile,7,0,7,0,1,PLATE - SAHANI,,,,,,,,,,,,,,,,,,,,,,,,,,,,,,,,,,,,,,,,,,,,,,,,,,,,,,,,,,,,,,,,,,,,,,,,,,,,,,,,
,,,,,,,,,,00001591074,2020-10-17_21h00.20.442,swahili,2020.2.4,MacIntel,60,,,,,,,,,,-0.230560981,-0.026692708,1,0,0,0.547525,unsorted_card,8,0,8,0,1,,,,,,,,,,,,,,,,,,,,,,,,,,,,,,,,,,,,,,,,,,,,,,,,,,,,,,,,,,,,,,,,,,,,,,,,,,,,,,,,,
,,,,,,,,,,00001591074,2020-10-17_21h00.20.442,swahili,2020.2.4,MacIntel,60,,,,,,,,,,0.561756727,-0.006640625,1,0,0,18.183175,test_pile,9,0,9,0,1,YEAST - HAMIRA,,,,,,,,,,,,,,,,,,,,,,,,,,,,,,,,,,,,,,,,,,,,,,,,,,,,,,,,,,,,,,,,,,,,,,,,,,,,,,,,
,,,,,,,,,,00001591074,2020-10-17_21h00.20.442,swahili,2020.2.4,MacIntel,60,,,,,,,,,,-0.311507161,-0.064392361,1,0,0,0.713125,unsorted_card,10,0,10,0,1,,,,,,,,,,,,,,,,,,,,,,,,,,,,,,,,,,,,,,,,,,,,,,,,,,,,,,,,,,,,,,,,,,,,,,,,,,,,,,,,,
,,,,,,,,,,00001591074,2020-10-17_21h00.20.442,swahili,2020.2.4,MacIntel,60,,,,,,,,,,0.434960937,-0.039149306,1,0,0,1.38185,test_pile,11,0,11,0,1,BLAME - LAWAMA,,,,,,,,,,,,,,,,,,,,,,,,,,,,,,,,,,,,,,,,,,,,,,,,,,,,,,,,,,,,,,,,,,,,,,,,,,,,,,,,
,,,,,,,,,,00001591074,2020-10-17_21h00.20.442,swahili,2020.2.4,MacIntel,60,,,,,,,,,,-0.269704861,0.002977431,1,0,0,0.64913,unsorted_card,12,0,12,0,1,,,,,,,,,,,,,,,,,,,,,,,,,,,,,,,,,,,,,,,,,,,,,,,,,,,,,,,,,,,,,,,,,,,,,,,,,,,,,,,,,
,,,,,,,,,,00001591074,2020-10-17_21h00.20.442,swahili,2020.2.4,MacIntel,60,,,,,,,,,,0.514290365,-0.045190972,1,0,0,0.91543,test_pile,13,0,13,0,1,OATH - YAMINI,,,,,,,,,,,,,,,,,,,,,,,,,,,,,,,,,,,,,,,,,,,,,,,,,,,,,,,,,,,,,,,,,,,,,,,,,,,,,,,,
,,,,,,,,,,00001591074,2020-10-17_21h00.20.442,swahili,2020.2.4,MacIntel,60,,,,,,,,,,-0.338454861,0.002942708,1,0,0,0.58257,unsorted_card,14,0,14,0,1,,,,,,,,,,,,,,,,,,,,,,,,,,,,,,,,,,,,,,,,,,,,,,,,,,,,,,,,,,,,,,,,,,,,,,,,,,,,,,,,,
,,,,,,,,,,00001591074,2020-10-17_21h00.20.442,swahili,2020.2.4,MacIntel,60,,,,,,,,,,0.565733507,0.066041667,1,0,0,0.980935,test_pile,15,0,15,0,1,CORN - NAFAKA,,,,,,,,,,,,,,,,,,,,,,,,,,,,,,,,,,,,,,,,,,,,,,,,,,,,,,,,,,,,,,,,,,,,,,,,,,,,,,,,
,,,,,,,,,,00001591074,2020-10-17_21h00.20.442,swahili,2020.2.4,MacIntel,60,,,,,,,,,,-0.342041016,0.015677083,1,0,0,0.580755,unsorted_card,16,0,16,0,1,,,,,,,,,,,,,,,,,,,,,,,,,,,,,,,,,,,,,,,,,,,,,,,,,,,,,,,,,,,,,,,,,,,,,,,,,,,,,,,,,
,,,,,,,,,,00001591074,2020-10-17_21h00.20.442,swahili,2020.2.4,MacIntel,60,,,,,,,,,,0.390771484,-0.481918403,1,0,0,1.198855,done_pile,17,0,17,0,1,POEM - UTENZI,,,,,,,,,,,,,,,,,,,,,,,,,,,,,,,,,,,,,,,,,,,,,,,,,,,,,,,,,,,,,,,,,,,,,,,,,,,,,,,,
,,,,,,,,,,00001591074,2020-10-17_21h00.20.442,swahili,2020.2.4,MacIntel,60,,,,,,,,,,-0.26234809,-0.095894097,1,0,0,0.54888,unsorted_card,18,0,18,0,1,,,,,,,,,,,,,,,,,,,,,,,,,,,,,,,,,,,,,,,,,,,,,,,,,,,,,,,,,,,,,,,,,,,,,,,,,,,,,,,,,
,,,,,,,,,,00001591074,2020-10-17_21h00.20.442,swahili,2020.2.4,MacIntel,60,,,,,,,,,,0.492355686,-0.056423611,1,0,0,1.54824,test_pile,19,0,19,0,1,TAILOR - MSHONI,,,,,,,,,,,,,,,,,,,,,,,,,,,,,,,,,,,,,,,,,,,,,,,,,,,,,,,,,,,,,,,,,,,,,,,,,,,,,,,,
,,,,,,,,,,00001591074,2020-10-17_21h00.20.442,swahili,2020.2.4,MacIntel,60,,,,,,,,,,-0.30788303,-0.088585069,1,0,0,0.66513,unsorted_card,20,0,20,0,1,,,,,,,,,,,,,,,,,,,,,,,,,,,,,,,,,,,,,,,,,,,,,,,,,,,,,,,,,,,,,,,,,,,,,,,,,,,,,,,,,
,,,,,,,,,,00001591074,2020-10-17_21h00.20.442,swahili,2020.2.4,MacIntel,60,,,,,,,,,,0.395632595,-0.56078125,1,0,0,1.11458,done_pile,21,0,21,0,1,CHEESE - JIBINI,,,,,,,,,,,,,,,,,,,,,,,,,,,,,,,,,,,,,,,,,,,,,,,,,,,,,,,,,,,,,,,,,,,,,,,,,,,,,,,,
,,,,,,,,,,00001591074,2020-10-17_21h00.20.442,swahili,2020.2.4,MacIntel,60,,,,,,,,,,-0.288574219,-0.117378472,1,0,0,0.74901,unsorted_card,22,0,22,0,1,,,,,,,,,,,,,,,,,,,,,,,,,,,,,,,,,,,,,,,,,,,,,,,,,,,,,,,,,,,,,,,,,,,,,,,,,,,,,,,,,
,,,,,,,,,,00001591074,2020-10-17_21h00.20.442,swahili,2020.2.4,MacIntel,60,,,,,,,,,,0.603304036,-0.050859375,1,0,0,16.347675,test_pile,23,0,23,0,1,GRAPES - ZABIBU,,,,,,,,,,,,,,,,,,,,,,,,,,,,,,,,,,,,,,,,,,,,,,,,,,,,,,,,,,,,,,,,,,,,,,,,,,,,,,,,
,,,,,,,,,,00001591074,2020-10-17_21h00.20.442,swahili,2020.2.4,MacIntel,60,,,,,,,,,,-0.322526042,-0.010920139,1,0,0,1.046855,unsorted_card,24,0,24,0,1,,,,,,,,,,,,,,,,,,,,,,,,,,,,,,,,,,,,,,,,,,,,,,,,,,,,,,,,,,,,,,,,,,,,,,,,,,,,,,,,,
,,,,,,,,,,00001591074,2020-10-17_21h00.20.442,swahili,2020.2.4,MacIntel,60,,,,,,,,,,0.435883247,-0.07734375,1,0,0,7.91519,test_pile,25,0,25,0,1,GRAVE - KABURI,,,,,,,,,,,,,,,,,,,,,,,,,,,,,,,,,,,,,,,,,,,,,,,,,,,,,,,,,,,,,,,,,,,,,,,,,,,,,,,,
,,,,,,,,,,00001591074,2020-10-17_21h00.20.442,swahili,2020.2.4,MacIntel,60,,,,,,,,,,-0.186387804,-0.054409722,1,0,0,0.71546,unsorted_card,26,0,26,0,1,,,,,,,,,,,,,,,,,,,,,,,,,,,,,,,,,,,,,,,,,,,,,,,,,,,,,,,,,,,,,,,,,,,,,,,,,,,,,,,,,
,,,,,,,,,,00001591074,2020-10-17_21h00.20.442,swahili,2020.2.4,MacIntel,60,,,,,,,,,,0.446516927,-0.048081597,1,0,0,1.34863,test_pile,27,0,27,0,1,MANURE - SAMADI,,,,,,,,,,,,,,,,,,,,,,,,,,,,,,,,,,,,,,,,,,,,,,,,,,,,,,,,,,,,,,,,,,,,,,,,,,,,,,,,
,,,,,,,,,,00001591074,2020-10-17_21h00.20.442,swahili,2020.2.4,MacIntel,60,,,,,,,,,,-0.395583767,-0.012595486,1,0,0,0.614515,unsorted_card,28,0,28,0,1,,,,,,,,,,,,,,,,,,,,,,,,,,,,,,,,,,,,,,,,,,,,,,,,,,,,,,,,,,,,,,,,,,,,,,,,,,,,,,,,,
,,,,,,,,,,00001591074,2020-10-17_21h00.20.442,swahili,2020.2.4,MacIntel,60,,,,,,,,,,0.472319878,-0.098802083,1,0,0,1.33159,test_pile,29,0,29,0,1,AGENT - WAKILI,,,,,,,,,,,,,,,,,,,,,,,,,,,,,,,,,,,,,,,,,,,,,,,,,,,,,,,,,,,,,,,,,,,,,,,,,,,,,,,,
,,,,,,,,,,00001591074,2020-10-17_21h00.20.442,swahili,2020.2.4,MacIntel,60,,,,,,,,,,-0.23359375,-0.106050347,1,0,0,0.58001,unsorted_card,30,0,30,0,1,,,,,,,,,,,,,,,,,,,,,,,,,,,,,,,,,,,,,,,,,,,,,,,,,,,,,,,,,,,,,,,,,,,,,,,,,,,,,,,,,
,,,,,,,,,,00001591074,2020-10-17_21h00.20.442,swahili,2020.2.4,MacIntel,60,,,,,,,,,,0.540196398,-0.024427083,1,0,0,0.798745,test_pile,31,0,31,0,1,BRIBE - RUSHWA,,,,,,,,,,,,,,,,,,,,,,,,,,,,,,,,,,,,,,,,,,,,,,,,,,,,,,,,,,,,,,,,,,,,,,,,,,,,,,,,
,,,,,,,,,,00001591074,2020-10-17_21h00.20.442,swahili,2020.2.4,MacIntel,60,,,,,,,,,,-0.453293186,-0.015329861,1,0,0,0.563625,unsorted_card,32,0,32,0,1,,,,,,,,,,,,,,,,,,,,,,,,,,,,,,,,,,,,,,,,,,,,,,,,,,,,,,,,,,,,,,,,,,,,,,,,,,,,,,,,,
,,,,,,,,,,00001591074,2020-10-17_21h00.20.442,swahili,2020.2.4,MacIntel,60,,,,,,,,,,0.341829427,-0.004305556,1,0,0,4.615555,test_pile,33,0,33,0,1,DIVORCE - TALAKA,,,,,,,,,,,,,,,,,,,,,,,,,,,,,,,,,,,,,,,,,,,,,,,,,,,,,,,,,,,,,,,,,,,,,,,,,,,,,,,,
,,,,,,,,,,00001591074,2020-10-17_21h00.20.442,swahili,2020.2.4,MacIntel,60,,,,,,,,,,-0.261149089,0.017074653,1,0,0,0.580515,unsorted_card,34,0,34,0,1,,,,,,,,,,,,,,,,,,,,,,,,,,,,,,,,,,,,,,,,,,,,,,,,,,,,,,,,,,,,,,,,,,,,,,,,,,,,,,,,,
,,,,,,,,,,00001591074,2020-10-17_21h00.20.442,swahili,2020.2.4,MacIntel,60,,,,,,,,,,0.415684679,-0.493333333,1,0,0,19.949155,done_pile,35,0,35,0,1,BOAT - MASHUA,,,,,,,,,,,,,,,,,,,,,,,,,,,,,,,,,,,,,,,,,,,,,,,,,,,,,,,,,,,,,,,,,,,,,,,,,,,,,,,,
,,,,,,,,,,00001591074,2020-10-17_21h00.20.442,swahili,2020.2.4,MacIntel,60,,,,,,,,,,-0.237668186,0.104904514,1,0,0,0.780355,unsorted_card,36,0,36,0,1,,,,,,,,,,,,,,,,,,,,,,,,,,,,,,,,,,,,,,,,,,,,,,,,,,,,,,,,,,,,,,,,,,,,,,,,,,,,,,,,,
,,,,,,,,,,00001591074,2020-10-17_21h00.20.442,swahili,2020.2.4,MacIntel,60,,,,,,,,,,0.435731337,-0.010703125,1,0,0,0.89753,test_pile,37,0,37,0,1,TREASURE - DAFINA,,,,,,,,,,,,,,,,,,,,,,,,,,,,,,,,,,,,,,,,,,,,,,,,,,,,,,,,,,,,,,,,,,,,,,,,,,,,,,,,
,,,,,,,,,,00001591074,2020-10-17_21h00.20.442,swahili,2020.2.4,MacIntel,60,,,,,,,,,,,,,,,,,,,,,,,,,,,,,,,,,,0,0,0,0,1,,,,,,,,,,,,,,,,,,,,,,,,,,,,,,,,,,,,,,,,,,,,,,,,,,,,,,,,,,,,,,,,
,,,,,,,,,,00001591074,2020-10-17_21h00.20.442,swahili,2020.2.4,MacIntel,60,,,,,,,,,,,,,,,,,,,,,,,,,,,,,,,,,,,,,,,return,,,,,,,,,,,1.27763,4.69563,0.425417752,0.033307292,1,0,0,0.96586,yes,PLATE,SAHANI,incorrect,0,0,0,0,1,,,,,,,,,,,,,,,,,,,,,,,,,,,,,,,,,,,,
,,,,,,,,,,00001591074,2020-10-17_21h00.20.442,swahili,2020.2.4,MacIntel,60,,,,,,,,,,,,,,,,,,,,,,,,,,,,,,,,,,,,,,,,,,,,,,,,,,,14.94647,0.384027778,0.029696181,1,0,0,1.666305,yes,TREASURE,DAHINI,incorrect,1,0,1,0,1,,,,,,,,,,,,,,,,,,,,,,,,,,,,,,,,,,,,
,,,,,,,,,,00001591074,2020-10-17_21h00.20.442,swahili,2020.2.4,MacIntel,60,,,,,,,,,,,,,,,,,,,,,,,,,,,,,,,,,,,,,,,,,,,,,,,,,,,4.57951,0.384027778,0.029696181,1,0,0,0.73334,yes,TAILOR,MBUSHI,incorrect,2,0,2,0,1,,,,,,,,,,,,,,,,,,,,,,,,,,,,,,,,,,,,
,,,,,,,,,,00001591074,2020-10-17_21h00.20.442,swahili,2020.2.4,MacIntel,60,,,,,,,,,,,,,,,,,,,,,,,,,,,,,,,,,,,,,,,,,,,,,,,,,,,5.08219,0.384027778,0.029696181,1,0,0,0.74835,yes,GRAVE,KABUKA,incorrect,3,0,3,0,1,,,,,,,,,,,,,,,,,,,,,,,,,,,,,,,,,,,,
,,,,,,,,,,00001591074,2020-10-17_21h00.20.442,swahili,2020.2.4,MacIntel,60,,,,,,,,,,,,,,,,,,,,,,,,,,,,,,,,,,,,,,,,,,,,,,,,,,,3.030775,0.384027778,0.029696181,1,0,0,0.48227,yes,YEAST,MAHINA,incorrect,4,0,4,0,1,,,,,,,,,,,,,,,,,,,,,,,,,,,,,,,,,,,,
,,,,,,,,,,00001591074,2020-10-17_21h00.20.442,swahili,2020.2.4,MacIntel,60,,,,,,,,,,,,,,,,,,,,,,,,,,,,,,,,,,,,,,,,,,,,,,,,,,,3.497075,0.51663954,-0.004375,1,0,0,0.699225,yes,GRAPES,K,incorrect,5,0,5,0,1,,,,,,,,,,,,,,,,,,,,,,,,,,,,,,,,,,,,
,,,,,,,,,,00001591074,2020-10-17_21h00.20.442,swahili,2020.2.4,MacIntel,60,,,,,,,,,,,,,,,,,,,,,,,,,,,,,,,,,,,,,,,,,,,,,,,,,,,2.61311,0.405463325,0.026762153,1,0,0,0.71679,yes,BRIBE,W,incorrect,6,0,6,0,1,,,,,,,,,,,,,,,,,,,,,,,,,,,,,,,,,,,,
,,,,,,,,,,00001591074,2020-10-17_21h00.20.442,swahili,2020.2.4,MacIntel,60,,,,,,,,,,,,,,,,,,,,,,,,,,,,,,,,,,,,,,,,,,,,,,,,,,,4.230475,0.409190538,0.012795139,1,0,0,0.616215,yes,MERCHANT,K,incorrect,7,0,7,0,1,,,,,,,,,,,,,,,,,,,,,,,,,,,,,,,,,,,,
,,,,,,,,,,00001591074,2020-10-17_21h00.20.442,swahili,2020.2.4,MacIntel,60,,,,,,,,,,,,,,,,,,,,,,,,,,,,,,,,,,,,,,,,,,,,,,,,,,,2.04688,0.256136068,0.018498264,1,0,0,0.816035,yes,MANURE,M,incorrect,8,0,8,0,1,,,,,,,,,,,,,,,,,,,,,,,,,,,,,,,,,,,,
,,,,,,,,,,00001591074,2020-10-17_21h00.20.442,swahili,2020.2.4,MacIntel,60,,,,,,,,,,,,,,,,,,,,,,,,,,,,,,,,,,,,,,,,,,,,,,,,,,,3.246995,0.456103516,-0.077005208,1,0,0,0.6505,yes,CORN,YABUKA,incorrect,9,0,9,0,1,,,,,,,,,,,,,,,,,,,,,,,,,,,,,,,,,,,,
,,,,,,,,,,00001591074,2020-10-17_21h00.20.442,swahili,2020.2.4,MacIntel,60,,,,,,,,,,,,,,,,,,,,,,,,,,,,,,,,,,,,,,,,,,,,,,,,,,,3.346885,0.480978733,0.031866319,1,0,0,0.69973,yes,PARROT,YA,incorrect,10,0,10,0,1,,,,,,,,,,,,,,,,,,,,,,,,,,,,,,,,,,,,
,,,,,,,,,,00001591074,2020-10-17_21h00.20.442,swahili,2020.2.4,MacIntel,60,,,,,,,,,,,,,,,,,,,,,,,,,,,,,,,,,,,,,,,,,,,,,,,,,,,1.580265,0.341644965,-0.029861111,1,0,0,6.60032,yes,OATH,M,incorrect,11,0,11,0,1,,,,,,,,,,,,,,,,,,,,,,,,,,,,,,,,,,,,
,,,,,,,,,,00001591074,2020-10-17_21h00.20.442,swahili,2020.2.4,MacIntel,60,,,,,,,,,,,,,,,,,,,,,,,,,,,,,,,,,,,,,,,,,,,,,,,,,,,1.997625,0.390923394,-0.057274306,1,0,0,0.616095,yes,BLAME,W,incorrect,12,0,12,0,1,,,,,,,,,,,,,,,,,,,,,,,,,,,,,,,,,,,,
,,,,,,,,,,00001591074,2020-10-17_21h00.20.442,swahili,2020.2.4,MacIntel,60,,,,,,,,,,,,,,,,,,,,,,,,,,,,,,,,,,,,,,,,,,,,,,,,,,,3.43006,0.572395833,0.253246528,1,0,0,0.649405,yes,BULL,W,incorrect,13,0,13,0,1,,,,,,,,,,,,,,,,,,,,,,,,,,,,,,,,,,,,
,,,,,,,,,,00001591074,2020-10-17_21h00.20.442,swahili,2020.2.4,MacIntel,60,,,,,,,,,,,,,,,,,,,,,,,,,,,,,,,,,,,,,,,,,,,,,,,,,,,9.91398,0.470203993,0.003697917,1,0,0,0.78339,yes,DIVORCE,WALAKA,incorrect,14,0,14,0,1,,,,,,,,,,,,,,,,,,,,,,,,,,,,,,,,,,,,
,,,,,,,,,,00001591074,2020-10-17_21h00.20.442,swahili,2020.2.4,MacIntel,60,,,,,,,,,,,,,,,,,,,,,,,,,,,,,,,,,,,,,,,,,,,,,,,,,,,3.462215,0.399924045,0.003810764,1,0,0,0.60065,yes,AGENT,WAKIRI,incorrect,15,0,15,0,1,,,,,,,,,,,,,,,,,,,,,,,,,,,,,,,,,,,,
,,,,,,,,,,00001591074,2020-10-17_21h00.20.442,swahili,2020.2.4,MacIntel,60,,,,,,,,,,,,,,,,,,,,,,,,,,,,,,,,,,,,,,,,0,0,0,0,1,,,,,,,,,,,,,,,,,,,,,,,,,,,,,,,,,,,,,,,,,,,,,,,,,,,,,,,,,,
,,,,,,,,,,00001591074,2020-10-17_21h00.20.442,swahili,2020.2.4,MacIntel,60,,,,,,,,,,,,,,,,,,,,,,,,,,,,,,,,,,,,,,,,1,0,1,0,1,,,,,,,,,,,,,,,,,,,,,,,,,,,,,,,,,,,,,,,,,,,,,,,,,,,,,,,,,,
,,,,,,,,,,00001591074,2020-10-17_21h00.20.442,swahili,2020.2.4,MacIntel,60,,,,,,,,,,,,,,,,,,,,,,,,,,,,,,,,,,,,,,,,,,,,,4,0,4,0,1,,,,,,,,,,,,,,,,,,,,,,,,,,,,,,,,,,,,,,,,,,,,,,,,,,,,,
,,,,,,,,,,00001591074,2020-10-17_21h00.20.442,swahili,2020.2.4,MacIntel,60,,,,,,,,,,-0.478667535,-0.115998264,1,0,0,9.09741,unsorted_card,0,0,0,0,1,,,,,,,,,,,,,,,,,,,,,,,,,,,,,,,,,,,,,,,,,,,,,,,,,,,,,,,,,,,,,,,,,,,,,,,,,,,,,,,,,
,,,,,,,,,,00001591074,2020-10-17_21h00.20.442,swahili,2020.2.4,MacIntel,60,,,,,,,,,,0.459890408,-0.002717014,1,0,0,1.214455,test_pile,1,0,1,0,1,MERCHANT - TAJIRI,,,,,,,,,,,,,,,,,,,,,,,,,,,,,,,,,,,,,,,,,,,,,,,,,,,,,,,,,,,,,,,,,,,,,,,,,,,,,,,,
,,,,,,,,,,00001591074,2020-10-17_21h00.20.442,swahili,2020.2.4,MacIntel,60,,,,,,,,,,-0.263682726,-0.053038194,1,0,0,0.94702,unsorted_card,2,0,2,0,1,,,,,,,,,,,,,,,,,,,,,,,,,,,,,,,,,,,,,,,,,,,,,,,,,,,,,,,,,,,,,,,,,,,,,,,,,,,,,,,,,
,,,,,,,,,,00001591074,2020-10-17_21h00.20.442,swahili,2020.2.4,MacIntel,60,,,,,,,,,,0.42047526,0.072473958,1,0,0,1.348535,test_pile,3,0,3,0,1,PARROT - KASUKU,,,,,,,,,,,,,,,,,,,,,,,,,,,,,,,,,,,,,,,,,,,,,,,,,,,,,,,,,,,,,,,,,,,,,,,,,,,,,,,,
,,,,,,,,,,00001591074,2020-10-17_21h00.20.442,swahili,2020.2.4,MacIntel,60,,,,,,,,,,-0.291015625,-0.028046875,1,0,0,0.599295,unsorted_card,4,0,4,0,1,,,,,,,,,,,,,,,,,,,,,,,,,,,,,,,,,,,,,,,,,,,,,,,,,,,,,,,,,,,,,,,,,,,,,,,,,,,,,,,,,
,,,,,,,,,,00001591074,2020-10-17_21h00.20.442,swahili,2020.2.4,MacIntel,60,,,,,,,,,,0.560460069,0.011866319,1,0,0,1.131555,test_pile,5,0,5,0,1,BULL - FAHILI,,,,,,,,,,,,,,,,,,,,,,,,,,,,,,,,,,,,,,,,,,,,,,,,,,,,,,,,,,,,,,,,,,,,,,,,,,,,,,,,
,,,,,,,,,,00001591074,2020-10-17_21h00.20.442,swahili,2020.2.4,MacIntel,60,,,,,,,,,,-0.277983941,-0.051206597,1,0,0,0.647175,unsorted_card,6,0,6,0,1,,,,,,,,,,,,,,,,,,,,,,,,,,,,,,,,,,,,,,,,,,,,,,,,,,,,,,,,,,,,,,,,,,,,,,,,,,,,,,,,,
,,,,,,,,,,00001591074,2020-10-17_21h00.20.442,swahili,2020.2.4,MacIntel,60,,,,,,,,,,0.446934679,-0.482361111,1,0,0,1.38349,done_pile,7,0,7,0,1,PLATE - SAHANI,,,,,,,,,,,,,,,,,,,,,,,,,,,,,,,,,,,,,,,,,,,,,,,,,,,,,,,,,,,,,,,,,,,,,,,,,,,,,,,,
,,,,,,,,,,00001591074,2020-10-17_21h00.20.442,swahili,2020.2.4,MacIntel,60,,,,,,,,,,-0.339105903,-0.0565625,1,0,0,0.83114,unsorted_card,8,0,8,0,1,,,,,,,,,,,,,,,,,,,,,,,,,,,,,,,,,,,,,,,,,,,,,,,,,,,,,,,,,,,,,,,,,,,,,,,,,,,,,,,,,
,,,,,,,,,,00001591074,2020-10-17_21h00.20.442,swahili,2020.2.4,MacIntel,60,,,,,,,,,,0.418527561,0.052092014,1,0,0,1.18246,test_pile,9,0,9,0,1,YEAST - HAMIRA,,,,,,,,,,,,,,,,,,,,,,,,,,,,,,,,,,,,,,,,,,,,,,,,,,,,,,,,,,,,,,,,,,,,,,,,,,,,,,,,
,,,,,,,,,,00001591074,2020-10-17_21h00.20.442,swahili,2020.2.4,MacIntel,60,,,,,,,,,,-0.459619141,0.003880208,1,0,0,0.614725,unsorted_card,10,0,10,0,1,,,,,,,,,,,,,,,,,,,,,,,,,,,,,,,,,,,,,,,,,,,,,,,,,,,,,,,,,,,,,,,,,,,,,,,,,,,,,,,,,
,,,,,,,,,,00001591074,2020-10-17_21h00.20.442,swahili,2020.2.4,MacIntel,60,,,,,,,,,,0.372960069,-0.042552083,1,0,0,0.982155,test_pile,11,0,11,0,1,BLAME - LAWAMA,,,,,,,,,,,,,,,,,,,,,,,,,,,,,,,,,,,,,,,,,,,,,,,,,,,,,,,,,,,,,,,,,,,,,,,,,,,,,,,,
,,,,,,,,,,00001591074,2020-10-17_21h00.20.442,swahili,2020.2.4,MacIntel,60,,,,,,,,,,-0.333186849,-0.057178819,1,0,0,0.565145,unsorted_card,12,0,12,0,1,,,,,,,,,,,,,,,,,,,,,,,,,,,,,,,,,,,,,,,,,,,,,,,,,,,,,,,,,,,,,,,,,,,,,,,,,,,,,,,,,
,,,,,,,,,,00001591074,2020-10-17_21h00.20.442,swahili,2020.2.4,MacIntel,60,,,,,,,,,,-0.333186849,-0.057178819,1,0,0,7.56457,unsorted_card,13,0,13,0,1,OATH - YAMINI,,,,,,,,,,,,,,,,,,,,,,,,,,,,,,,,,,,,,,,,,,,,,,,,,,,,,,,,,,,,,,,,,,,,,,,,,,,,,,,,
,,,,,,,,,,00001591074,2020-10-17_21h00.20.442,swahili,2020.2.4,MacIntel,60,,,,,,,,,,0.56500651,0.089262153,1,0,0,0.58169,test_pile,14,0,14,0,1,OATH - YAMINI,,,,,,,,,,,,,,,,,,,,,,,,,,,,,,,,,,,,,,,,,,,,,,,,,,,,,,,,,,,,,,,,,,,,,,,,,,,,,,,,
,,,,,,,,,,00001591074,2020-10-17_21h00.20.442,swahili,2020.2.4,MacIntel,60,,,,,,,,,,-0.143212891,0.000876736,1,0,0,1.16321,unsorted_card,15,0,15,0,1,,,,,,,,,,,,,,,,,,,,,,,,,,,,,,,,,,,,,,,,,,,,,,,,,,,,,,,,,,,,,,,,,,,,,,,,,,,,,,,,,
,,,,,,,,,,00001591074,2020-10-17_21h00.20.442,swahili,2020.2.4,MacIntel,60,,,,,,,,,,0.391183811,-0.082560764,1,0,0,1.015935,test_pile,16,0,16,0,1,CORN - NAFAKA,,,,,,,,,,,,,,,,,,,,,,,,,,,,,,,,,,,,,,,,,,,,,,,,,,,,,,,,,,,,,,,,,,,,,,,,,,,,,,,,
,,,,,,,,,,00001591074,2020-10-17_21h00.20.442,swahili,2020.2.4,MacIntel,60,,,,,,,,,,-0.173828125,-0.028524306,1,0,0,0.562505,unsorted_card,17,0,17,0,1,,,,,,,,,,,,,,,,,,,,,,,,,,,,,,,,,,,,,,,,,,,,,,,,,,,,,,,,,,,,,,,,,,,,,,,,,,,,,,,,,
,,,,,,,,,,00001591074,2020-10-17_21h00.20.442,swahili,2020.2.4,MacIntel,60,,,,,,,,,,0.4265625,-0.018628472,1,0,0,0.999835,test_pile,18,0,18,0,1,TAILOR - MSHONI,,,,,,,,,,,,,,,,,,,,,,,,,,,,,,,,,,,,,,,,,,,,,,,,,,,,,,,,,,,,,,,,,,,,,,,,,,,,,,,,
,,,,,,,,,,00001591074,2020-10-17_21h00.20.442,swahili,2020.2.4,MacIntel,60,,,,,,,,,,-0.327918837,-0.035217014,1,0,0,0.56493,unsorted_card,19,0,19,0,1,,,,,,,,,,,,,,,,,,,,,,,,,,,,,,,,,,,,,,,,,,,,,,,,,,,,,,,,,,,,,,,,,,,,,,,,,,,,,,,,,
,,,,,,,,,,00001591074,2020-10-17_21h00.20.442,swahili,2020.2.4,MacIntel,60,,,,,,,,,,0.454611545,0.057647569,1,0,0,4.265615,test_pile,20,0,20,0,1,GRAPES - ZABIBU,,,,,,,,,,,,,,,,,,,,,,,,,,,,,,,,,,,,,,,,,,,,,,,,,,,,,,,,,,,,,,,,,,,,,,,,,,,,,,,,
,,,,,,,,,,00001591074,2020-10-17_21h00.20.442,swahili,2020.2.4,MacIntel,60,,,,,,,,,,-0.19046224,0.012213542,1,0,0,0.69766,unsorted_card,21,0,21,0,1,,,,,,,,,,,,,,,,,,,,,,,,,,,,,,,,,,,,,,,,,,,,,,,,,,,,,,,,,,,,,,,,,,,,,,,,,,,,,,,,,
,,,,,,,,,,00001591074,2020-10-17_21h00.20.442,swahili,2020.2.4,MacIntel,60,,,,,,,,,,0.558289931,-0.010798611,1,0,0,1.132785,test_pile,22,0,22,0,1,GRAVE - KABURI,,,,,,,,,,,,,,,,,,,,,,,,,,,,,,,,,,,,,,,,,,,,,,,,,,,,,,,,,,,,,,,,,,,,,,,,,,,,,,,,
,,,,,,,,,,00001591074,2020-10-17_21h00.20.442,swahili,2020.2.4,MacIntel,60,,,,,,,,,,-0.473388672,0.028984375,1,0,0,0.696205,unsorted_card,23,0,23,0,1,,,,,,,,,,,,,,,,,,,,,,,,,,,,,,,,,,,,,,,,,,,,,,,,,,,,,,,,,,,,,,,,,,,,,,,,,,,,,,,,,
,,,,,,,,,,00001591074,2020-10-17_21h00.20.442,swahili,2020.2.4,MacIntel,60,,,,,,,,,,0.365180122,0.006545139,1,0,0,1.165705,test_pile,24,0,24,0,1,MANURE - SAMADI,,,,,,,,,,,,,,,,,,,,,,,,,,,,,,,,,,,,,,,,,,,,,,,,,,,,,,,,,,,,,,,,,,,,,,,,,,,,,,,,
,,,,,,,,,,00001591074,2020-10-17_21h00.20.442,swahili,2020.2.4,MacIntel,60,,,,,,,,,,-0.225678168,-0.040303819,1,0,0,0.61443,unsorted_card,25,0,25,0,1,,,,,,,,,,,,,,,,,,,,,,,,,,,,,,,,,,,,,,,,,,,,,,,,,,,,,,,,,,,,,,,,,,,,,,,,,,,,,,,,,
,,,,,,,,,,00001591074,2020-10-17_21h00.20.442,swahili,2020.2.4,MacIntel,60,,,,,,,,,,0.555973307,0.005755208,1,0,0,0.965615,test_pile,26,0,26,0,1,AGENT - WAKILI,,,,,,,,,,,,,,,,,,,,,,,,,,,,,,,,,,,,,,,,,,,,,,,,,,,,,,,,,,,,,,,,,,,,,,,,,,,,,,,,
,,,,,,,,,,00001591074,2020-10-17_21h00.20.442,swahili,2020.2.4,MacIntel,60,,,,,,,,,,-0.417686632,-0.044809028,1,0,0,0.615855,unsorted_card,27,0,27,0,1,,,,,,,,,,,,,,,,,,,,,,,,,,,,,,,,,,,,,,,,,,,,,,,,,,,,,,,,,,,,,,,,,,,,,,,,,,,,,,,,,
,,,,,,,,,,00001591074,2020-10-17_21h00.20.442,swahili,2020.2.4,MacIntel,60,,,,,,,,,,0.546397569,0.019652778,1,0,0,1.21501,test_pile,28,0,28,0,1,BRIBE - RUSHWA,,,,,,,,,,,,,,,,,,,,,,,,,,,,,,,,,,,,,,,,,,,,,,,,,,,,,,,,,,,,,,,,,,,,,,,,,,,,,,,,
,,,,,,,,,,00001591074,2020-10-17_21h00.20.442,swahili,2020.2.4,MacIntel,60,,,,,,,,,,-0.314317491,-0.029722222,1,0,0,0.58092,unsorted_card,29,0,29,0,1,,,,,,,,,,,,,,,,,,,,,,,,,,,,,,,,,,,,,,,,,,,,,,,,,,,,,,,,,,,,,,,,,,,,,,,,,,,,,,,,,
,,,,,,,,,,00001591074,2020-10-17_21h00.20.442,swahili,2020.2.4,MacIntel,60,,,,,,,,,,0.506662326,-0.119210069,1,0,0,6.64858,test_pile,30,0,30,0,1,DIVORCE - TALAKA,,,,,,,,,,,,,,,,,,,,,,,,,,,,,,,,,,,,,,,,,,,,,,,,,,,,,,,,,,,,,,,,,,,,,,,,,,,,,,,,
,,,,,,,,,,00001591074,2020-10-17_21h00.20.442,swahili,2020.2.4,MacIntel,60,,,,,,,,,,-0.488237847,-0.097725694,1,0,0,0.64653,unsorted_card,31,0,31,0,1,,,,,,,,,,,,,,,,,,,,,,,,,,,,,,,,,,,,,,,,,,,,,,,,,,,,,,,,,,,,,,,,,,,,,,,,,,,,,,,,,
,,,,,,,,,,00001591074,2020-10-17_21h00.20.442,swahili,2020.2.4,MacIntel,60,,,,,,,,,,0.534168837,-0.123289931,1,0,0,3.94906,test_pile,32,0,32,0,1,TREASURE - DAFINA,,,,,,,,,,,,,,,,,,,,,,,,,,,,,,,,,,,,,,,,,,,,,,,,,,,,,,,,,,,,,,,,,,,,,,,,,,,,,,,,
,,,,,,,,,,00001591074,2020-10-17_21h00.20.442,swahili,2020.2.4,MacIntel,60,,,,,,,,,,,,,,,,,,,,,,,,,,,,,,,,,,0,0,0,0,1,,,,,,,,,,,,,,,,,,,,,,,,,,,,,,,,,,,,,,,,,,,,,,,,,,,,,,,,,,,,,,,,
,,,,,,,,,,00001591074,2020-10-17_21h00.20.442,swahili,2020.2.4,MacIntel,60,,,,,,,,,,,,,,,,,,,,,,,,,,,,,,,,,,,,,,,return,,,,,,,,,,,23.195245,7.43042,0.326133898,-0.154583333,1,0,0,0.78097,yes,GRAPES,M,incorrect,0,0,0,0,1,,,,,,,,,,,,,,,,,,,,,,,,,,,,,,,,,,,,
,,,,,,,,,,00001591074,2020-10-17_21h00.20.442,swahili,2020.2.4,MacIntel,60,,,,,,,,,,,,,,,,,,,,,,,,,,,,,,,,,,,,,,,,,,,,,,,,,,,6.479685,0.415011936,0.063402778,1,0,0,0.66612,yes,CORN,WALAKA,incorrect,1,0,1,0,1,,,,,,,,,,,,,,,,,,,,,,,,,,,,,,,,,,,,
,,,,,,,,,,00001591074,2020-10-17_21h00.20.442,swahili,2020.2.4,MacIntel,60,,,,,,,,,,,,,,,,,,,,,,,,,,,,,,,,,,,,,,,,,,,,,,,,,,,2.48056,0.459337023,0.168298611,1,0,0,0.65077,yes,GRAVE,M,incorrect,2,0,2,0,1,,,,,,,,,,,,,,,,,,,,,,,,,,,,,,,,,,,,
,,,,,,,,,,00001591074,2020-10-17_21h00.20.442,swahili,2020.2.4,MacIntel,60,,,,,,,,,,,,,,,,,,,,,,,,,,,,,,,,,,,,,,,,,,,,,,,,,,,5.397845,0.540923394,0.107934028,1,0,0,0.59982,yes,MANURE,G,incorrect,3,0,3,0,1,,,,,,,,,,,,,,,,,,,,,,,,,,,,,,,,,,,,
,,,,,,,,,,00001591074,2020-10-17_21h00.20.442,swahili,2020.2.4,MacIntel,60,,,,,,,,,,,,,,,,,,,,,,,,,,,,,,,,,,,,,,,,,,,,,,,,,,,4.263645,0.311376953,-0.161822917,1,0,0,0.71734,yes,BULL,YAFIKI,incorrect,4,0,4,0,1,,,,,,,,,,,,,,,,,,,,,,,,,,,,,,,,,,,,
,,,,,,,,,,00001591074,2020-10-17_21h00.20.442,swahili,2020.2.4,MacIntel,60,,,,,,,,,,,,,,,,,,,,,,,,,,,,,,,,,,,,,,,,,,,,,,,,,,,2.99763,0.386458333,-0.029835069,1,0,0,0.54897,yes,TREASURE,DAFANI,incorrect,5,0,5,0,1,,,,,,,,,,,,,,,,,,,,,,,,,,,,,,,,,,,,
,,,,,,,,,,00001591074,2020-10-17_21h00.20.442,swahili,2020.2.4,MacIntel,60,,,,,,,,,,,,,,,,,,,,,,,,,,,,,,,,,,,,,,,,,,,,,,,,,,,3.296765,0.306722005,-0.109965278,1,0,0,0.650335,yes,YEAST,HAMADI,incorrect,6,0,6,0,1,,,,,,,,,,,,,,,,,,,,,,,,,,,,,,,,,,,,
,,,,,,,,,,00001591074,2020-10-17_21h00.20.442,swahili,2020.2.4,MacIntel,60,,,,,,,,,,,,,,,,,,,,,,,,,,,,,,,,,,,,,,,,,,,,,,,,,,,9.597135,0.349083116,-0.134314236,1,0,0,0.90066,yes,TAILOR,MSHONI,incorrect,7,0,7,0,1,,,,,,,,,,,,,,,,,,,,,,,,,,,,,,,,,,,,
,,,,,,,,,,00001591074,2020-10-17_21h00.20.442,swahili,2020.2.4,MacIntel,60,,,,,,,,,,,,,,,,,,,,,,,,,,,,,,,,,,,,,,,,,,,,,,,,,,,5.412985,0.310747613,-0.038958333,1,0,0,0.633015,yes,DIVORCE,YAKALI,incorrect,8,0,8,0,1,,,,,,,,,,,,,,,,,,,,,,,,,,,,,,,,,,,,
,,,,,,,,,,00001591074,2020-10-17_21h00.20.442,swahili,2020.2.4,MacIntel,60,,,,,,,,,,,,,,,,,,,,,,,,,,,,,,,,,,,,,,,,,,,,,,,,,,,92.03005,0.285519748,-0.037986111,1,0,0,0.73288,yes,BLAME,WASHURI,incorrect,9,0,9,0,1,,,,,,,,,,,,,,,,,,,,,,,,,,,,,,,,,,,,
,,,,,,,,,,00001591074,2020-10-17_21h00.20.442,swahili,2020.2.4,MacIntel,60,,,,,,,,,,,,,,,,,,,,,,,,,,,,,,,,,,,,,,,,,,,,,,,,,,,191.144005,0.396131727,-0.036970486,1,0,0,0.899865,yes,OATH,M,incorrect,10,0,10,0,1,,,,,,,,,,,,,,,,,,,,,,,,,,,,,,,,,,,,
,,,,,,,,,,00001591074,2020-10-17_21h00.20.442,swahili,2020.2.4,MacIntel,60,,,,,,,,,,,,,,,,,,,,,,,,,,,,,,,,,,,,,,,,,,,,,,,,,,,4.529435,0.396131727,-0.036970486,1,0,0,0.651135,yes,AGENT,WAKINI,incorrect,11,0,11,0,1,,,,,,,,,,,,,,,,,,,,,,,,,,,,,,,,,,,,
,,,,,,,,,,00001591074,2020-10-17_21h00.20.442,swahili,2020.2.4,MacIntel,60,,,,,,,,,,,,,,,,,,,,,,,,,,,,,,,,,,,,,,,,,,,,,,,,,,,4.364115,0.462771267,0.139982639,1,0,0,0.716655,yes,MERCHANT,MSHORI,incorrect,12,0,12,0,1,,,,,,,,,,,,,,,,,,,,,,,,,,,,,,,,,,,,
,,,,,,,,,,00001591074,2020-10-17_21h00.20.442,swahili,2020.2.4,MacIntel,60,,,,,,,,,,,,,,,,,,,,,,,,,,,,,,,,,,,,,,,,,,,,,,,,,,,3.113305,0.462771267,0.139982639,1,0,0,0.53361,yes,BRIBE,WALAKA,incorrect,13,0,13,0,1,,,,,,,,,,,,,,,,,,,,,,,,,,,,,,,,,,,,
,,,,,,,,,,00001591074,2020-10-17_21h00.20.442,swahili,2020.2.4,MacIntel,60,,,,,,,,,,,,,,,,,,,,,,,,,,,,,,,,,,,,,,,,,,,,,,,,,,,20.313325,0.462771267,0.139982639,1,0,0,0.616675,yes,PARROT,LA,incorrect,14,0,14,0,1,,,,,,,,,,,,,,,,,,,,,,,,,,,,,,,,,,,,
,,,,,,,,,,00001591074,2020-10-17_21h00.20.442,swahili,2020.2.4,MacIntel,60,,,,,,,,,,,,,,,,,,,,,,,,,,,,,,,,,,,,,,,,0,0,0,0,1,,,,,,,,,,,,,,,,,,,,,,,,,,,,,,,,,,,,,,,,,,,,,,,,,,,,,,,,,,
,,,,,,,,,,00001591074,2020-10-17_21h00.20.442,swahili,2020.2.4,MacIntel,60,,,,,,,,,,,,,,,,,,,,,,,,,,,,,,,,,,,,,,,,1,0,1,0,1,,,,,,,,,,,,,,,,,,,,,,,,,,,,,,,,,,,,,,,,,,,,,,,,,,,,,,,,,,
,,,,,,,,,,00001591074,2020-10-17_21h00.20.442,swahili,2020.2.4,MacIntel,60,,,,,,,,,,,,,,,,,,,,,,,,,,,,,,,,,,,,,,,,,,,,,5,0,5,0,1,,,,,,,,,,,,,,,,,,,,,,,,,,,,,,,,,,,,,,,,,,,,,,,,,,,,,
,,,,,,,,,,00001591074,2020-10-17_21h00.20.442,swahili,2020.2.4,MacIntel,60,,,,,,,,,,-0.194525825,-0.111189236,1,0,0,1.363885,unsorted_card,0,0,0,0,1,,,,,,,,,,,,,,,,,,,,,,,,,,,,,,,,,,,,,,,,,,,,,,,,,,,,,,,,,,,,,,,,,,,,,,,,,,,,,,,,,
,,,,,,,,,,00001591074,2020-10-17_21h00.20.442,swahili,2020.2.4,MacIntel,60,,,,,,,,,,-0.194525825,-0.111189236,1,0,0,55.9955,unsorted_card,1,0,1,0,1,MERCHANT - TAJIRI,,,,,,,,,,,,,,,,,,,,,,,,,,,,,,,,,,,,,,,,,,,,,,,,,,,,,,,,,,,,,,,,,,,,,,,,,,,,,,,,
,,,,,,,,,,00001591074,2020-10-17_21h00.20.442,swahili,2020.2.4,MacIntel,60,,,,,,,,,,0.488286675,0.005677083,1,0,0,10.465495,test_pile,2,0,2,0,1,MERCHANT - TAJIRI,,,,,,,,,,,,,,,,,,,,,,,,,,,,,,,,,,,,,,,,,,,,,,,,,,,,,,,,,,,,,,,,,,,,,,,,,,,,,,,,
,,,,,,,,,,00001591074,2020-10-17_21h00.20.442,swahili,2020.2.4,MacIntel,60,,,,,,,,,,-0.168457031,0.030286458,1,0,0,2.0463,unsorted_card,3,0,3,0,1,,,,,,,,,,,,,,,,,,,,,,,,,,,,,,,,,,,,,,,,,,,,,,,,,,,,,,,,,,,,,,,,,,,,,,,,,,,,,,,,,
,,,,,,,,,,00001591074,2020-10-17_21h00.20.442,swahili,2020.2.4,MacIntel,60,,,,,,,,,,0.434646267,-0.020824653,1,0,0,16.54908,test_pile,4,0,4,0,1,PARROT - KASUKU,,,,,,,,,,,,,,,,,,,,,,,,,,,,,,,,,,,,,,,,,,,,,,,,,,,,,,,,,,,,,,,,,,,,,,,,,,,,,,,,
,,,,,,,,,,00001591074,2020-10-17_21h00.20.442,swahili,2020.2.4,MacIntel,60,,,,,,,,,,-0.206629774,-0.015173611,1,0,0,0.964005,unsorted_card,5,0,5,0,1,,,,,,,,,,,,,,,,,,,,,,,,,,,,,,,,,,,,,,,,,,,,,,,,,,,,,,,,,,,,,,,,,,,,,,,,,,,,,,,,,
,,,,,,,,,,00001591074,2020-10-17_21h00.20.442,swahili,2020.2.4,MacIntel,60,,,,,,,,,,0.607009549,0.043116319,1,0,0,13.150015,test_pile,6,0,6,0,1,BULL - FAHILI,,,,,,,,,,,,,,,,,,,,,,,,,,,,,,,,,,,,,,,,,,,,,,,,,,,,,,,,,,,,,,,,,,,,,,,,,,,,,,,,
,,,,,,,,,,00001591074,2020-10-17_21h00.20.442,swahili,2020.2.4,MacIntel,60,,,,,,,,,,-0.293288845,-0.115043403,1,0,0,1.062935,unsorted_card,7,0,7,0,1,,,,,,,,,,,,,,,,,,,,,,,,,,,,,,,,,,,,,,,,,,,,,,,,,,,,,,,,,,,,,,,,,,,,,,,,,,,,,,,,,
,,,,,,,,,,00001591074,2020-10-17_21h00.20.442,swahili,2020.2.4,MacIntel,60,,,,,,,,,,0.421115451,-0.037204861,1,0,0,8.898215,test_pile,8,0,8,0,1,YEAST - HAMIRA,,,,,,,,,,,,,,,,,,,,,,,,,,,,,,,,,,,,,,,,,,,,,,,,,,,,,,,,,,,,,,,,,,,,,,,,,,,,,,,,
,,,,,,,,,,00001591074,2020-10-17_21h00.20.442,swahili,2020.2.4,MacIntel,60,,,,,,,,,,0.421115451,-0.032430556,1,0,0,0.314265,test_pile,9,0,9,0,1,,,,,,,,,,,,,,,,,,,,,,,,,,,,,,,,,,,,,,,,,,,,,,,,,,,,,,,,,,,,,,,,,,,,,,,,,,,,,,,,,
,,,,,,,,,,00001591074,2020-10-17_21h00.20.442,swahili,2020.2.4,MacIntel,60,,,,,,,,,,-0.251502821,-0.074557292,1,0,0,1.1147,unsorted_card,10,0,10,0,1,,,,,,,,,,,,,,,,,,,,,,,,,,,,,,,,,,,,,,,,,,,,,,,,,,,,,,,,,,,,,,,,,,,,,,,,,,,,,,,,,
,,,,,,,,,,00001591074,2020-10-17_21h00.20.442,swahili,2020.2.4,MacIntel,60,,,,,,,,,,0.369965278,-0.051380208,1,0,0,9.48389,test_pile,11,0,11,0,1,BLAME - LAWAMA,,,,,,,,,,,,,,,,,,,,,,,,,,,,,,,,,,,,,,,,,,,,,,,,,,,,,,,,,,,,,,,,,,,,,,,,,,,,,,,,
,,,,,,,,,,00001591074,2020-10-17_21h00.20.442,swahili,2020.2.4,MacIntel,60,,,,,,,,,,0.357931858,-0.049887153,1,0,0,0.379005,test_pile,12,0,12,0,1,,,,,,,,,,,,,,,,,,,,,,,,,,,,,,,,,,,,,,,,,,,,,,,,,,,,,,,,,,,,,,,,,,,,,,,,,,,,,,,,,
,,,,,,,,,,00001591074,2020-10-17_21h00.20.442,swahili,2020.2.4,MacIntel,60,,,,,,,,,,-0.643223741,-0.358776042,1,0,0,3.299225,unsorted_card,13,0,13,0,1,,,,,,,,,,,,,,,,,,,,,,,,,,,,,,,,,,,,,,,,,,,,,,,,,,,,,,,,,,,,,,,,,,,,,,,,,,,,,,,,,
,,,,,,,,,,00001591074,2020-10-17_21h00.20.442,swahili,2020.2.4,MacIntel,60,,,,,,,,,,-0.39601237,-0.14203125,1,0,0,7.76428,unsorted_card,14,0,14,0,1,OATH - YAMINI,,,,,,,,,,,,,,,,,,,,,,,,,,,,,,,,,,,,,,,,,,,,,,,,,,,,,,,,,,,,,,,,,,,,,,,,,,,,,,,,
,,,,,,,,,,00001591074,2020-10-17_21h00.20.442,swahili,2020.2.4,MacIntel,60,,,,,,,,,,0.446261936,-0.042578125,1,0,0,0.630545,test_pile,15,0,15,0,1,OATH - YAMINI,,,,,,,,,,,,,,,,,,,,,,,,,,,,,,,,,,,,,,,,,,,,,,,,,,,,,,,,,,,,,,,,,,,,,,,,,,,,,,,,
,,,,,,,,,,00001591074,2020-10-17_21h00.20.442,swahili,2020.2.4,MacIntel,60,,,,,,,,,,-0.291427951,-0.037178819,1,0,0,0.783575,unsorted_card,16,0,16,0,1,,,,,,,,,,,,,,,,,,,,,,,,,,,,,,,,,,,,,,,,,,,,,,,,,,,,,,,,,,,,,,,,,,,,,,,,,,,,,,,,,
,,,,,,,,,,00001591074,2020-10-17_21h00.20.442,swahili,2020.2.4,MacIntel,60,,,,,,,,,,-0.011192491,-0.005086806,1,0,0,8.16385,test_pile,17,0,17,0,1,CORN - NAFAKA,,,,,,,,,,,,,,,,,,,,,,,,,,,,,,,,,,,,,,,,,,,,,,,,,,,,,,,,,,,,,,,,,,,,,,,,,,,,,,,,
,,,,,,,,,,00001591074,2020-10-17_21h00.20.442,swahili,2020.2.4,MacIntel,60,,,,,,,,,,-0.562912326,0.114739583,1,0,0,0.879945,unsorted_card,18,0,18,0,1,,,,,,,,,,,,,,,,,,,,,,,,,,,,,,,,,,,,,,,,,,,,,,,,,,,,,,,,,,,,,,,,,,,,,,,,,,,,,,,,,
,,,,,,,,,,00001591074,2020-10-17_21h00.20.442,swahili,2020.2.4,MacIntel,60,,,,,,,,,,0.454752604,-0.569461806,1,0,0,9.383615,done_pile,19,0,19,0,1,TAILOR - MSHONI,,,,,,,,,,,,,,,,,,,,,,,,,,,,,,,,,,,,,,,,,,,,,,,,,,,,,,,,,,,,,,,,,,,,,,,,,,,,,,,,
,,,,,,,,,,00001591074,2020-10-17_21h00.20.442,swahili,2020.2.4,MacIntel,60,,,,,,,,,,-0.396668837,-0.071675347,1,0,0,0.76272,unsorted_card,20,0,20,0,1,,,,,,,,,,,,,,,,,,,,,,,,,,,,,,,,,,,,,,,,,,,,,,,,,,,,,,,,,,,,,,,,,,,,,,,,,,,,,,,,,
,,,,,,,,,,00001591074,2020-10-17_21h00.20.442,swahili,2020.2.4,MacIntel,60,,,,,,,,,,-0.280007595,-0.050746528,1,0,0,9.7324,unsorted_card,21,0,21,0,1,GRAPES - ZABIBU,,,,,,,,,,,,,,,,,,,,,,,,,,,,,,,,,,,,,,,,,,,,,,,,,,,,,,,,,,,,,,,,,,,,,,,,,,,,,,,,
,,,,,,,,,,00001591074,2020-10-17_21h00.20.442,swahili,2020.2.4,MacIntel,60,,,,,,,,,,0.373291016,0.060564236,1,0,0,0.51458,test_pile,22,0,22,0,1,GRAPES - ZABIBU,,,,,,,,,,,,,,,,,,,,,,,,,,,,,,,,,,,,,,,,,,,,,,,,,,,,,,,,,,,,,,,,,,,,,,,,,,,,,,,,
,,,,,,,,,,00001591074,2020-10-17_21h00.20.442,swahili,2020.2.4,MacIntel,60,,,,,,,,,,-0.298426649,0.001666667,1,0,0,0.696795,unsorted_card,23,0,23,0,1,,,,,,,,,,,,,,,,,,,,,,,,,,,,,,,,,,,,,,,,,,,,,,,,,,,,,,,,,,,,,,,,,,,,,,,,,,,,,,,,,
,,,,,,,,,,00001591074,2020-10-17_21h00.20.442,swahili,2020.2.4,MacIntel,60,,,,,,,,,,0.450016276,-0.008758681,1,0,0,9.28224,test_pile,24,0,24,0,1,GRAVE - KABURI,,,,,,,,,,,,,,,,,,,,,,,,,,,,,,,,,,,,,,,,,,,,,,,,,,,,,,,,,,,,,,,,,,,,,,,,,,,,,,,,
,,,,,,,,,,00001591074,2020-10-17_21h00.20.442,swahili,2020.2.4,MacIntel,60,,,,,,,,,,-0.34820421,-0.043402778,1,0,0,0.94779,unsorted_card,25,0,25,0,1,,,,,,,,,,,,,,,,,,,,,,,,,,,,,,,,,,,,,,,,,,,,,,,,,,,,,,,,,,,,,,,,,,,,,,,,,,,,,,,,,
,,,,,,,,,,00001591074,2020-10-17_21h00.20.442,swahili,2020.2.4,MacIntel,60,,,,,,,,,,0.64046224,0.01609375,1,0,0,9.448105,test_pile,26,0,26,0,1,MANURE - SAMADI,,,,,,,,,,,,,,,,,,,,,,,,,,,,,,,,,,,,,,,,,,,,,,,,,,,,,,,,,,,,,,,,,,,,,,,,,,,,,,,,
,,,,,,,,,,00001591074,2020-10-17_21h00.20.442,swahili,2020.2.4,MacIntel,60,,,,,,,,,,-0.779329427,-0.271006944,1,0,0,1.46242,unsorted_card,27,0,27,0,1,,,,,,,,,,,,,,,,,,,,,,,,,,,,,,,,,,,,,,,,,,,,,,,,,,,,,,,,,,,,,,,,,,,,,,,,,,,,,,,,,
,,,,,,,,,,00001591074,2020-10-17_21h00.20.442,swahili,2020.2.4,MacIntel,60,,,,,,,,,,0.377815755,-0.090555556,1,0,0,11.299515,test_pile,28,0,28,0,1,AGENT - WAKILI,,,,,,,,,,,,,,,,,,,,,,,,,,,,,,,,,,,,,,,,,,,,,,,,,,,,,,,,,,,,,,,,,,,,,,,,,,,,,,,,
,,,,,,,,,,00001591074,2020-10-17_21h00.20.442,swahili,2020.2.4,MacIntel,60,,,,,,,,,,-0.288796658,-0.091553819,1,0,0,0.897565,unsorted_card,29,0,29,0,1,,,,,,,,,,,,,,,,,,,,,,,,,,,,,,,,,,,,,,,,,,,,,,,,,,,,,,,,,,,,,,,,,,,,,,,,,,,,,,,,,
,,,,,,,,,,00001591074,2020-10-17_21h00.20.442,swahili,2020.2.4,MacIntel,60,,,,,,,,,,0.290673828,-0.044262153,1,0,0,9.54782,test_pile,30,0,30,0,1,BRIBE - RUSHWA,,,,,,,,,,,,,,,,,,,,,,,,,,,,,,,,,,,,,,,,,,,,,,,,,,,,,,,,,,,,,,,,,,,,,,,,,,,,,,,,
,,,,,,,,,,00001591074,2020-10-17_21h00.20.442,swahili,2020.2.4,MacIntel,60,,,,,,,,,,0.37516276,-0.038897569,1,0,0,0.26551,test_pile,31,0,31,0,1,,,,,,,,,,,,,,,,,,,,,,,,,,,,,,,,,,,,,,,,,,,,,,,,,,,,,,,,,,,,,,,,,,,,,,,,,,,,,,,,,
,,,,,,,,,,00001591074,2020-10-17_21h00.20.442,swahili,2020.2.4,MacIntel,60,,,,,,,,,,-0.330197483,0.016762153,1,0,0,0.34826,unsorted_card,32,0,32,0,1,,,,,,,,,,,,,,,,,,,,,,,,,,,,,,,,,,,,,,,,,,,,,,,,,,,,,,,,,,,,,,,,,,,,,,,,,,,,,,,,,
,,,,,,,,,,00001591074,2020-10-17_21h00.20.442,swahili,2020.2.4,MacIntel,60,,,,,,,,,,-0.330197483,0.016762153,1,0,0,10.03282,unsorted_card,33,0,33,0,1,DIVORCE - TALAKA,,,,,,,,,,,,,,,,,,,,,,,,,,,,,,,,,,,,,,,,,,,,,,,,,,,,,,,,,,,,,,,,,,,,,,,,,,,,,,,,
,,,,,,,,,,00001591074,2020-10-17_21h00.20.442,swahili,2020.2.4,MacIntel,60,,,,,,,,,,0.445632595,0.002317708,1,0,0,0.597455,test_pile,34,0,34,0,1,DIVORCE - TALAKA,,,,,,,,,,,,,,,,,,,,,,,,,,,,,,,,,,,,,,,,,,,,,,,,,,,,,,,,,,,,,,,,,,,,,,,,,,,,,,,,
,,,,,,,,,,00001591074,2020-10-17_21h00.20.442,swahili,2020.2.4,MacIntel,60,,,,,,,,,,0.445632595,0.002317708,1,0,0,0.265055,test_pile,35,0,35,0,1,,,,,,,,,,,,,,,,,,,,,,,,,,,,,,,,,,,,,,,,,,,,,,,,,,,,,,,,,,,,,,,,,,,,,,,,,,,,,,,,,
,,,,,,,,,,00001591074,2020-10-17_21h00.20.442,swahili,2020.2.4,MacIntel,60,,,,,,,,,,-0.492664931,0.20609375,1,0,0,0.331775,unsorted_card,36,0,36,0,1,,,,,,,,,,,,,,,,,,,,,,,,,,,,,,,,,,,,,,,,,,,,,,,,,,,,,,,,,,,,,,,,,,,,,,,,,,,,,,,,,
,,,,,,,,,,00001591074,2020-10-17_21h00.20.442,swahili,2020.2.4,MacIntel,60,,,,,,,,,,0.384380425,-0.52203125,1,0,0,11.14886,done_pile,37,0,37,0,1,TREASURE - DAFINA,,,,,,,,,,,,,,,,,,,,,,,,,,,,,,,,,,,,,,,,,,,,,,,,,,,,,,,,,,,,,,,,,,,,,,,,,,,,,,,,
