condition,consent_key.keys,consent_key.rt,done_with_instructions.keys,done_with_instructions.rt,instr_loop.thisRepN,instr_loop.thisTrialN,instr_loop.thisN,instr_loop.thisIndex,instr_loop.ran,Student ID #,date,expName,psychopyVersion,OS,frameRate,instr_learning_key.keys,instr_learning_key.rt,card_gen_loop.thisRepN,card_gen_loop.thisTrialN,card_gen_loop.thisN,card_gen_loop.thisIndex,card_gen_loop.ran,swa,eng,choose_pile.x,choose_pile.y,choose_pile.leftButton,choose_pile.midButton,choose_pile.rightButton,choose_pile.time,choose_pile.clicked_name,choices.thisRepN,choices.thisTrialN,choices.thisN,choices.thisIndex,choices.ran,card_to_show,mouse_pick.x,mouse_pick.y,mouse_pick.leftButton,mouse_pick.midButton,mouse_pick.rightButton,mouse_pick.time,mouse_pick.clicked_name,key_instr_study.keys,next_study.keys,study_loop.thisRepN,study_loop.thisTrialN,study_loop.thisN,study_loop.thisIndex,study_loop.ran,key_instr_test.keys,key_instr_test.rt,duration,yes_or_no.x,yes_or_no.y,yes_or_no.leftButton,yes_or_no.midButton,yes_or_no.rightButton,yes_or_no.time,yes_or_no.clicked_name,test_response.stim,test_response.resp,test_response.eval,test_loop.thisRepN,test_loop.thisTrialN,test_loop.thisN,test_loop.thisIndex,test_loop.ran,learn_loop.thisRepN,learn_loop.thisTrialN,learn_loop.thisN,learn_loop.thisIndex,learn_loop.ran,trials.thisRepN,trials.thisTrialN,trials.thisN,trials.thisIndex,trials.ran,key_instr_study.rt,next_study.rt,instr_movie_key.keys,instr_movie_key.rt,return_to_exp.keys,return_to_exp.rt,instr_assess_key.keys,instr_assess_key.rt,assess_loop.thisRepN,assess_loop.thisTrialN,assess_loop.thisN,assess_loop.thisIndex,assess_loop.ran,ans_gen_loop.thisRepN,ans_gen_loop.thisTrialN,ans_gen_loop.thisN,ans_gen_loop.thisIndex,ans_gen_loop.ran,sen,ans,instr_transfer_key.keys,instr_transfer_key.rt,transfer_response.resp,transfer_response.eval,select_word.x,select_word.y,select_word.leftButton,select_word.midButton,select_word.rightButton,select_word.time,select_word.clicked_name,transfers.thisRepN,transfers.thisTrialN,transfers.thisN,transfers.thisIndex,transfers.ran,end_experiment.keys,end_experiment.rt
2,return,30.444395,return,17.084485,0,0,0,0,1,00001579078,2020-10-23_20h26.35.788,swahili,2020.2.4,MacIntel,60,,,,,,,,,,,,,,,,,,,,,,,,,,,,,,,,,,,,,,,,,,,,,,,,,,,,,,,,,,,,,,,,,,,,,,,,,,,,,,,,,,,,,,,,,,,,,,,,,,,,,,
,,,return,23.104605,1,0,1,0,1,00001579078,2020-10-23_20h26.35.788,swahili,2020.2.4,MacIntel,60,,,,,,,,,,,,,,,,,,,,,,,,,,,,,,,,,,,,,,,,,,,,,,,,,,,,,,,,,,,,,,,,,,,,,,,,,,,,,,,,,,,,,,,,,,,,,,,,,,,,,,
,,,,,,,,,,00001579078,2020-10-23_20h26.35.788,swahili,2020.2.4,MacIntel,60,return,11.716545,0,0,0,0,1,TAJIRI,MERCHANT,,,,,,,,,,,,,,,,,,,,,,,,,,,,,,,,,,,,,,,,,,,,,,,,,,,,,,,,,,,,,,,,,,,,,,,,,,,,,,,,,,,,,,,,,,,,,
,,,,,,,,,,00001579078,2020-10-23_20h26.35.788,swahili,2020.2.4,MacIntel,60,,,0,1,1,1,1,KASUKU,PARROT,,,,,,,,,,,,,,,,,,,,,,,,,,,,,,,,,,,,,,,,,,,,,,,,,,,,,,,,,,,,,,,,,,,,,,,,,,,,,,,,,,,,,,,,,,,,,
,,,,,,,,,,00001579078,2020-10-23_20h26.35.788,swahili,2020.2.4,MacIntel,60,,,0,2,2,2,1,FAHILI,BULL,,,,,,,,,,,,,,,,,,,,,,,,,,,,,,,,,,,,,,,,,,,,,,,,,,,,,,,,,,,,,,,,,,,,,,,,,,,,,,,,,,,,,,,,,,,,,
,,,,,,,,,,00001579078,2020-10-23_20h26.35.788,swahili,2020.2.4,MacIntel,60,,,0,3,3,3,1,SAHANI,PLATE,,,,,,,,,,,,,,,,,,,,,,,,,,,,,,,,,,,,,,,,,,,,,,,,,,,,,,,,,,,,,,,,,,,,,,,,,,,,,,,,,,,,,,,,,,,,,
,,,,,,,,,,00001579078,2020-10-23_20h26.35.788,swahili,2020.2.4,MacIntel,60,,,0,4,4,4,1,HAMIRA,YEAST,,,,,,,,,,,,,,,,,,,,,,,,,,,,,,,,,,,,,,,,,,,,,,,,,,,,,,,,,,,,,,,,,,,,,,,,,,,,,,,,,,,,,,,,,,,,,
,,,,,,,,,,00001579078,2020-10-23_20h26.35.788,swahili,2020.2.4,MacIntel,60,,,0,5,5,5,1,LAWAMA,BLAME,,,,,,,,,,,,,,,,,,,,,,,,,,,,,,,,,,,,,,,,,,,,,,,,,,,,,,,,,,,,,,,,,,,,,,,,,,,,,,,,,,,,,,,,,,,,,
,,,,,,,,,,00001579078,2020-10-23_20h26.35.788,swahili,2020.2.4,MacIntel,60,,,0,6,6,6,1,YAMINI,OATH,,,,,,,,,,,,,,,,,,,,,,,,,,,,,,,,,,,,,,,,,,,,,,,,,,,,,,,,,,,,,,,,,,,,,,,,,,,,,,,,,,,,,,,,,,,,,
,,,,,,,,,,00001579078,2020-10-23_20h26.35.788,swahili,2020.2.4,MacIntel,60,,,0,7,7,7,1,NAFAKA,CORN,,,,,,,,,,,,,,,,,,,,,,,,,,,,,,,,,,,,,,,,,,,,,,,,,,,,,,,,,,,,,,,,,,,,,,,,,,,,,,,,,,,,,,,,,,,,,
,,,,,,,,,,00001579078,2020-10-23_20h26.35.788,swahili,2020.2.4,MacIntel,60,,,0,8,8,8,1,UTENZI,POEM,,,,,,,,,,,,,,,,,,,,,,,,,,,,,,,,,,,,,,,,,,,,,,,,,,,,,,,,,,,,,,,,,,,,,,,,,,,,,,,,,,,,,,,,,,,,,
,,,,,,,,,,00001579078,2020-10-23_20h26.35.788,swahili,2020.2.4,MacIntel,60,,,0,9,9,9,1,MSHONI,TAILOR,,,,,,,,,,,,,,,,,,,,,,,,,,,,,,,,,,,,,,,,,,,,,,,,,,,,,,,,,,,,,,,,,,,,,,,,,,,,,,,,,,,,,,,,,,,,,
,,,,,,,,,,00001579078,2020-10-23_20h26.35.788,swahili,2020.2.4,MacIntel,60,,,0,10,10,10,1,JIBINI,CHEESE,,,,,,,,,,,,,,,,,,,,,,,,,,,,,,,,,,,,,,,,,,,,,,,,,,,,,,,,,,,,,,,,,,,,,,,,,,,,,,,,,,,,,,,,,,,,,
,,,,,,,,,,00001579078,2020-10-23_20h26.35.788,swahili,2020.2.4,MacIntel,60,,,0,11,11,11,1,ZABIBU,GRAPES,,,,,,,,,,,,,,,,,,,,,,,,,,,,,,,,,,,,,,,,,,,,,,,,,,,,,,,,,,,,,,,,,,,,,,,,,,,,,,,,,,,,,,,,,,,,,
,,,,,,,,,,00001579078,2020-10-23_20h26.35.788,swahili,2020.2.4,MacIntel,60,,,0,12,12,12,1,KABURI,GRAVE,,,,,,,,,,,,,,,,,,,,,,,,,,,,,,,,,,,,,,,,,,,,,,,,,,,,,,,,,,,,,,,,,,,,,,,,,,,,,,,,,,,,,,,,,,,,,
,,,,,,,,,,00001579078,2020-10-23_20h26.35.788,swahili,2020.2.4,MacIntel,60,,,0,13,13,13,1,SAMADI,MANURE,,,,,,,,,,,,,,,,,,,,,,,,,,,,,,,,,,,,,,,,,,,,,,,,,,,,,,,,,,,,,,,,,,,,,,,,,,,,,,,,,,,,,,,,,,,,,
,,,,,,,,,,00001579078,2020-10-23_20h26.35.788,swahili,2020.2.4,MacIntel,60,,,0,14,14,14,1,WAKILI,AGENT,,,,,,,,,,,,,,,,,,,,,,,,,,,,,,,,,,,,,,,,,,,,,,,,,,,,,,,,,,,,,,,,,,,,,,,,,,,,,,,,,,,,,,,,,,,,,
,,,,,,,,,,00001579078,2020-10-23_20h26.35.788,swahili,2020.2.4,MacIntel,60,,,0,15,15,15,1,RUSHWA,BRIBE,,,,,,,,,,,,,,,,,,,,,,,,,,,,,,,,,,,,,,,,,,,,,,,,,,,,,,,,,,,,,,,,,,,,,,,,,,,,,,,,,,,,,,,,,,,,,
,,,,,,,,,,00001579078,2020-10-23_20h26.35.788,swahili,2020.2.4,MacIntel,60,,,0,16,16,16,1,YATIMA,ORPHAN,,,,,,,,,,,,,,,,,,,,,,,,,,,,,,,,,,,,,,,,,,,,,,,,,,,,,,,,,,,,,,,,,,,,,,,,,,,,,,,,,,,,,,,,,,,,,
,,,,,,,,,,00001579078,2020-10-23_20h26.35.788,swahili,2020.2.4,MacIntel,60,,,0,17,17,17,1,TALAKA,DIVORCE,,,,,,,,,,,,,,,,,,,,,,,,,,,,,,,,,,,,,,,,,,,,,,,,,,,,,,,,,,,,,,,,,,,,,,,,,,,,,,,,,,,,,,,,,,,,,
,,,,,,,,,,00001579078,2020-10-23_20h26.35.788,swahili,2020.2.4,MacIntel,60,,,0,18,18,18,1,MASHUA,BOAT,,,,,,,,,,,,,,,,,,,,,,,,,,,,,,,,,,,,,,,,,,,,,,,,,,,,,,,,,,,,,,,,,,,,,,,,,,,,,,,,,,,,,,,,,,,,,
,,,,,,,,,,00001579078,2020-10-23_20h26.35.788,swahili,2020.2.4,MacIntel,60,,,0,19,19,19,1,DAFINA,TREASURE,,,,,,,,,,,,,,,,,,,,,,,,,,,,,,,,,,,,,,,,,,,,,,,,,,,,,,,,,,,,,,,,,,,,,,,,,,,,,,,,,,,,,,,,,,,,,
,,,,,,,,,,00001579078,2020-10-23_20h26.35.788,swahili,2020.2.4,MacIntel,60,,,,,,,,,,-0.247764757,-0.028472222,1,0,0,11.983525,unsorted_card,0,0,0,0,1,,,,,,,,,,,,,,,,,,,,,,,,,,,,,,,,,,,,,,,,,,,,,,,,,,,,,,,,,,,,,,,,,,,,,,,,,,,,,,,,,
,,,,,,,,,,00001579078,2020-10-23_20h26.35.788,swahili,2020.2.4,MacIntel,60,,,,,,,,,,0.437304688,0.003958333,1,0,0,5.348165,test_pile,1,0,1,0,1,MERCHANT - TAJIRI,,,,,,,,,,,,,,,,,,,,,,,,,,,,,,,,,,,,,,,,,,,,,,,,,,,,,,,,,,,,,,,,,,,,,,,,,,,,,,,,
,,,,,,,,,,00001579078,2020-10-23_20h26.35.788,swahili,2020.2.4,MacIntel,60,,,,,,,,,,-0.224994575,-0.093229167,1,0,0,0.99629,unsorted_card,2,0,2,0,1,,,,,,,,,,,,,,,,,,,,,,,,,,,,,,,,,,,,,,,,,,,,,,,,,,,,,,,,,,,,,,,,,,,,,,,,,,,,,,,,,
,,,,,,,,,,00001579078,2020-10-23_20h26.35.788,swahili,2020.2.4,MacIntel,60,,,,,,,,,,0.360259332,0.074704861,1,0,0,4.462285,test_pile,3,0,3,0,1,PARROT - KASUKU,,,,,,,,,,,,,,,,,,,,,,,,,,,,,,,,,,,,,,,,,,,,,,,,,,,,,,,,,,,,,,,,,,,,,,,,,,,,,,,,
,,,,,,,,,,00001579078,2020-10-23_20h26.35.788,swahili,2020.2.4,MacIntel,60,,,,,,,,,,-0.250472005,0.028246528,1,0,0,0.748855,unsorted_card,4,0,4,0,1,,,,,,,,,,,,,,,,,,,,,,,,,,,,,,,,,,,,,,,,,,,,,,,,,,,,,,,,,,,,,,,,,,,,,,,,,,,,,,,,,
,,,,,,,,,,00001579078,2020-10-23_20h26.35.788,swahili,2020.2.4,MacIntel,60,,,,,,,,,,0.418489583,-0.003489583,1,0,0,4.196140001,test_pile,5,0,5,0,1,BULL - FAHILI,,,,,,,,,,,,,,,,,,,,,,,,,,,,,,,,,,,,,,,,,,,,,,,,,,,,,,,,,,,,,,,,,,,,,,,,,,,,,,,,
,,,,,,,,,,00001579078,2020-10-23_20h26.35.788,swahili,2020.2.4,MacIntel,60,,,,,,,,,,-0.379150391,-0.086137153,1,0,0,1.19941,unsorted_card,6,0,6,0,1,,,,,,,,,,,,,,,,,,,,,,,,,,,,,,,,,,,,,,,,,,,,,,,,,,,,,,,,,,,,,,,,,,,,,,,,,,,,,,,,,
,,,,,,,,,,00001579078,2020-10-23_20h26.35.788,swahili,2020.2.4,MacIntel,60,,,,,,,,,,0.441449653,-0.065138889,1,0,0,1.76342,test_pile,7,0,7,0,1,PLATE - SAHANI,,,,,,,,,,,,,,,,,,,,,,,,,,,,,,,,,,,,,,,,,,,,,,,,,,,,,,,,,,,,,,,,,,,,,,,,,,,,,,,,
,,,,,,,,,,00001579078,2020-10-23_20h26.35.788,swahili,2020.2.4,MacIntel,60,,,,,,,,,,-0.330430773,0.006006944,1,0,0,0.80062,unsorted_card,8,0,8,0,1,,,,,,,,,,,,,,,,,,,,,,,,,,,,,,,,,,,,,,,,,,,,,,,,,,,,,,,,,,,,,,,,,,,,,,,,,,,,,,,,,
,,,,,,,,,,00001579078,2020-10-23_20h26.35.788,swahili,2020.2.4,MacIntel,60,,,,,,,,,,0.504296875,0.058489583,1,0,0,1.53678,test_pile,9,0,9,0,1,YEAST - HAMIRA,,,,,,,,,,,,,,,,,,,,,,,,,,,,,,,,,,,,,,,,,,,,,,,,,,,,,,,,,,,,,,,,,,,,,,,,,,,,,,,,
,,,,,,,,,,00001579078,2020-10-23_20h26.35.788,swahili,2020.2.4,MacIntel,60,,,,,,,,,,-0.377061632,0.054661458,1,0,0,0.624515001,unsorted_card,10,0,10,0,1,,,,,,,,,,,,,,,,,,,,,,,,,,,,,,,,,,,,,,,,,,,,,,,,,,,,,,,,,,,,,,,,,,,,,,,,,,,,,,,,,
,,,,,,,,,,00001579078,2020-10-23_20h26.35.788,swahili,2020.2.4,MacIntel,60,,,,,,,,,,0.473253038,-0.045807292,1,0,0,1.73094,test_pile,11,0,11,0,1,BLAME - LAWAMA,,,,,,,,,,,,,,,,,,,,,,,,,,,,,,,,,,,,,,,,,,,,,,,,,,,,,,,,,,,,,,,,,,,,,,,,,,,,,,,,
,,,,,,,,,,00001579078,2020-10-23_20h26.35.788,swahili,2020.2.4,MacIntel,60,,,,,,,,,,-0.330023872,-0.129583333,1,0,0,1.18405,unsorted_card,12,0,12,0,1,,,,,,,,,,,,,,,,,,,,,,,,,,,,,,,,,,,,,,,,,,,,,,,,,,,,,,,,,,,,,,,,,,,,,,,,,,,,,,,,,
,,,,,,,,,,00001579078,2020-10-23_20h26.35.788,swahili,2020.2.4,MacIntel,60,,,,,,,,,,0.467192925,-0.003854167,1,0,0,1.296825,test_pile,13,0,13,0,1,OATH - YAMINI,,,,,,,,,,,,,,,,,,,,,,,,,,,,,,,,,,,,,,,,,,,,,,,,,,,,,,,,,,,,,,,,,,,,,,,,,,,,,,,,
,,,,,,,,,,00001579078,2020-10-23_20h26.35.788,swahili,2020.2.4,MacIntel,60,,,,,,,,,,-0.234331597,-0.016770833,1,0,0,0.601575,unsorted_card,14,0,14,0,1,,,,,,,,,,,,,,,,,,,,,,,,,,,,,,,,,,,,,,,,,,,,,,,,,,,,,,,,,,,,,,,,,,,,,,,,,,,,,,,,,
,,,,,,,,,,00001579078,2020-10-23_20h26.35.788,swahili,2020.2.4,MacIntel,60,,,,,,,,,,0.59883355,-0.024027778,1,0,0,1.194634999,test_pile,15,0,15,0,1,CORN - NAFAKA,,,,,,,,,,,,,,,,,,,,,,,,,,,,,,,,,,,,,,,,,,,,,,,,,,,,,,,,,,,,,,,,,,,,,,,,,,,,,,,,
,,,,,,,,,,00001579078,2020-10-23_20h26.35.788,swahili,2020.2.4,MacIntel,60,,,,,,,,,,-0.15609809,0.000677083,1,0,0,1.612845,unsorted_card,16,0,16,0,1,,,,,,,,,,,,,,,,,,,,,,,,,,,,,,,,,,,,,,,,,,,,,,,,,,,,,,,,,,,,,,,,,,,,,,,,,,,,,,,,,
,,,,,,,,,,00001579078,2020-10-23_20h26.35.788,swahili,2020.2.4,MacIntel,60,,,,,,,,,,0.454595269,-0.101119792,1,0,0,2.914155,test_pile,17,0,17,0,1,POEM - UTENZI,,,,,,,,,,,,,,,,,,,,,,,,,,,,,,,,,,,,,,,,,,,,,,,,,,,,,,,,,,,,,,,,,,,,,,,,,,,,,,,,
,,,,,,,,,,00001579078,2020-10-23_20h26.35.788,swahili,2020.2.4,MacIntel,60,,,,,,,,,,-0.400509983,-0.036710069,1,0,0,0.699545,unsorted_card,18,0,18,0,1,,,,,,,,,,,,,,,,,,,,,,,,,,,,,,,,,,,,,,,,,,,,,,,,,,,,,,,,,,,,,,,,,,,,,,,,,,,,,,,,,
,,,,,,,,,,00001579078,2020-10-23_20h26.35.788,swahili,2020.2.4,MacIntel,60,,,,,,,,,,0.478417969,0.0075,1,0,0,1.515665,test_pile,19,0,19,0,1,TAILOR - MSHONI,,,,,,,,,,,,,,,,,,,,,,,,,,,,,,,,,,,,,,,,,,,,,,,,,,,,,,,,,,,,,,,,,,,,,,,,,,,,,,,,
,,,,,,,,,,00001579078,2020-10-23_20h26.35.788,swahili,2020.2.4,MacIntel,60,,,,,,,,,,-0.340863715,0.021397569,1,0,0,0.7321,unsorted_card,20,0,20,0,1,,,,,,,,,,,,,,,,,,,,,,,,,,,,,,,,,,,,,,,,,,,,,,,,,,,,,,,,,,,,,,,,,,,,,,,,,,,,,,,,,
,,,,,,,,,,00001579078,2020-10-23_20h26.35.788,swahili,2020.2.4,MacIntel,60,,,,,,,,,,0.550206163,-0.010243056,1,0,0,1.112939999,test_pile,21,0,21,0,1,CHEESE - JIBINI,,,,,,,,,,,,,,,,,,,,,,,,,,,,,,,,,,,,,,,,,,,,,,,,,,,,,,,,,,,,,,,,,,,,,,,,,,,,,,,,
,,,,,,,,,,00001579078,2020-10-23_20h26.35.788,swahili,2020.2.4,MacIntel,60,,,,,,,,,,-0.426996528,0.131935764,1,0,0,0.68257,unsorted_card,22,0,22,0,1,,,,,,,,,,,,,,,,,,,,,,,,,,,,,,,,,,,,,,,,,,,,,,,,,,,,,,,,,,,,,,,,,,,,,,,,,,,,,,,,,
,,,,,,,,,,00001579078,2020-10-23_20h26.35.788,swahili,2020.2.4,MacIntel,60,,,,,,,,,,0.445138889,0.071848958,1,0,0,1.91392,test_pile,23,0,23,0,1,GRAPES - ZABIBU,,,,,,,,,,,,,,,,,,,,,,,,,,,,,,,,,,,,,,,,,,,,,,,,,,,,,,,,,,,,,,,,,,,,,,,,,,,,,,,,
,,,,,,,,,,00001579078,2020-10-23_20h26.35.788,swahili,2020.2.4,MacIntel,60,,,,,,,,,,-0.325504557,-0.071588542,1,0,0,0.782620001,unsorted_card,24,0,24,0,1,,,,,,,,,,,,,,,,,,,,,,,,,,,,,,,,,,,,,,,,,,,,,,,,,,,,,,,,,,,,,,,,,,,,,,,,,,,,,,,,,
,,,,,,,,,,00001579078,2020-10-23_20h26.35.788,swahili,2020.2.4,MacIntel,60,,,,,,,,,,0.500721571,0.037291667,1,0,0,1.362925,test_pile,25,0,25,0,1,GRAVE - KABURI,,,,,,,,,,,,,,,,,,,,,,,,,,,,,,,,,,,,,,,,,,,,,,,,,,,,,,,,,,,,,,,,,,,,,,,,,,,,,,,,
,,,,,,,,,,00001579078,2020-10-23_20h26.35.788,swahili,2020.2.4,MacIntel,60,,,,,,,,,,-0.263167318,-0.146215278,1,0,0,0.88351,unsorted_card,26,0,26,0,1,,,,,,,,,,,,,,,,,,,,,,,,,,,,,,,,,,,,,,,,,,,,,,,,,,,,,,,,,,,,,,,,,,,,,,,,,,,,,,,,,
,,,,,,,,,,00001579078,2020-10-23_20h26.35.788,swahili,2020.2.4,MacIntel,60,,,,,,,,,,0.490532769,0.037595486,1,0,0,1.98331,test_pile,27,0,27,0,1,MANURE - SAMADI,,,,,,,,,,,,,,,,,,,,,,,,,,,,,,,,,,,,,,,,,,,,,,,,,,,,,,,,,,,,,,,,,,,,,,,,,,,,,,,,
,,,,,,,,,,00001579078,2020-10-23_20h26.35.788,swahili,2020.2.4,MacIntel,60,,,,,,,,,,-0.434819878,0.037387153,1,0,0,0.68346,unsorted_card,28,0,28,0,1,,,,,,,,,,,,,,,,,,,,,,,,,,,,,,,,,,,,,,,,,,,,,,,,,,,,,,,,,,,,,,,,,,,,,,,,,,,,,,,,,
,,,,,,,,,,00001579078,2020-10-23_20h26.35.788,swahili,2020.2.4,MacIntel,60,,,,,,,,,,0.492697483,0.058645833,1,0,0,1.395930001,test_pile,29,0,29,0,1,AGENT - WAKILI,,,,,,,,,,,,,,,,,,,,,,,,,,,,,,,,,,,,,,,,,,,,,,,,,,,,,,,,,,,,,,,,,,,,,,,,,,,,,,,,
,,,,,,,,,,00001579078,2020-10-23_20h26.35.788,swahili,2020.2.4,MacIntel,60,,,,,,,,,,-0.293717448,0.023342014,1,0,0,0.667374999,unsorted_card,30,0,30,0,1,,,,,,,,,,,,,,,,,,,,,,,,,,,,,,,,,,,,,,,,,,,,,,,,,,,,,,,,,,,,,,,,,,,,,,,,,,,,,,,,,
,,,,,,,,,,00001579078,2020-10-23_20h26.35.788,swahili,2020.2.4,MacIntel,60,,,,,,,,,,0.416460503,-0.013576389,1,0,0,1.697285,test_pile,31,0,31,0,1,BRIBE - RUSHWA,,,,,,,,,,,,,,,,,,,,,,,,,,,,,,,,,,,,,,,,,,,,,,,,,,,,,,,,,,,,,,,,,,,,,,,,,,,,,,,,
,,,,,,,,,,00001579078,2020-10-23_20h26.35.788,swahili,2020.2.4,MacIntel,60,,,,,,,,,,-0.458832465,-0.105078125,1,0,0,0.64484,unsorted_card,32,0,32,0,1,,,,,,,,,,,,,,,,,,,,,,,,,,,,,,,,,,,,,,,,,,,,,,,,,,,,,,,,,,,,,,,,,,,,,,,,,,,,,,,,,
,,,,,,,,,,00001579078,2020-10-23_20h26.35.788,swahili,2020.2.4,MacIntel,60,,,,,,,,,,0.401763238,-0.056484375,1,0,0,1.184435,test_pile,33,0,33,0,1,ORPHAN - YATIMA,,,,,,,,,,,,,,,,,,,,,,,,,,,,,,,,,,,,,,,,,,,,,,,,,,,,,,,,,,,,,,,,,,,,,,,,,,,,,,,,
,,,,,,,,,,00001579078,2020-10-23_20h26.35.788,swahili,2020.2.4,MacIntel,60,,,,,,,,,,-0.380571832,0.063845486,1,0,0,0.79784,unsorted_card,34,0,34,0,1,,,,,,,,,,,,,,,,,,,,,,,,,,,,,,,,,,,,,,,,,,,,,,,,,,,,,,,,,,,,,,,,,,,,,,,,,,,,,,,,,
,,,,,,,,,,00001579078,2020-10-23_20h26.35.788,swahili,2020.2.4,MacIntel,60,,,,,,,,,,0.430577257,0.049479167,1,0,0,1.24564,test_pile,35,0,35,0,1,DIVORCE - TALAKA,,,,,,,,,,,,,,,,,,,,,,,,,,,,,,,,,,,,,,,,,,,,,,,,,,,,,,,,,,,,,,,,,,,,,,,,,,,,,,,,
,,,,,,,,,,00001579078,2020-10-23_20h26.35.788,swahili,2020.2.4,MacIntel,60,,,,,,,,,,-0.372444661,0.080355903,1,0,0,0.83252,unsorted_card,36,0,36,0,1,,,,,,,,,,,,,,,,,,,,,,,,,,,,,,,,,,,,,,,,,,,,,,,,,,,,,,,,,,,,,,,,,,,,,,,,,,,,,,,,,
,,,,,,,,,,00001579078,2020-10-23_20h26.35.788,swahili,2020.2.4,MacIntel,60,,,,,,,,,,0.518581814,0.053585069,1,0,0,1.115590001,test_pile,37,0,37,0,1,BOAT - MASHUA,,,,,,,,,,,,,,,,,,,,,,,,,,,,,,,,,,,,,,,,,,,,,,,,,,,,,,,,,,,,,,,,,,,,,,,,,,,,,,,,
,,,,,,,,,,00001579078,2020-10-23_20h26.35.788,swahili,2020.2.4,MacIntel,60,,,,,,,,,,-0.464230686,-0.076848958,1,0,0,0.833535,unsorted_card,38,0,38,0,1,,,,,,,,,,,,,,,,,,,,,,,,,,,,,,,,,,,,,,,,,,,,,,,,,,,,,,,,,,,,,,,,,,,,,,,,,,,,,,,,,
,,,,,,,,,,00001579078,2020-10-23_20h26.35.788,swahili,2020.2.4,MacIntel,60,,,,,,,,,,0.476741536,0.037170139,1,0,0,1.162495,test_pile,39,0,39,0,1,TREASURE - DAFINA,,,,,,,,,,,,,,,,,,,,,,,,,,,,,,,,,,,,,,,,,,,,,,,,,,,,,,,,,,,,,,,,,,,,,,,,,,,,,,,,
,,,,,,,,,,00001579078,2020-10-23_20h26.35.788,swahili,2020.2.4,MacIntel,60,,,,,,,,,,,,,,,,,,,,,,,,,,,,,,,,0,0,0,0,1,,,,,,,,,,,,,,,,,,,,,,,,,,,,,,,,,,,,,,,,,,,,,,,,,,,,,,,,,,,,,,,,,,
,,,,,,,,,,00001579078,2020-10-23_20h26.35.788,swahili,2020.2.4,MacIntel,60,,,,,,,,,,,,,,,,,,,,,,,,,,,,,,,,,,,,,return,4.86438,16.014185,0.377804905,-0.080451389,1,0,0,1.931235,yes,TREASURE,MALIKI,incorrect,0,0,0,0,1,,,,,,,,,,,,,,,,,,,,,,,,,,,,,,,,,,,,,,,,,,,,,,,,
,,,,,,,,,,00001579078,2020-10-23_20h26.35.788,swahili,2020.2.4,MacIntel,60,,,,,,,,,,,,,,,,,,,,,,,,,,,,,,,,,,,,,,,6.99645,0.345681424,-0.146710069,1,0,0,0.952565,yes,YEAST,BASHUMA,incorrect,1,0,1,0,1,,,,,,,,,,,,,,,,,,,,,,,,,,,,,,,,,,,,,,,,,,,,,,,,
,,,,,,,,,,00001579078,2020-10-23_20h26.35.788,swahili,2020.2.4,MacIntel,60,,,,,,,,,,,,,,,,,,,,,,,,,,,,,,,,,,,,,,,9.84852,0.436219618,-0.116293403,1,0,0,1.068179999,yes,CHEESE,TALAKA,incorrect,2,0,2,0,1,,,,,,,,,,,,,,,,,,,,,,,,,,,,,,,,,,,,,,,,,,,,,,,,
,,,,,,,,,,00001579078,2020-10-23_20h26.35.788,swahili,2020.2.4,MacIntel,60,,,,,,,,,,,,,,,,,,,,,,,,,,,,,,,,,,,,,,,2.9843,0.436219618,-0.116293403,1,0,0,0.60626,yes,TAILOR,TALAKA,incorrect,3,0,3,0,1,,,,,,,,,,,,,,,,,,,,,,,,,,,,,,,,,,,,,,,,,,,,,,,,
,,,,,,,,,,00001579078,2020-10-23_20h26.35.788,swahili,2020.2.4,MacIntel,60,,,,,,,,,,,,,,,,,,,,,,,,,,,,,,,,,,,,,,,6.629995,0.3921875,0.065833333,1,0,0,0.89874,yes,OATH,NAFAKA,incorrect,4,0,4,0,1,,,,,,,,,,,,,,,,,,,,,,,,,,,,,,,,,,,,,,,,,,,,,,,,
,,,,,,,,,,00001579078,2020-10-23_20h26.35.788,swahili,2020.2.4,MacIntel,60,,,,,,,,,,,,,,,,,,,,,,,,,,,,,,,,,,,,,,,11.349805,0.449327257,-0.146206597,1,0,0,0.985309999,yes,GRAPES,F,incorrect,5,0,5,0,1,,,,,,,,,,,,,,,,,,,,,,,,,,,,,,,,,,,,,,,,,,,,,,,,
,,,,,,,,,,00001579078,2020-10-23_20h26.35.788,swahili,2020.2.4,MacIntel,60,,,,,,,,,,,,,,,,,,,,,,,,,,,,,,,,,,,,,,,4.413195,0.329182943,-0.128307292,1,0,0,0.90102,yes,MERCHANT,NAFAKA,incorrect,6,0,6,0,1,,,,,,,,,,,,,,,,,,,,,,,,,,,,,,,,,,,,,,,,,,,,,,,,
,,,,,,,,,,00001579078,2020-10-23_20h26.35.788,swahili,2020.2.4,MacIntel,60,,,,,,,,,,,,,,,,,,,,,,,,,,,,,,,,,,,,,,,2.161929999,0.378423394,-0.085980903,1,0,0,0.834145,yes,AGENT,FADA,incorrect,7,0,7,0,1,,,,,,,,,,,,,,,,,,,,,,,,,,,,,,,,,,,,,,,,,,,,,,,,
,,,,,,,,,,00001579078,2020-10-23_20h26.35.788,swahili,2020.2.4,MacIntel,60,,,,,,,,,,,,,,,,,,,,,,,,,,,,,,,,,,,,,,,5.994384999,0.421554905,0.006076389,1,0,0,0.867125,yes,GRAVE,ZABIBU,incorrect,8,0,8,0,1,,,,,,,,,,,,,,,,,,,,,,,,,,,,,,,,,,,,,,,,,,,,,,,,
,,,,,,,,,,00001579078,2020-10-23_20h26.35.788,swahili,2020.2.4,MacIntel,60,,,,,,,,,,,,,,,,,,,,,,,,,,,,,,,,,,,,,,,6.179265,0.401269531,-0.076527778,1,0,0,0.8334,yes,DIVORCE,SPILAKI,incorrect,9,0,9,0,1,,,,,,,,,,,,,,,,,,,,,,,,,,,,,,,,,,,,,,,,,,,,,,,,
,,,,,,,,,,00001579078,2020-10-23_20h26.35.788,swahili,2020.2.4,MacIntel,60,,,,,,,,,,,,,,,,,,,,,,,,,,,,,,,,,,,,,,,3.894975,0.423746745,0.009479167,1,0,0,0.769985,yes,CORN,NAFAKA,incorrect,10,0,10,0,1,,,,,,,,,,,,,,,,,,,,,,,,,,,,,,,,,,,,,,,,,,,,,,,,
,,,,,,,,,,00001579078,2020-10-23_20h26.35.788,swahili,2020.2.4,MacIntel,60,,,,,,,,,,,,,,,,,,,,,,,,,,,,,,,,,,,,,,,6.60007,0.368370226,-0.051501736,1,0,0,0.79817,yes,BOAT,USHEBU,incorrect,11,0,11,0,1,,,,,,,,,,,,,,,,,,,,,,,,,,,,,,,,,,,,,,,,,,,,,,,,
,,,,,,,,,,00001579078,2020-10-23_20h26.35.788,swahili,2020.2.4,MacIntel,60,,,,,,,,,,,,,,,,,,,,,,,,,,,,,,,,,,,,,,,16.84622,0.50530599,0.050399306,1,0,0,0.919565001,yes,BRIBE,TAKAK,incorrect,12,0,12,0,1,,,,,,,,,,,,,,,,,,,,,,,,,,,,,,,,,,,,,,,,,,,,,,,,
,,,,,,,,,,00001579078,2020-10-23_20h26.35.788,swahili,2020.2.4,MacIntel,60,,,,,,,,,,,,,,,,,,,,,,,,,,,,,,,,,,,,,,,10.382515,0.347873264,-0.109982639,1,0,0,0.91352,yes,ORPHAN,HFA,incorrect,13,0,13,0,1,,,,,,,,,,,,,,,,,,,,,,,,,,,,,,,,,,,,,,,,,,,,,,,,
,,,,,,,,,,00001579078,2020-10-23_20h26.35.788,swahili,2020.2.4,MacIntel,60,,,,,,,,,,,,,,,,,,,,,,,,,,,,,,,,,,,,,,,33.627705,0.415304905,0.030503472,1,0,0,0.982905,yes,BULL,KATIKA,incorrect,14,0,14,0,1,,,,,,,,,,,,,,,,,,,,,,,,,,,,,,,,,,,,,,,,,,,,,,,,
,,,,,,,,,,00001579078,2020-10-23_20h26.35.788,swahili,2020.2.4,MacIntel,60,,,,,,,,,,,,,,,,,,,,,,,,,,,,,,,,,,,,,,,9.99901,0.356586372,-0.090338542,1,0,0,0.96865,yes,POEM,MASHUA,incorrect,15,0,15,0,1,,,,,,,,,,,,,,,,,,,,,,,,,,,,,,,,,,,,,,,,,,,,,,,,
,,,,,,,,,,00001579078,2020-10-23_20h26.35.788,swahili,2020.2.4,MacIntel,60,,,,,,,,,,,,,,,,,,,,,,,,,,,,,,,,,,,,,,,4.86791,0.37983941,-0.079791667,1,0,0,0.748234999,yes,MANURE,MATIKA,incorrect,16,0,16,0,1,,,,,,,,,,,,,,,,,,,,,,,,,,,,,,,,,,,,,,,,,,,,,,,,
,,,,,,,,,,00001579078,2020-10-23_20h26.35.788,swahili,2020.2.4,MacIntel,60,,,,,,,,,,,,,,,,,,,,,,,,,,,,,,,,,,,,,,,3.580250001,0.388883464,-0.067126736,1,0,0,0.765865,yes,PARROT,TALIKA,incorrect,17,0,17,0,1,,,,,,,,,,,,,,,,,,,,,,,,,,,,,,,,,,,,,,,,,,,,,,,,
,,,,,,,,,,00001579078,2020-10-23_20h26.35.788,swahili,2020.2.4,MacIntel,60,,,,,,,,,,,,,,,,,,,,,,,,,,,,,,,,,,,,,,,5.063855,0.348942057,-0.063715278,1,0,0,0.77017,yes,PLATE,TALIKA,incorrect,18,0,18,0,1,,,,,,,,,,,,,,,,,,,,,,,,,,,,,,,,,,,,,,,,,,,,,,,,
,,,,,,,,,,00001579078,2020-10-23_20h26.35.788,swahili,2020.2.4,MacIntel,60,,,,,,,,,,,,,,,,,,,,,,,,,,,,,,,,,,,,,,,8.528434999,0.373074002,-0.098619792,1,0,0,0.82112,yes,BLAME,IDK,incorrect,19,0,19,0,1,,,,,,,,,,,,,,,,,,,,,,,,,,,,,,,,,,,,,,,,,,,,,,,,
,,,,,,,,,,00001579078,2020-10-23_20h26.35.788,swahili,2020.2.4,MacIntel,60,,,,,,,,,,,,,,,,,,,,,,,,,,,,,,,,,,,,,,,,,,,,,,,,,,,,,,,0,0,0,0,1,,,,,,,,,,,,,,,,,,,,,,,,,,,,,,,,,,,,,,,,,,,
,,,,,,,,,,00001579078,2020-10-23_20h26.35.788,swahili,2020.2.4,MacIntel,60,,,,,,,,,,,,,,,,,,,,,,,,,,,,,,,,,,,,,,,,,,,,,,,,,,,,,,,1,0,1,0,1,,,,,,,,,,,,,,,,,,,,,,,,,,,,,,,,,,,,,,,,,,,
,,,,,,,,,,00001579078,2020-10-23_20h26.35.788,swahili,2020.2.4,MacIntel,60,,,,,,,,,,,,,,,,,,,,,,,,,,,,,,,,,,,,,,,,,,,,,,,,,,,,,,,,,,,,0,0,0,0,1,,,,,,,,,,,,,,,,,,,,,,,,,,,,,,,,,,,,,,
,,,,,,,,,,00001579078,2020-10-23_20h26.35.788,swahili,2020.2.4,MacIntel,60,,,,,,,,,,0.25078125,-0.171440972,1,0,0,0.079005,unsorted_card,0,0,0,0,1,,,,,,,,,,,,,,,,,,,,,,,,,,,,,,,,,,,,,,,,,,,,,,,,,,,,,,,,,,,,,,,,,,,,,,,,,,,,,,,,,
,,,,,,,,,,00001579078,2020-10-23_20h26.35.788,swahili,2020.2.4,MacIntel,60,,,,,,,,,,0.422460938,0.543836806,1,0,0,1.88291,study_pile,1,0,1,0,1,MERCHANT - TAJIRI,,,,,,,,,,,,,,,,,,,,,,,,,,,,,,,,,,,,,,,,,,,,,,,,,,,,,,,,,,,,,,,,,,,,,,,,,,,,,,,,
,,,,,,,,,,00001579078,2020-10-23_20h26.35.788,swahili,2020.2.4,MacIntel,60,,,,,,,,,,-0.157204861,0.013133681,1,0,0,1.430695,unsorted_card,2,0,2,0,1,,,,,,,,,,,,,,,,,,,,,,,,,,,,,,,,,,,,,,,,,,,,,,,,,,,,,,,,,,,,,,,,,,,,,,,,,,,,,,,,,
,,,,,,,,,,00001579078,2020-10-23_20h26.35.788,swahili,2020.2.4,MacIntel,60,,,,,,,,,,0.399007161,0.546779514,1,0,0,1.46903,study_pile,3,0,3,0,1,PARROT - KASUKU,,,,,,,,,,,,,,,,,,,,,,,,,,,,,,,,,,,,,,,,,,,,,,,,,,,,,,,,,,,,,,,,,,,,,,,,,,,,,,,,
,,,,,,,,,,00001579078,2020-10-23_20h26.35.788,swahili,2020.2.4,MacIntel,60,,,,,,,,,,-0.328483073,-0.026354167,1,0,0,0.712105,unsorted_card,4,0,4,0,1,,,,,,,,,,,,,,,,,,,,,,,,,,,,,,,,,,,,,,,,,,,,,,,,,,,,,,,,,,,,,,,,,,,,,,,,,,,,,,,,,
,,,,,,,,,,00001579078,2020-10-23_20h26.35.788,swahili,2020.2.4,MacIntel,60,,,,,,,,,,0.451383464,0.499861111,1,0,0,1.44908,study_pile,5,0,5,0,1,BULL - FAHILI,,,,,,,,,,,,,,,,,,,,,,,,,,,,,,,,,,,,,,,,,,,,,,,,,,,,,,,,,,,,,,,,,,,,,,,,,,,,,,,,
,,,,,,,,,,00001579078,2020-10-23_20h26.35.788,swahili,2020.2.4,MacIntel,60,,,,,,,,,,-0.260416667,-0.0271875,1,0,0,0.78166,unsorted_card,6,0,6,0,1,,,,,,,,,,,,,,,,,,,,,,,,,,,,,,,,,,,,,,,,,,,,,,,,,,,,,,,,,,,,,,,,,,,,,,,,,,,,,,,,,
,,,,,,,,,,00001579078,2020-10-23_20h26.35.788,swahili,2020.2.4,MacIntel,60,,,,,,,,,,0.379801432,0.482994792,1,0,0,1.56565,study_pile,7,0,7,0,1,PLATE - SAHANI,,,,,,,,,,,,,,,,,,,,,,,,,,,,,,,,,,,,,,,,,,,,,,,,,,,,,,,,,,,,,,,,,,,,,,,,,,,,,,,,
,,,,,,,,,,00001579078,2020-10-23_20h26.35.788,swahili,2020.2.4,MacIntel,60,,,,,,,,,,-0.357850477,-0.039019097,1,0,0,1.5286,unsorted_card,8,0,8,0,1,,,,,,,,,,,,,,,,,,,,,,,,,,,,,,,,,,,,,,,,,,,,,,,,,,,,,,,,,,,,,,,,,,,,,,,,,,,,,,,,,
,,,,,,,,,,00001579078,2020-10-23_20h26.35.788,swahili,2020.2.4,MacIntel,60,,,,,,,,,,0.440163845,0.475182292,1,0,0,1.7149,study_pile,9,0,9,0,1,YEAST - HAMIRA,,,,,,,,,,,,,,,,,,,,,,,,,,,,,,,,,,,,,,,,,,,,,,,,,,,,,,,,,,,,,,,,,,,,,,,,,,,,,,,,
,,,,,,,,,,00001579078,2020-10-23_20h26.35.788,swahili,2020.2.4,MacIntel,60,,,,,,,,,,-0.398757595,-0.015894097,1,0,0,0.633995,unsorted_card,10,0,10,0,1,,,,,,,,,,,,,,,,,,,,,,,,,,,,,,,,,,,,,,,,,,,,,,,,,,,,,,,,,,,,,,,,,,,,,,,,,,,,,,,,,
,,,,,,,,,,00001579078,2020-10-23_20h26.35.788,swahili,2020.2.4,MacIntel,60,,,,,,,,,,0.41906467,0.359131944,1,0,0,1.38233,study_pile,11,0,11,0,1,BLAME - LAWAMA,,,,,,,,,,,,,,,,,,,,,,,,,,,,,,,,,,,,,,,,,,,,,,,,,,,,,,,,,,,,,,,,,,,,,,,,,,,,,,,,
,,,,,,,,,,00001579078,2020-10-23_20h26.35.788,swahili,2020.2.4,MacIntel,60,,,,,,,,,,-0.307177734,-0.146154514,1,0,0,0.679825,unsorted_card,12,0,12,0,1,,,,,,,,,,,,,,,,,,,,,,,,,,,,,,,,,,,,,,,,,,,,,,,,,,,,,,,,,,,,,,,,,,,,,,,,,,,,,,,,,
,,,,,,,,,,00001579078,2020-10-23_20h26.35.788,swahili,2020.2.4,MacIntel,60,,,,,,,,,,0.347824436,0.482465278,1,0,0,1.067535,study_pile,13,0,13,0,1,OATH - YAMINI,,,,,,,,,,,,,,,,,,,,,,,,,,,,,,,,,,,,,,,,,,,,,,,,,,,,,,,,,,,,,,,,,,,,,,,,,,,,,,,,
,,,,,,,,,,00001579078,2020-10-23_20h26.35.788,swahili,2020.2.4,MacIntel,60,,,,,,,,,,-0.275678168,-0.105347222,1,0,0,0.680925,unsorted_card,14,0,14,0,1,,,,,,,,,,,,,,,,,,,,,,,,,,,,,,,,,,,,,,,,,,,,,,,,,,,,,,,,,,,,,,,,,,,,,,,,,,,,,,,,,
,,,,,,,,,,00001579078,2020-10-23_20h26.35.788,swahili,2020.2.4,MacIntel,60,,,,,,,,,,0.406206597,0.535060764,1,0,0,1.44859,study_pile,15,0,15,0,1,CORN - NAFAKA,,,,,,,,,,,,,,,,,,,,,,,,,,,,,,,,,,,,,,,,,,,,,,,,,,,,,,,,,,,,,,,,,,,,,,,,,,,,,,,,
,,,,,,,,,,00001579078,2020-10-23_20h26.35.788,swahili,2020.2.4,MacIntel,60,,,,,,,,,,-0.223155382,0.130269097,1,0,0,1.79504,unsorted_card,16,0,16,0,1,,,,,,,,,,,,,,,,,,,,,,,,,,,,,,,,,,,,,,,,,,,,,,,,,,,,,,,,,,,,,,,,,,,,,,,,,,,,,,,,,
,,,,,,,,,,00001579078,2020-10-23_20h26.35.788,swahili,2020.2.4,MacIntel,60,,,,,,,,,,0.359038628,0.495347222,1,0,0,1.467575,study_pile,17,0,17,0,1,POEM - UTENZI,,,,,,,,,,,,,,,,,,,,,,,,,,,,,,,,,,,,,,,,,,,,,,,,,,,,,,,,,,,,,,,,,,,,,,,,,,,,,,,,
,,,,,,,,,,00001579078,2020-10-23_20h26.35.788,swahili,2020.2.4,MacIntel,60,,,,,,,,,,-0.408805339,0.058107639,1,0,0,0.913305,unsorted_card,18,0,18,0,1,,,,,,,,,,,,,,,,,,,,,,,,,,,,,,,,,,,,,,,,,,,,,,,,,,,,,,,,,,,,,,,,,,,,,,,,,,,,,,,,,
,,,,,,,,,,00001579078,2020-10-23_20h26.35.788,swahili,2020.2.4,MacIntel,60,,,,,,,,,,0.404503038,0.471666667,1,0,0,1.53041,study_pile,19,0,19,0,1,TAILOR - MSHONI,,,,,,,,,,,,,,,,,,,,,,,,,,,,,,,,,,,,,,,,,,,,,,,,,,,,,,,,,,,,,,,,,,,,,,,,,,,,,,,,
,,,,,,,,,,00001579078,2020-10-23_20h26.35.788,swahili,2020.2.4,MacIntel,60,,,,,,,,,,-0.461094835,-0.044253472,1,0,0,0.666325,unsorted_card,20,0,20,0,1,,,,,,,,,,,,,,,,,,,,,,,,,,,,,,,,,,,,,,,,,,,,,,,,,,,,,,,,,,,,,,,,,,,,,,,,,,,,,,,,,
,,,,,,,,,,00001579078,2020-10-23_20h26.35.788,swahili,2020.2.4,MacIntel,60,,,,,,,,,,0.46156684,0.539157986,1,0,0,1.48263,study_pile,21,0,21,0,1,CHEESE - JIBINI,,,,,,,,,,,,,,,,,,,,,,,,,,,,,,,,,,,,,,,,,,,,,,,,,,,,,,,,,,,,,,,,,,,,,,,,,,,,,,,,
,,,,,,,,,,00001579078,2020-10-23_20h26.35.788,swahili,2020.2.4,MacIntel,60,,,,,,,,,,-0.328092448,0.049279514,1,0,0,0.697855,unsorted_card,22,0,22,0,1,,,,,,,,,,,,,,,,,,,,,,,,,,,,,,,,,,,,,,,,,,,,,,,,,,,,,,,,,,,,,,,,,,,,,,,,,,,,,,,,,
,,,,,,,,,,00001579078,2020-10-23_20h26.35.788,swahili,2020.2.4,MacIntel,60,,,,,,,,,,0.497846137,0.557447917,1,0,0,1.78327,study_pile,23,0,23,0,1,GRAPES - ZABIBU,,,,,,,,,,,,,,,,,,,,,,,,,,,,,,,,,,,,,,,,,,,,,,,,,,,,,,,,,,,,,,,,,,,,,,,,,,,,,,,,
,,,,,,,,,,00001579078,2020-10-23_20h26.35.788,swahili,2020.2.4,MacIntel,60,,,,,,,,,,-0.442388238,0.018012153,1,0,0,0.733465,unsorted_card,24,0,24,0,1,,,,,,,,,,,,,,,,,,,,,,,,,,,,,,,,,,,,,,,,,,,,,,,,,,,,,,,,,,,,,,,,,,,,,,,,,,,,,,,,,
,,,,,,,,,,00001579078,2020-10-23_20h26.35.788,swahili,2020.2.4,MacIntel,60,,,,,,,,,,0.590646701,0.380581597,1,0,0,1.348515,study_pile,25,0,25,0,1,GRAVE - KABURI,,,,,,,,,,,,,,,,,,,,,,,,,,,,,,,,,,,,,,,,,,,,,,,,,,,,,,,,,,,,,,,,,,,,,,,,,,,,,,,,
,,,,,,,,,,00001579078,2020-10-23_20h26.35.788,swahili,2020.2.4,MacIntel,60,,,,,,,,,,-0.532291667,-0.006901042,1,0,0,1.78079,unsorted_card,26,0,26,0,1,,,,,,,,,,,,,,,,,,,,,,,,,,,,,,,,,,,,,,,,,,,,,,,,,,,,,,,,,,,,,,,,,,,,,,,,,,,,,,,,,
,,,,,,,,,,00001579078,2020-10-23_20h26.35.788,swahili,2020.2.4,MacIntel,60,,,,,,,,,,0.428228082,0.418289931,1,0,0,1.438125,study_pile,27,0,27,0,1,MANURE - SAMADI,,,,,,,,,,,,,,,,,,,,,,,,,,,,,,,,,,,,,,,,,,,,,,,,,,,,,,,,,,,,,,,,,,,,,,,,,,,,,,,,
,,,,,,,,,,00001579078,2020-10-23_20h26.35.788,swahili,2020.2.4,MacIntel,60,,,,,,,,,,-0.268495009,-0.002864583,1,0,0,0.658419999,unsorted_card,28,0,28,0,1,,,,,,,,,,,,,,,,,,,,,,,,,,,,,,,,,,,,,,,,,,,,,,,,,,,,,,,,,,,,,,,,,,,,,,,,,,,,,,,,,
,,,,,,,,,,00001579078,2020-10-23_20h26.35.788,swahili,2020.2.4,MacIntel,60,,,,,,,,,,0.492692057,0.449227431,1,0,0,0.969555,study_pile,29,0,29,0,1,AGENT - WAKILI,,,,,,,,,,,,,,,,,,,,,,,,,,,,,,,,,,,,,,,,,,,,,,,,,,,,,,,,,,,,,,,,,,,,,,,,,,,,,,,,
,,,,,,,,,,00001579078,2020-10-23_20h26.35.788,swahili,2020.2.4,MacIntel,60,,,,,,,,,,-0.321896701,-0.093428819,1,0,0,0.629465,unsorted_card,30,0,30,0,1,,,,,,,,,,,,,,,,,,,,,,,,,,,,,,,,,,,,,,,,,,,,,,,,,,,,,,,,,,,,,,,,,,,,,,,,,,,,,,,,,
,,,,,,,,,,00001579078,2020-10-23_20h26.35.788,swahili,2020.2.4,MacIntel,60,,,,,,,,,,0.381347656,0.351987847,1,0,0,0.815065,study_pile,31,0,31,0,1,BRIBE - RUSHWA,,,,,,,,,,,,,,,,,,,,,,,,,,,,,,,,,,,,,,,,,,,,,,,,,,,,,,,,,,,,,,,,,,,,,,,,,,,,,,,,
,,,,,,,,,,00001579078,2020-10-23_20h26.35.788,swahili,2020.2.4,MacIntel,60,,,,,,,,,,-0.370090061,-0.175798611,1,0,0,0.731854999,unsorted_card,32,0,32,0,1,,,,,,,,,,,,,,,,,,,,,,,,,,,,,,,,,,,,,,,,,,,,,,,,,,,,,,,,,,,,,,,,,,,,,,,,,,,,,,,,,
,,,,,,,,,,00001579078,2020-10-23_20h26.35.788,swahili,2020.2.4,MacIntel,60,,,,,,,,,,0.336838108,0.429288194,1,0,0,0.835019999,study_pile,33,0,33,0,1,ORPHAN - YATIMA,,,,,,,,,,,,,,,,,,,,,,,,,,,,,,,,,,,,,,,,,,,,,,,,,,,,,,,,,,,,,,,,,,,,,,,,,,,,,,,,
,,,,,,,,,,00001579078,2020-10-23_20h26.35.788,swahili,2020.2.4,MacIntel,60,,,,,,,,,,-0.32358941,0.1553125,1,0,0,0.6438,unsorted_card,34,0,34,0,1,,,,,,,,,,,,,,,,,,,,,,,,,,,,,,,,,,,,,,,,,,,,,,,,,,,,,,,,,,,,,,,,,,,,,,,,,,,,,,,,,
,,,,,,,,,,00001579078,2020-10-23_20h26.35.788,swahili,2020.2.4,MacIntel,60,,,,,,,,,,0.446983507,0.476927083,1,0,0,1.184055,study_pile,35,0,35,0,1,DIVORCE - TALAKA,,,,,,,,,,,,,,,,,,,,,,,,,,,,,,,,,,,,,,,,,,,,,,,,,,,,,,,,,,,,,,,,,,,,,,,,,,,,,,,,
,,,,,,,,,,00001579078,2020-10-23_20h26.35.788,swahili,2020.2.4,MacIntel,60,,,,,,,,,,-0.409592014,-0.034453125,1,0,0,0.88186,unsorted_card,36,0,36,0,1,,,,,,,,,,,,,,,,,,,,,,,,,,,,,,,,,,,,,,,,,,,,,,,,,,,,,,,,,,,,,,,,,,,,,,,,,,,,,,,,,
,,,,,,,,,,00001579078,2020-10-23_20h26.35.788,swahili,2020.2.4,MacIntel,60,,,,,,,,,,0.504644097,0.503576389,1,0,0,0.9966,study_pile,37,0,37,0,1,BOAT - MASHUA,,,,,,,,,,,,,,,,,,,,,,,,,,,,,,,,,,,,,,,,,,,,,,,,,,,,,,,,,,,,,,,,,,,,,,,,,,,,,,,,
,,,,,,,,,,00001579078,2020-10-23_20h26.35.788,swahili,2020.2.4,MacIntel,60,,,,,,,,,,-0.209266493,0.046015625,1,0,0,0.55062,unsorted_card,38,0,38,0,1,,,,,,,,,,,,,,,,,,,,,,,,,,,,,,,,,,,,,,,,,,,,,,,,,,,,,,,,,,,,,,,,,,,,,,,,,,,,,,,,,
,,,,,,,,,,00001579078,2020-10-23_20h26.35.788,swahili,2020.2.4,MacIntel,60,,,,,,,,,,0.535253906,0.516961806,1,0,0,1.05779,study_pile,39,0,39,0,1,TREASURE - DAFINA,,,,,,,,,,,,,,,,,,,,,,,,,,,,,,,,,,,,,,,,,,,,,,,,,,,,,,,,,,,,,,,,,,,,,,,,,,,,,,,,
,,,,,,,,,,00001579078,2020-10-23_20h26.35.788,swahili,2020.2.4,MacIntel,60,,,,,,,,,,,,,,,,,,,,,,TREASURE - DAFINA,,,,,,,,return,return,0,0,0,0,1,,,,,,,,,,,,,,,,,,,,,,,,,,,,,3.180505,3.916085,,,,,,,,,,,,,,,,,,,,,,,,,,,,,,,,,,,,
,,,,,,,,,,00001579078,2020-10-23_20h26.35.788,swahili,2020.2.4,MacIntel,60,,,,,,,,,,,,,,,,,,,,,,TAILOR - MSHONI,,,,,,,,,return,1,0,1,0,1,,,,,,,,,,,,,,,,,,,,,,,,,,,,,,2.101419999,,,,,,,,,,,,,,,,,,,,,,,,,,,,,,,,,,,,
,,,,,,,,,,00001579078,2020-10-23_20h26.35.788,swahili,2020.2.4,MacIntel,60,,,,,,,,,,,,,,,,,,,,,,MANURE - SAMADI,,,,,,,,,return,2,0,2,0,1,,,,,,,,,,,,,,,,,,,,,,,,,,,,,,2.95496,,,,,,,,,,,,,,,,,,,,,,,,,,,,,,,,,,,,
,,,,,,,,,,00001579078,2020-10-23_20h26.35.788,swahili,2020.2.4,MacIntel,60,,,,,,,,,,,,,,,,,,,,,,POEM - UTENZI,,,,,,,,,return,3,0,3,0,1,,,,,,,,,,,,,,,,,,,,,,,,,,,,,,1.21611,,,,,,,,,,,,,,,,,,,,,,,,,,,,,,,,,,,,
,,,,,,,,,,00001579078,2020-10-23_20h26.35.788,swahili,2020.2.4,MacIntel,60,,,,,,,,,,,,,,,,,,,,,,BLAME - LAWAMA,,,,,,,,,return,4,0,4,0,1,,,,,,,,,,,,,,,,,,,,,,,,,,,,,,0.737145,,,,,,,,,,,,,,,,,,,,,,,,,,,,,,,,,,,,
,,,,,,,,,,00001579078,2020-10-23_20h26.35.788,swahili,2020.2.4,MacIntel,60,,,,,,,,,,,,,,,,,,,,,,MERCHANT - TAJIRI,,,,,,,,,return,5,0,5,0,1,,,,,,,,,,,,,,,,,,,,,,,,,,,,,,1.44709,,,,,,,,,,,,,,,,,,,,,,,,,,,,,,,,,,,,
,,,,,,,,,,00001579078,2020-10-23_20h26.35.788,swahili,2020.2.4,MacIntel,60,,,,,,,,,,,,,,,,,,,,,,AGENT - WAKILI,,,,,,,,,return,6,0,6,0,1,,,,,,,,,,,,,,,,,,,,,,,,,,,,,,1.7194,,,,,,,,,,,,,,,,,,,,,,,,,,,,,,,,,,,,
,,,,,,,,,,00001579078,2020-10-23_20h26.35.788,swahili,2020.2.4,MacIntel,60,,,,,,,,,,,,,,,,,,,,,,CORN - NAFAKA,,,,,,,,,return,7,0,7,0,1,,,,,,,,,,,,,,,,,,,,,,,,,,,,,,0.995580001,,,,,,,,,,,,,,,,,,,,,,,,,,,,,,,,,,,,
,,,,,,,,,,00001579078,2020-10-23_20h26.35.788,swahili,2020.2.4,MacIntel,60,,,,,,,,,,,,,,,,,,,,,,ORPHAN - YATIMA,,,,,,,,,return,8,0,8,0,1,,,,,,,,,,,,,,,,,,,,,,,,,,,,,,2.616745,,,,,,,,,,,,,,,,,,,,,,,,,,,,,,,,,,,,
,,,,,,,,,,00001579078,2020-10-23_20h26.35.788,swahili,2020.2.4,MacIntel,60,,,,,,,,,,,,,,,,,,,,,,PARROT - KASUKU,,,,,,,,,return,9,0,9,0,1,,,,,,,,,,,,,,,,,,,,,,,,,,,,,,1.69729,,,,,,,,,,,,,,,,,,,,,,,,,,,,,,,,,,,,
,,,,,,,,,,00001579078,2020-10-23_20h26.35.788,swahili,2020.2.4,MacIntel,60,,,,,,,,,,,,,,,,,,,,,,OATH - YAMINI,,,,,,,,,return,10,0,10,0,1,,,,,,,,,,,,,,,,,,,,,,,,,,,,,,2.535004999,,,,,,,,,,,,,,,,,,,,,,,,,,,,,,,,,,,,
,,,,,,,,,,00001579078,2020-10-23_20h26.35.788,swahili,2020.2.4,MacIntel,60,,,,,,,,,,,,,,,,,,,,,,BULL - FAHILI,,,,,,,,,return,11,0,11,0,1,,,,,,,,,,,,,,,,,,,,,,,,,,,,,,1.61776,,,,,,,,,,,,,,,,,,,,,,,,,,,,,,,,,,,,
,,,,,,,,,,00001579078,2020-10-23_20h26.35.788,swahili,2020.2.4,MacIntel,60,,,,,,,,,,,,,,,,,,,,,,CHEESE - JIBINI,,,,,,,,,return,12,0,12,0,1,,,,,,,,,,,,,,,,,,,,,,,,,,,,,,1.780165,,,,,,,,,,,,,,,,,,,,,,,,,,,,,,,,,,,,
,,,,,,,,,,00001579078,2020-10-23_20h26.35.788,swahili,2020.2.4,MacIntel,60,,,,,,,,,,,,,,,,,,,,,,BRIBE - RUSHWA,,,,,,,,,return,13,0,13,0,1,,,,,,,,,,,,,,,,,,,,,,,,,,,,,,1.56367,,,,,,,,,,,,,,,,,,,,,,,,,,,,,,,,,,,,
,,,,,,,,,,00001579078,2020-10-23_20h26.35.788,swahili,2020.2.4,MacIntel,60,,,,,,,,,,,,,,,,,,,,,,BOAT - MASHUA,,,,,,,,,return,14,0,14,0,1,,,,,,,,,,,,,,,,,,,,,,,,,,,,,,1.442,,,,,,,,,,,,,,,,,,,,,,,,,,,,,,,,,,,,
,,,,,,,,,,00001579078,2020-10-23_20h26.35.788,swahili,2020.2.4,MacIntel,60,,,,,,,,,,,,,,,,,,,,,,GRAPES - ZABIBU,,,,,,,,,return,15,0,15,0,1,,,,,,,,,,,,,,,,,,,,,,,,,,,,,,0.97679,,,,,,,,,,,,,,,,,,,,,,,,,,,,,,,,,,,,
,,,,,,,,,,00001579078,2020-10-23_20h26.35.788,swahili,2020.2.4,MacIntel,60,,,,,,,,,,,,,,,,,,,,,,PLATE - SAHANI,,,,,,,,,return,16,0,16,0,1,,,,,,,,,,,,,,,,,,,,,,,,,,,,,,0.960735,,,,,,,,,,,,,,,,,,,,,,,,,,,,,,,,,,,,
,,,,,,,,,,00001579078,2020-10-23_20h26.35.788,swahili,2020.2.4,MacIntel,60,,,,,,,,,,,,,,,,,,,,,,GRAVE - KABURI,,,,,,,,,return,17,0,17,0,1,,,,,,,,,,,,,,,,,,,,,,,,,,,,,,1.73258,,,,,,,,,,,,,,,,,,,,,,,,,,,,,,,,,,,,
,,,,,,,,,,00001579078,2020-10-23_20h26.35.788,swahili,2020.2.4,MacIntel,60,,,,,,,,,,,,,,,,,,,,,,YEAST - HAMIRA,,,,,,,,,return,18,0,18,0,1,,,,,,,,,,,,,,,,,,,,,,,,,,,,,,0.849965001,,,,,,,,,,,,,,,,,,,,,,,,,,,,,,,,,,,,
,,,,,,,,,,00001579078,2020-10-23_20h26.35.788,swahili,2020.2.4,MacIntel,60,,,,,,,,,,,,,,,,,,,,,,DIVORCE - TALAKA,,,,,,,,,return,19,0,19,0,1,,,,,,,,,,,,,,,,,,,,,,,,,,,,,,0.933355,,,,,,,,,,,,,,,,,,,,,,,,,,,,,,,,,,,,
,,,,,,,,,,00001579078,2020-10-23_20h26.35.788,swahili,2020.2.4,MacIntel,60,,,,,,,,,,,,,,,,,,,,,,,,,,,,,,,,,,,,,,,,,,,,,,,,,,,,,,,0,0,0,0,1,,,,,,,,,,,,,,,,,,,,,,,,,,,,,,,,,,,,,,,,,,,
,,,,,,,,,,00001579078,2020-10-23_20h26.35.788,swahili,2020.2.4,MacIntel,60,,,,,,,,,,,,,,,,,,,,,,,,,,,,,,,,,,,,,,,,,,,,,,,,,,,,,,,1,0,1,0,1,,,,,,,,,,,,,,,,,,,,,,,,,,,,,,,,,,,,,,,,,,,
,,,,,,,,,,00001579078,2020-10-23_20h26.35.788,swahili,2020.2.4,MacIntel,60,,,,,,,,,,,,,,,,,,,,,,,,,,,,,,,,,,,,,,,,,,,,,,,,,,,,,,,,,,,,1,0,1,0,1,,,,,,,,,,,,,,,,,,,,,,,,,,,,,,,,,,,,,,
,,,,,,,,,,00001579078,2020-10-23_20h26.35.788,swahili,2020.2.4,MacIntel,60,,,,,,,,,,-0.343207465,-0.092777778,1,0,0,1.235875,unsorted_card,0,0,0,0,1,,,,,,,,,,,,,,,,,,,,,,,,,,,,,,,,,,,,,,,,,,,,,,,,,,,,,,,,,,,,,,,,,,,,,,,,,,,,,,,,,
,,,,,,,,,,00001579078,2020-10-23_20h26.35.788,swahili,2020.2.4,MacIntel,60,,,,,,,,,,0.45453559,0.063489583,1,0,0,1.946070001,test_pile,1,0,1,0,1,MERCHANT - TAJIRI,,,,,,,,,,,,,,,,,,,,,,,,,,,,,,,,,,,,,,,,,,,,,,,,,,,,,,,,,,,,,,,,,,,,,,,,,,,,,,,,
,,,,,,,,,,00001579078,2020-10-23_20h26.35.788,swahili,2020.2.4,MacIntel,60,,,,,,,,,,-0.572124566,0.066241319,1,0,0,0.613899999,unsorted_card,2,0,2,0,1,,,,,,,,,,,,,,,,,,,,,,,,,,,,,,,,,,,,,,,,,,,,,,,,,,,,,,,,,,,,,,,,,,,,,,,,,,,,,,,,,
,,,,,,,,,,00001579078,2020-10-23_20h26.35.788,swahili,2020.2.4,MacIntel,60,,,,,,,,,,0.516758898,0.031215278,1,0,0,1.01728,test_pile,3,0,3,0,1,PARROT - KASUKU,,,,,,,,,,,,,,,,,,,,,,,,,,,,,,,,,,,,,,,,,,,,,,,,,,,,,,,,,,,,,,,,,,,,,,,,,,,,,,,,
,,,,,,,,,,00001579078,2020-10-23_20h26.35.788,swahili,2020.2.4,MacIntel,60,,,,,,,,,,-0.469173177,0.017413194,1,0,0,0.680385,unsorted_card,4,0,4,0,1,,,,,,,,,,,,,,,,,,,,,,,,,,,,,,,,,,,,,,,,,,,,,,,,,,,,,,,,,,,,,,,,,,,,,,,,,,,,,,,,,
,,,,,,,,,,00001579078,2020-10-23_20h26.35.788,swahili,2020.2.4,MacIntel,60,,,,,,,,,,0.381939019,0.001692708,1,0,0,1.381795,test_pile,5,0,5,0,1,BULL - FAHILI,,,,,,,,,,,,,,,,,,,,,,,,,,,,,,,,,,,,,,,,,,,,,,,,,,,,,,,,,,,,,,,,,,,,,,,,,,,,,,,,
,,,,,,,,,,00001579078,2020-10-23_20h26.35.788,swahili,2020.2.4,MacIntel,60,,,,,,,,,,-0.352202691,0.042734375,1,0,0,0.58121,unsorted_card,6,0,6,0,1,,,,,,,,,,,,,,,,,,,,,,,,,,,,,,,,,,,,,,,,,,,,,,,,,,,,,,,,,,,,,,,,,,,,,,,,,,,,,,,,,
,,,,,,,,,,00001579078,2020-10-23_20h26.35.788,swahili,2020.2.4,MacIntel,60,,,,,,,,,,0.489290365,-0.014826389,1,0,0,1.549565,test_pile,7,0,7,0,1,PLATE - SAHANI,,,,,,,,,,,,,,,,,,,,,,,,,,,,,,,,,,,,,,,,,,,,,,,,,,,,,,,,,,,,,,,,,,,,,,,,,,,,,,,,
,,,,,,,,,,00001579078,2020-10-23_20h26.35.788,swahili,2020.2.4,MacIntel,60,,,,,,,,,,-0.191276042,-0.006961806,1,0,0,0.764475,unsorted_card,8,0,8,0,1,,,,,,,,,,,,,,,,,,,,,,,,,,,,,,,,,,,,,,,,,,,,,,,,,,,,,,,,,,,,,,,,,,,,,,,,,,,,,,,,,
,,,,,,,,,,00001579078,2020-10-23_20h26.35.788,swahili,2020.2.4,MacIntel,60,,,,,,,,,,0.545844184,0.077621528,1,0,0,1.202905,test_pile,9,0,9,0,1,YEAST - HAMIRA,,,,,,,,,,,,,,,,,,,,,,,,,,,,,,,,,,,,,,,,,,,,,,,,,,,,,,,,,,,,,,,,,,,,,,,,,,,,,,,,
,,,,,,,,,,00001579078,2020-10-23_20h26.35.788,swahili,2020.2.4,MacIntel,60,,,,,,,,,,-0.281759983,0.154722222,1,0,0,0.593295,unsorted_card,10,0,10,0,1,,,,,,,,,,,,,,,,,,,,,,,,,,,,,,,,,,,,,,,,,,,,,,,,,,,,,,,,,,,,,,,,,,,,,,,,,,,,,,,,,
,,,,,,,,,,00001579078,2020-10-23_20h26.35.788,swahili,2020.2.4,MacIntel,60,,,,,,,,,,0.465820313,-0.038758681,1,0,0,1.247985,test_pile,11,0,11,0,1,BLAME - LAWAMA,,,,,,,,,,,,,,,,,,,,,,,,,,,,,,,,,,,,,,,,,,,,,,,,,,,,,,,,,,,,,,,,,,,,,,,,,,,,,,,,
,,,,,,,,,,00001579078,2020-10-23_20h26.35.788,swahili,2020.2.4,MacIntel,60,,,,,,,,,,-0.280463325,-0.084739583,1,0,0,0.617335,unsorted_card,12,0,12,0,1,,,,,,,,,,,,,,,,,,,,,,,,,,,,,,,,,,,,,,,,,,,,,,,,,,,,,,,,,,,,,,,,,,,,,,,,,,,,,,,,,
,,,,,,,,,,00001579078,2020-10-23_20h26.35.788,swahili,2020.2.4,MacIntel,60,,,,,,,,,,0.49313151,-0.074270833,1,0,0,1.430785,test_pile,13,0,13,0,1,OATH - YAMINI,,,,,,,,,,,,,,,,,,,,,,,,,,,,,,,,,,,,,,,,,,,,,,,,,,,,,,,,,,,,,,,,,,,,,,,,,,,,,,,,
,,,,,,,,,,00001579078,2020-10-23_20h26.35.788,swahili,2020.2.4,MacIntel,60,,,,,,,,,,-0.259239366,0.098949653,1,0,0,0.631025,unsorted_card,14,0,14,0,1,,,,,,,,,,,,,,,,,,,,,,,,,,,,,,,,,,,,,,,,,,,,,,,,,,,,,,,,,,,,,,,,,,,,,,,,,,,,,,,,,
,,,,,,,,,,00001579078,2020-10-23_20h26.35.788,swahili,2020.2.4,MacIntel,60,,,,,,,,,,0.497064887,0.014644097,1,0,0,1.15358,test_pile,15,0,15,0,1,CORN - NAFAKA,,,,,,,,,,,,,,,,,,,,,,,,,,,,,,,,,,,,,,,,,,,,,,,,,,,,,,,,,,,,,,,,,,,,,,,,,,,,,,,,
,,,,,,,,,,00001579078,2020-10-23_20h26.35.788,swahili,2020.2.4,MacIntel,60,,,,,,,,,,-0.365174696,0.227986111,1,0,0,1.13162,unsorted_card,16,0,16,0,1,,,,,,,,,,,,,,,,,,,,,,,,,,,,,,,,,,,,,,,,,,,,,,,,,,,,,,,,,,,,,,,,,,,,,,,,,,,,,,,,,
,,,,,,,,,,00001579078,2020-10-23_20h26.35.788,swahili,2020.2.4,MacIntel,60,,,,,,,,,,0.443489583,0.050737847,1,0,0,1.16139,test_pile,17,0,17,0,1,POEM - UTENZI,,,,,,,,,,,,,,,,,,,,,,,,,,,,,,,,,,,,,,,,,,,,,,,,,,,,,,,,,,,,,,,,,,,,,,,,,,,,,,,,
,,,,,,,,,,00001579078,2020-10-23_20h26.35.788,swahili,2020.2.4,MacIntel,60,,,,,,,,,,-0.144021267,0.135954861,1,0,0,0.600135,unsorted_card,18,0,18,0,1,,,,,,,,,,,,,,,,,,,,,,,,,,,,,,,,,,,,,,,,,,,,,,,,,,,,,,,,,,,,,,,,,,,,,,,,,,,,,,,,,
,,,,,,,,,,00001579078,2020-10-23_20h26.35.788,swahili,2020.2.4,MacIntel,60,,,,,,,,,,0.462141927,0.038454861,1,0,0,0.88059,test_pile,19,0,19,0,1,TAILOR - MSHONI,,,,,,,,,,,,,,,,,,,,,,,,,,,,,,,,,,,,,,,,,,,,,,,,,,,,,,,,,,,,,,,,,,,,,,,,,,,,,,,,
,,,,,,,,,,00001579078,2020-10-23_20h26.35.788,swahili,2020.2.4,MacIntel,60,,,,,,,,,,-0.468880208,0.013923611,1,0,0,1.984915,unsorted_card,20,0,20,0,1,,,,,,,,,,,,,,,,,,,,,,,,,,,,,,,,,,,,,,,,,,,,,,,,,,,,,,,,,,,,,,,,,,,,,,,,,,,,,,,,,
,,,,,,,,,,00001579078,2020-10-23_20h26.35.788,swahili,2020.2.4,MacIntel,60,,,,,,,,,,0.467192925,0.094895833,1,0,0,0.90151,test_pile,21,0,21,0,1,CHEESE - JIBINI,,,,,,,,,,,,,,,,,,,,,,,,,,,,,,,,,,,,,,,,,,,,,,,,,,,,,,,,,,,,,,,,,,,,,,,,,,,,,,,,
,,,,,,,,,,00001579078,2020-10-23_20h26.35.788,swahili,2020.2.4,MacIntel,60,,,,,,,,,,-0.219883898,-0.023506944,1,0,0,0.675954999,unsorted_card,22,0,22,0,1,,,,,,,,,,,,,,,,,,,,,,,,,,,,,,,,,,,,,,,,,,,,,,,,,,,,,,,,,,,,,,,,,,,,,,,,,,,,,,,,,
,,,,,,,,,,00001579078,2020-10-23_20h26.35.788,swahili,2020.2.4,MacIntel,60,,,,,,,,,,0.433468967,-0.08359375,1,0,0,1.082715,test_pile,23,0,23,0,1,GRAPES - ZABIBU,,,,,,,,,,,,,,,,,,,,,,,,,,,,,,,,,,,,,,,,,,,,,,,,,,,,,,,,,,,,,,,,,,,,,,,,,,,,,,,,
,,,,,,,,,,00001579078,2020-10-23_20h26.35.788,swahili,2020.2.4,MacIntel,60,,,,,,,,,,-0.431553819,0.177178819,1,0,0,0.797155,unsorted_card,24,0,24,0,1,,,,,,,,,,,,,,,,,,,,,,,,,,,,,,,,,,,,,,,,,,,,,,,,,,,,,,,,,,,,,,,,,,,,,,,,,,,,,,,,,
,,,,,,,,,,00001579078,2020-10-23_20h26.35.788,swahili,2020.2.4,MacIntel,60,,,,,,,,,,0.370979818,0.011640625,1,0,0,1.065655,test_pile,25,0,25,0,1,GRAVE - KABURI,,,,,,,,,,,,,,,,,,,,,,,,,,,,,,,,,,,,,,,,,,,,,,,,,,,,,,,,,,,,,,,,,,,,,,,,,,,,,,,,
,,,,,,,,,,00001579078,2020-10-23_20h26.35.788,swahili,2020.2.4,MacIntel,60,,,,,,,,,,-0.339366319,0.02921875,1,0,0,0.673184999,unsorted_card,26,0,26,0,1,,,,,,,,,,,,,,,,,,,,,,,,,,,,,,,,,,,,,,,,,,,,,,,,,,,,,,,,,,,,,,,,,,,,,,,,,,,,,,,,,
,,,,,,,,,,00001579078,2020-10-23_20h26.35.788,swahili,2020.2.4,MacIntel,60,,,,,,,,,,0.480767144,0.041414931,1,0,0,0.877585,test_pile,27,0,27,0,1,MANURE - SAMADI,,,,,,,,,,,,,,,,,,,,,,,,,,,,,,,,,,,,,,,,,,,,,,,,,,,,,,,,,,,,,,,,,,,,,,,,,,,,,,,,
,,,,,,,,,,00001579078,2020-10-23_20h26.35.788,swahili,2020.2.4,MacIntel,60,,,,,,,,,,-0.253396267,0.082248264,1,0,0,0.680840001,unsorted_card,28,0,28,0,1,,,,,,,,,,,,,,,,,,,,,,,,,,,,,,,,,,,,,,,,,,,,,,,,,,,,,,,,,,,,,,,,,,,,,,,,,,,,,,,,,
,,,,,,,,,,00001579078,2020-10-23_20h26.35.788,swahili,2020.2.4,MacIntel,60,,,,,,,,,,0.509163411,0.005503472,1,0,0,0.763055,test_pile,29,0,29,0,1,AGENT - WAKILI,,,,,,,,,,,,,,,,,,,,,,,,,,,,,,,,,,,,,,,,,,,,,,,,,,,,,,,,,,,,,,,,,,,,,,,,,,,,,,,,
,,,,,,,,,,00001579078,2020-10-23_20h26.35.788,swahili,2020.2.4,MacIntel,60,,,,,,,,,,-0.425998264,0.156736111,1,0,0,0.597185,unsorted_card,30,0,30,0,1,,,,,,,,,,,,,,,,,,,,,,,,,,,,,,,,,,,,,,,,,,,,,,,,,,,,,,,,,,,,,,,,,,,,,,,,,,,,,,,,,
,,,,,,,,,,00001579078,2020-10-23_20h26.35.788,swahili,2020.2.4,MacIntel,60,,,,,,,,,,0.386409505,0.0403125,1,0,0,0.983395,test_pile,31,0,31,0,1,BRIBE - RUSHWA,,,,,,,,,,,,,,,,,,,,,,,,,,,,,,,,,,,,,,,,,,,,,,,,,,,,,,,,,,,,,,,,,,,,,,,,,,,,,,,,
,,,,,,,,,,00001579078,2020-10-23_20h26.35.788,swahili,2020.2.4,MacIntel,60,,,,,,,,,,-0.399376085,0.072473958,1,0,0,0.849394999,unsorted_card,32,0,32,0,1,,,,,,,,,,,,,,,,,,,,,,,,,,,,,,,,,,,,,,,,,,,,,,,,,,,,,,,,,,,,,,,,,,,,,,,,,,,,,,,,,
,,,,,,,,,,00001579078,2020-10-23_20h26.35.788,swahili,2020.2.4,MacIntel,60,,,,,,,,,,0.405262587,-0.013246528,1,0,0,0.996375,test_pile,33,0,33,0,1,ORPHAN - YATIMA,,,,,,,,,,,,,,,,,,,,,,,,,,,,,,,,,,,,,,,,,,,,,,,,,,,,,,,,,,,,,,,,,,,,,,,,,,,,,,,,
,,,,,,,,,,00001579078,2020-10-23_20h26.35.788,swahili,2020.2.4,MacIntel,60,,,,,,,,,,-0.268804253,-0.096171875,1,0,0,2.13215,unsorted_card,34,0,34,0,1,,,,,,,,,,,,,,,,,,,,,,,,,,,,,,,,,,,,,,,,,,,,,,,,,,,,,,,,,,,,,,,,,,,,,,,,,,,,,,,,,
,,,,,,,,,,00001579078,2020-10-23_20h26.35.788,swahili,2020.2.4,MacIntel,60,,,,,,,,,,0.437462023,0.015512153,1,0,0,0.849115,test_pile,35,0,35,0,1,DIVORCE - TALAKA,,,,,,,,,,,,,,,,,,,,,,,,,,,,,,,,,,,,,,,,,,,,,,,,,,,,,,,,,,,,,,,,,,,,,,,,,,,,,,,,
,,,,,,,,,,00001579078,2020-10-23_20h26.35.788,swahili,2020.2.4,MacIntel,60,,,,,,,,,,-0.111480035,0.04109375,1,0,0,0.66562,unsorted_card,36,0,36,0,1,,,,,,,,,,,,,,,,,,,,,,,,,,,,,,,,,,,,,,,,,,,,,,,,,,,,,,,,,,,,,,,,,,,,,,,,,,,,,,,,,
,,,,,,,,,,00001579078,2020-10-23_20h26.35.788,swahili,2020.2.4,MacIntel,60,,,,,,,,,,0.467730035,0.036154514,1,0,0,0.813275,test_pile,37,0,37,0,1,BOAT - MASHUA,,,,,,,,,,,,,,,,,,,,,,,,,,,,,,,,,,,,,,,,,,,,,,,,,,,,,,,,,,,,,,,,,,,,,,,,,,,,,,,,
,,,,,,,,,,00001579078,2020-10-23_20h26.35.788,swahili,2020.2.4,MacIntel,60,,,,,,,,,,-0.292041016,-0.036336806,1,0,0,0.66638,unsorted_card,38,0,38,0,1,,,,,,,,,,,,,,,,,,,,,,,,,,,,,,,,,,,,,,,,,,,,,,,,,,,,,,,,,,,,,,,,,,,,,,,,,,,,,,,,,
,,,,,,,,,,00001579078,2020-10-23_20h26.35.788,swahili,2020.2.4,MacIntel,60,,,,,,,,,,0.515711806,-0.003246528,1,0,0,0.829875,test_pile,39,0,39,0,1,TREASURE - DAFINA,,,,,,,,,,,,,,,,,,,,,,,,,,,,,,,,,,,,,,,,,,,,,,,,,,,,,,,,,,,,,,,,,,,,,,,,,,,,,,,,
,,,,,,,,,,00001579078,2020-10-23_20h26.35.788,swahili,2020.2.4,MacIntel,60,,,,,,,,,,,,,,,,,,,,,,,,,,,,,,,,0,0,0,0,1,,,,,,,,,,,,,,,,,,,,,,,,,,,,,,,,,,,,,,,,,,,,,,,,,,,,,,,,,,,,,,,,,,
,,,,,,,,,,00001579078,2020-10-23_20h26.35.788,swahili,2020.2.4,MacIntel,60,,,,,,,,,,,,,,,,,,,,,,,,,,,,,,,,,,,,,return,1.156325,2.912405,0.412456597,0.019947917,1,0,0,0.716680001,yes,CHEESE,JIBINI,incorrect,0,0,0,0,1,,,,,,,,,,,,,,,,,,,,,,,,,,,,,,,,,,,,,,,,,,,,,,,,
,,,,,,,,,,00001579078,2020-10-23_20h26.35.788,swahili,2020.2.4,MacIntel,60,,,,,,,,,,,,,,,,,,,,,,,,,,,,,,,,,,,,,,,4.844380001,0.389420573,-0.043836806,1,0,0,0.687565,yes,TAILOR,WALIKA,incorrect,1,0,1,0,1,,,,,,,,,,,,,,,,,,,,,,,,,,,,,,,,,,,,,,,,,,,,,,,,
,,,,,,,,,,00001579078,2020-10-23_20h26.35.788,swahili,2020.2.4,MacIntel,60,,,,,,,,,,,,,,,,,,,,,,,,,,,,,,,,,,,,,,,5.941064999,0.337217882,-0.180885417,1,0,0,0.740470001,yes,PARROT,FAHUKU,incorrect,2,0,2,0,1,,,,,,,,,,,,,,,,,,,,,,,,,,,,,,,,,,,,,,,,,,,,,,,,
,,,,,,,,,,00001579078,2020-10-23_20h26.35.788,swahili,2020.2.4,MacIntel,60,,,,,,,,,,,,,,,,,,,,,,,,,,,,,,,,,,,,,,,5.39693,0.423735894,-0.062317708,1,0,0,0.751705,yes,POEM,UTENZI,incorrect,3,0,3,0,1,,,,,,,,,,,,,,,,,,,,,,,,,,,,,,,,,,,,,,,,,,,,,,,,
,,,,,,,,,,00001579078,2020-10-23_20h26.35.788,swahili,2020.2.4,MacIntel,60,,,,,,,,,,,,,,,,,,,,,,,,,,,,,,,,,,,,,,,4.49681,0.465163845,0.097578125,1,0,0,0.597395,yes,OATH,YIMENI,incorrect,4,0,4,0,1,,,,,,,,,,,,,,,,,,,,,,,,,,,,,,,,,,,,,,,,,,,,,,,,
,,,,,,,,,,00001579078,2020-10-23_20h26.35.788,swahili,2020.2.4,MacIntel,60,,,,,,,,,,,,,,,,,,,,,,,,,,,,,,,,,,,,,,,3.666015,0.390950521,-0.022013889,1,0,0,0.63345,yes,PLATE,SAMADI,incorrect,5,0,5,0,1,,,,,,,,,,,,,,,,,,,,,,,,,,,,,,,,,,,,,,,,,,,,,,,,
,,,,,,,,,,00001579078,2020-10-23_20h26.35.788,swahili,2020.2.4,MacIntel,60,,,,,,,,,,,,,,,,,,,,,,,,,,,,,,,,,,,,,,,5.15138,0.547352431,0.114522569,1,0,0,0.80022,yes,MANURE,IDK,incorrect,6,0,6,0,1,,,,,,,,,,,,,,,,,,,,,,,,,,,,,,,,,,,,,,,,,,,,,,,,
,,,,,,,,,,00001579078,2020-10-23_20h26.35.788,swahili,2020.2.4,MacIntel,60,,,,,,,,,,,,,,,,,,,,,,,,,,,,,,,,,,,,,,,2.39802,0.414702691,0.005711806,1,0,0,0.636,yes,TREASURE,DAFINA,incorrect,7,0,7,0,1,,,,,,,,,,,,,,,,,,,,,,,,,,,,,,,,,,,,,,,,,,,,,,,,
,,,,,,,,,,00001579078,2020-10-23_20h26.35.788,swahili,2020.2.4,MacIntel,60,,,,,,,,,,,,,,,,,,,,,,,,,,,,,,,,,,,,,,,5.215995,0.345654297,-0.125703125,1,0,0,0.66397,yes,AGENT,WAFIKI,incorrect,8,0,8,0,1,,,,,,,,,,,,,,,,,,,,,,,,,,,,,,,,,,,,,,,,,,,,,,,,
,,,,,,,,,,00001579078,2020-10-23_20h26.35.788,swahili,2020.2.4,MacIntel,60,,,,,,,,,,,,,,,,,,,,,,,,,,,,,,,,,,,,,,,9.15088,0.344428168,-0.120503472,1,0,0,0.80169,yes,BLAME,LAWAMA,incorrect,9,0,9,0,1,,,,,,,,,,,,,,,,,,,,,,,,,,,,,,,,,,,,,,,,,,,,,,,,
,,,,,,,,,,00001579078,2020-10-23_20h26.35.788,swahili,2020.2.4,MacIntel,60,,,,,,,,,,,,,,,,,,,,,,,,,,,,,,,,,,,,,,,2.628335,0.306212023,-0.188602431,1,0,0,0.852085,yes,GRAVE,KABURI,incorrect,10,0,10,0,1,,,,,,,,,,,,,,,,,,,,,,,,,,,,,,,,,,,,,,,,,,,,,,,,
,,,,,,,,,,00001579078,2020-10-23_20h26.35.788,swahili,2020.2.4,MacIntel,60,,,,,,,,,,,,,,,,,,,,,,,,,,,,,,,,,,,,,,,2.380170001,0.426920573,-0.014496528,1,0,0,0.73418,yes,BRIBE,IDK,incorrect,11,0,11,0,1,,,,,,,,,,,,,,,,,,,,,,,,,,,,,,,,,,,,,,,,,,,,,,,,
,,,,,,,,,,00001579078,2020-10-23_20h26.35.788,swahili,2020.2.4,MacIntel,60,,,,,,,,,,,,,,,,,,,,,,,,,,,,,,,,,,,,,,,2.611835,0.420675998,0.051232639,1,0,0,0.649355001,yes,CORN,NAFAKA,incorrect,12,0,12,0,1,,,,,,,,,,,,,,,,,,,,,,,,,,,,,,,,,,,,,,,,,,,,,,,,
,,,,,,,,,,00001579078,2020-10-23_20h26.35.788,swahili,2020.2.4,MacIntel,60,,,,,,,,,,,,,,,,,,,,,,,,,,,,,,,,,,,,,,,3.032419999,0.345855035,-0.068046875,1,0,0,0.674374999,yes,DIVORCE,TALAKA,incorrect,13,0,13,0,1,,,,,,,,,,,,,,,,,,,,,,,,,,,,,,,,,,,,,,,,,,,,,,,,
,,,,,,,,,,00001579078,2020-10-23_20h26.35.788,swahili,2020.2.4,MacIntel,60,,,,,,,,,,,,,,,,,,,,,,,,,,,,,,,,,,,,,,,4.034715,0.422254774,0.022586806,1,0,0,0.59772,yes,MERCHANT,MASHUA,incorrect,14,0,14,0,1,,,,,,,,,,,,,,,,,,,,,,,,,,,,,,,,,,,,,,,,,,,,,,,,
,,,,,,,,,,00001579078,2020-10-23_20h26.35.788,swahili,2020.2.4,MacIntel,60,,,,,,,,,,,,,,,,,,,,,,,,,,,,,,,,,,,,,,,6.468850001,0.410677083,-0.01828125,1,0,0,0.6787,yes,ORPHAN,YIMENI,incorrect,15,0,15,0,1,,,,,,,,,,,,,,,,,,,,,,,,,,,,,,,,,,,,,,,,,,,,,,,,
,,,,,,,,,,00001579078,2020-10-23_20h26.35.788,swahili,2020.2.4,MacIntel,60,,,,,,,,,,,,,,,,,,,,,,,,,,,,,,,,,,,,,,,2.347255001,0.438861762,-0.003680556,1,0,0,0.605450001,yes,YEAST,MASHUA,incorrect,16,0,16,0,1,,,,,,,,,,,,,,,,,,,,,,,,,,,,,,,,,,,,,,,,,,,,,,,,
,,,,,,,,,,00001579078,2020-10-23_20h26.35.788,swahili,2020.2.4,MacIntel,60,,,,,,,,,,,,,,,,,,,,,,,,,,,,,,,,,,,,,,,9.395155,0.478483073,0.075815972,1,0,0,0.600374999,yes,GRAPES,ZABIBI,incorrect,17,0,17,0,1,,,,,,,,,,,,,,,,,,,,,,,,,,,,,,,,,,,,,,,,,,,,,,,,
,,,,,,,,,,00001579078,2020-10-23_20h26.35.788,swahili,2020.2.4,MacIntel,60,,,,,,,,,,,,,,,,,,,,,,,,,,,,,,,,,,,,,,,7.21542,0.382796224,-0.105486111,1,0,0,0.75104,yes,BULL,FAHIKU,incorrect,18,0,18,0,1,,,,,,,,,,,,,,,,,,,,,,,,,,,,,,,,,,,,,,,,,,,,,,,,
,,,,,,,,,,00001579078,2020-10-23_20h26.35.788,swahili,2020.2.4,MacIntel,60,,,,,,,,,,,,,,,,,,,,,,,,,,,,,,,,,,,,,,,2.430199999,0.486230469,0.088472222,1,0,0,0.54897,yes,BOAT,MASHUA,incorrect,19,0,19,0,1,,,,,,,,,,,,,,,,,,,,,,,,,,,,,,,,,,,,,,,,,,,,,,,,
,,,,,,,,,,00001579078,2020-10-23_20h26.35.788,swahili,2020.2.4,MacIntel,60,,,,,,,,,,,,,,,,,,,,,,,,,,,,,,,,,,,,,,,,,,,,,,,,,,,,,,,0,0,0,0,1,,,,,,,,,,,,,,,,,,,,,,,,,,,,,,,,,,,,,,,,,,,
,,,,,,,,,,00001579078,2020-10-23_20h26.35.788,swahili,2020.2.4,MacIntel,60,,,,,,,,,,,,,,,,,,,,,,,,,,,,,,,,,,,,,,,,,,,,,,,,,,,,,,,1,0,1,0,1,,,,,,,,,,,,,,,,,,,,,,,,,,,,,,,,,,,,,,,,,,,
,,,,,,,,,,00001579078,2020-10-23_20h26.35.788,swahili,2020.2.4,MacIntel,60,,,,,,,,,,,,,,,,,,,,,,,,,,,,,,,,,,,,,,,,,,,,,,,,,,,,,,,,,,,,2,0,2,0,1,,,,,,,,,,,,,,,,,,,,,,,,,,,,,,,,,,,,,,
,,,,,,,,,,00001579078,2020-10-23_20h26.35.788,swahili,2020.2.4,MacIntel,60,,,,,,,,,,0.373198785,-0.329973958,1,0,0,0.096585,unsorted_card,0,0,0,0,1,,,,,,,,,,,,,,,,,,,,,,,,,,,,,,,,,,,,,,,,,,,,,,,,,,,,,,,,,,,,,,,,,,,,,,,,,,,,,,,,,
,,,,,,,,,,00001579078,2020-10-23_20h26.35.788,swahili,2020.2.4,MacIntel,60,,,,,,,,,,0.609130859,0.224756944,1,0,0,2.012045,test_pile,1,0,1,0,1,MERCHANT - TAJIRI,,,,,,,,,,,,,,,,,,,,,,,,,,,,,,,,,,,,,,,,,,,,,,,,,,,,,,,,,,,,,,,,,,,,,,,,,,,,,,,,
,,,,,,,,,,00001579078,2020-10-23_20h26.35.788,swahili,2020.2.4,MacIntel,60,,,,,,,,,,-0.190549045,-0.042960069,1,0,0,0.836200001,unsorted_card,2,0,2,0,1,,,,,,,,,,,,,,,,,,,,,,,,,,,,,,,,,,,,,,,,,,,,,,,,,,,,,,,,,,,,,,,,,,,,,,,,,,,,,,,,,
,,,,,,,,,,00001579078,2020-10-23_20h26.35.788,swahili,2020.2.4,MacIntel,60,,,,,,,,,,0.439171007,0.011076389,1,0,0,1.079245,test_pile,3,0,3,0,1,PARROT - KASUKU,,,,,,,,,,,,,,,,,,,,,,,,,,,,,,,,,,,,,,,,,,,,,,,,,,,,,,,,,,,,,,,,,,,,,,,,,,,,,,,,
,,,,,,,,,,00001579078,2020-10-23_20h26.35.788,swahili,2020.2.4,MacIntel,60,,,,,,,,,,-0.231759983,-0.077395833,1,0,0,0.701020001,unsorted_card,4,0,4,0,1,,,,,,,,,,,,,,,,,,,,,,,,,,,,,,,,,,,,,,,,,,,,,,,,,,,,,,,,,,,,,,,,,,,,,,,,,,,,,,,,,
,,,,,,,,,,00001579078,2020-10-23_20h26.35.788,swahili,2020.2.4,MacIntel,60,,,,,,,,,,0.504513889,0.018463542,1,0,0,0.884005,test_pile,5,0,5,0,1,BULL - FAHILI,,,,,,,,,,,,,,,,,,,,,,,,,,,,,,,,,,,,,,,,,,,,,,,,,,,,,,,,,,,,,,,,,,,,,,,,,,,,,,,,
,,,,,,,,,,00001579078,2020-10-23_20h26.35.788,swahili,2020.2.4,MacIntel,60,,,,,,,,,,-0.375086806,-0.06859375,1,0,0,0.71213,unsorted_card,6,0,6,0,1,,,,,,,,,,,,,,,,,,,,,,,,,,,,,,,,,,,,,,,,,,,,,,,,,,,,,,,,,,,,,,,,,,,,,,,,,,,,,,,,,
,,,,,,,,,,00001579078,2020-10-23_20h26.35.788,swahili,2020.2.4,MacIntel,60,,,,,,,,,,0.514203559,-0.060338542,1,0,0,1.43208,test_pile,7,0,7,0,1,PLATE - SAHANI,,,,,,,,,,,,,,,,,,,,,,,,,,,,,,,,,,,,,,,,,,,,,,,,,,,,,,,,,,,,,,,,,,,,,,,,,,,,,,,,
,,,,,,,,,,00001579078,2020-10-23_20h26.35.788,swahili,2020.2.4,MacIntel,60,,,,,,,,,,-0.267089844,-0.016692708,1,0,0,0.599305,unsorted_card,8,0,8,0,1,,,,,,,,,,,,,,,,,,,,,,,,,,,,,,,,,,,,,,,,,,,,,,,,,,,,,,,,,,,,,,,,,,,,,,,,,,,,,,,,,
,,,,,,,,,,00001579078,2020-10-23_20h26.35.788,swahili,2020.2.4,MacIntel,60,,,,,,,,,,0.4433648,0.004010417,1,0,0,1.46321,test_pile,9,0,9,0,1,YEAST - HAMIRA,,,,,,,,,,,,,,,,,,,,,,,,,,,,,,,,,,,,,,,,,,,,,,,,,,,,,,,,,,,,,,,,,,,,,,,,,,,,,,,,
,,,,,,,,,,00001579078,2020-10-23_20h26.35.788,swahili,2020.2.4,MacIntel,60,,,,,,,,,,-0.355121528,0.014409722,1,0,0,0.63087,unsorted_card,10,0,10,0,1,,,,,,,,,,,,,,,,,,,,,,,,,,,,,,,,,,,,,,,,,,,,,,,,,,,,,,,,,,,,,,,,,,,,,,,,,,,,,,,,,
,,,,,,,,,,00001579078,2020-10-23_20h26.35.788,swahili,2020.2.4,MacIntel,60,,,,,,,,,,0.514176432,0.029522569,1,0,0,1.282095,test_pile,11,0,11,0,1,BLAME - LAWAMA,,,,,,,,,,,,,,,,,,,,,,,,,,,,,,,,,,,,,,,,,,,,,,,,,,,,,,,,,,,,,,,,,,,,,,,,,,,,,,,,
,,,,,,,,,,00001579078,2020-10-23_20h26.35.788,swahili,2020.2.4,MacIntel,60,,,,,,,,,,-0.322444661,-0.037508681,1,0,0,0.59932,unsorted_card,12,0,12,0,1,,,,,,,,,,,,,,,,,,,,,,,,,,,,,,,,,,,,,,,,,,,,,,,,,,,,,,,,,,,,,,,,,,,,,,,,,,,,,,,,,
,,,,,,,,,,00001579078,2020-10-23_20h26.35.788,swahili,2020.2.4,MacIntel,60,,,,,,,,,,0.455246311,-0.017560764,1,0,0,1.0137,test_pile,13,0,13,0,1,OATH - YAMINI,,,,,,,,,,,,,,,,,,,,,,,,,,,,,,,,,,,,,,,,,,,,,,,,,,,,,,,,,,,,,,,,,,,,,,,,,,,,,,,,
,,,,,,,,,,00001579078,2020-10-23_20h26.35.788,swahili,2020.2.4,MacIntel,60,,,,,,,,,,-0.494748264,-0.103541667,1,0,0,0.584904999,unsorted_card,14,0,14,0,1,,,,,,,,,,,,,,,,,,,,,,,,,,,,,,,,,,,,,,,,,,,,,,,,,,,,,,,,,,,,,,,,,,,,,,,,,,,,,,,,,
,,,,,,,,,,00001579078,2020-10-23_20h26.35.788,swahili,2020.2.4,MacIntel,60,,,,,,,,,,0.430056424,0.000885417,1,0,0,1.049175001,test_pile,15,0,15,0,1,CORN - NAFAKA,,,,,,,,,,,,,,,,,,,,,,,,,,,,,,,,,,,,,,,,,,,,,,,,,,,,,,,,,,,,,,,,,,,,,,,,,,,,,,,,
,,,,,,,,,,00001579078,2020-10-23_20h26.35.788,swahili,2020.2.4,MacIntel,60,,,,,,,,,,-0.31242947,-0.115078125,1,0,0,1.07876,unsorted_card,16,0,16,0,1,,,,,,,,,,,,,,,,,,,,,,,,,,,,,,,,,,,,,,,,,,,,,,,,,,,,,,,,,,,,,,,,,,,,,,,,,,,,,,,,,
,,,,,,,,,,00001579078,2020-10-23_20h26.35.788,swahili,2020.2.4,MacIntel,60,,,,,,,,,,0.391064453,-0.009140625,1,0,0,1.0665,test_pile,17,0,17,0,1,POEM - UTENZI,,,,,,,,,,,,,,,,,,,,,,,,,,,,,,,,,,,,,,,,,,,,,,,,,,,,,,,,,,,,,,,,,,,,,,,,,,,,,,,,
,,,,,,,,,,00001579078,2020-10-23_20h26.35.788,swahili,2020.2.4,MacIntel,60,,,,,,,,,,-0.29288737,-0.028255208,1,0,0,0.765374999,unsorted_card,18,0,18,0,1,,,,,,,,,,,,,,,,,,,,,,,,,,,,,,,,,,,,,,,,,,,,,,,,,,,,,,,,,,,,,,,,,,,,,,,,,,,,,,,,,
,,,,,,,,,,00001579078,2020-10-23_20h26.35.788,swahili,2020.2.4,MacIntel,60,,,,,,,,,,0.374582248,-0.019930556,1,0,0,1.433265,test_pile,19,0,19,0,1,TAILOR - MSHONI,,,,,,,,,,,,,,,,,,,,,,,,,,,,,,,,,,,,,,,,,,,,,,,,,,,,,,,,,,,,,,,,,,,,,,,,,,,,,,,,
,,,,,,,,,,00001579078,2020-10-23_20h26.35.788,swahili,2020.2.4,MacIntel,60,,,,,,,,,,-0.22852105,-0.078506944,1,0,0,1.317595,unsorted_card,20,0,20,0,1,,,,,,,,,,,,,,,,,,,,,,,,,,,,,,,,,,,,,,,,,,,,,,,,,,,,,,,,,,,,,,,,,,,,,,,,,,,,,,,,,
,,,,,,,,,,00001579078,2020-10-23_20h26.35.788,swahili,2020.2.4,MacIntel,60,,,,,,,,,,0.307291667,0.025980903,1,0,0,0.96547,test_pile,21,0,21,0,1,CHEESE - JIBINI,,,,,,,,,,,,,,,,,,,,,,,,,,,,,,,,,,,,,,,,,,,,,,,,,,,,,,,,,,,,,,,,,,,,,,,,,,,,,,,,
,,,,,,,,,,00001579078,2020-10-23_20h26.35.788,swahili,2020.2.4,MacIntel,60,,,,,,,,,,-0.473084852,0.073741319,1,0,0,1.296089999,unsorted_card,22,0,22,0,1,,,,,,,,,,,,,,,,,,,,,,,,,,,,,,,,,,,,,,,,,,,,,,,,,,,,,,,,,,,,,,,,,,,,,,,,,,,,,,,,,
,,,,,,,,,,00001579078,2020-10-23_20h26.35.788,swahili,2020.2.4,MacIntel,60,,,,,,,,,,0.405582682,0.009192708,1,0,0,1.199870001,test_pile,23,0,23,0,1,GRAPES - ZABIBU,,,,,,,,,,,,,,,,,,,,,,,,,,,,,,,,,,,,,,,,,,,,,,,,,,,,,,,,,,,,,,,,,,,,,,,,,,,,,,,,
,,,,,,,,,,00001579078,2020-10-23_20h26.35.788,swahili,2020.2.4,MacIntel,60,,,,,,,,,,-0.420605469,0.051987847,1,0,0,0.87828,unsorted_card,24,0,24,0,1,,,,,,,,,,,,,,,,,,,,,,,,,,,,,,,,,,,,,,,,,,,,,,,,,,,,,,,,,,,,,,,,,,,,,,,,,,,,,,,,,
,,,,,,,,,,00001579078,2020-10-23_20h26.35.788,swahili,2020.2.4,MacIntel,60,,,,,,,,,,0.427772352,-0.041875,1,0,0,1.152430001,test_pile,25,0,25,0,1,GRAVE - KABURI,,,,,,,,,,,,,,,,,,,,,,,,,,,,,,,,,,,,,,,,,,,,,,,,,,,,,,,,,,,,,,,,,,,,,,,,,,,,,,,,
,,,,,,,,,,00001579078,2020-10-23_20h26.35.788,swahili,2020.2.4,MacIntel,60,,,,,,,,,,-0.413113064,0.085260417,1,0,0,1.0445,unsorted_card,26,0,26,0,1,,,,,,,,,,,,,,,,,,,,,,,,,,,,,,,,,,,,,,,,,,,,,,,,,,,,,,,,,,,,,,,,,,,,,,,,,,,,,,,,,
,,,,,,,,,,00001579078,2020-10-23_20h26.35.788,swahili,2020.2.4,MacIntel,60,,,,,,,,,,0.505175781,-0.005494792,1,0,0,1.134120001,test_pile,27,0,27,0,1,MANURE - SAMADI,,,,,,,,,,,,,,,,,,,,,,,,,,,,,,,,,,,,,,,,,,,,,,,,,,,,,,,,,,,,,,,,,,,,,,,,,,,,,,,,
,,,,,,,,,,00001579078,2020-10-23_20h26.35.788,swahili,2020.2.4,MacIntel,60,,,,,,,,,,-0.4308648,-0.032092014,1,0,0,1.881549999,unsorted_card,28,0,28,0,1,,,,,,,,,,,,,,,,,,,,,,,,,,,,,,,,,,,,,,,,,,,,,,,,,,,,,,,,,,,,,,,,,,,,,,,,,,,,,,,,,
,,,,,,,,,,00001579078,2020-10-23_20h26.35.788,swahili,2020.2.4,MacIntel,60,,,,,,,,,,0.306146918,-0.016050347,1,0,0,1.236715,test_pile,29,0,29,0,1,AGENT - WAKILI,,,,,,,,,,,,,,,,,,,,,,,,,,,,,,,,,,,,,,,,,,,,,,,,,,,,,,,,,,,,,,,,,,,,,,,,,,,,,,,,
,,,,,,,,,,00001579078,2020-10-23_20h26.35.788,swahili,2020.2.4,MacIntel,60,,,,,,,,,,-0.385975477,0.006640625,1,0,0,0.66876,unsorted_card,30,0,30,0,1,,,,,,,,,,,,,,,,,,,,,,,,,,,,,,,,,,,,,,,,,,,,,,,,,,,,,,,,,,,,,,,,,,,,,,,,,,,,,,,,,
,,,,,,,,,,00001579078,2020-10-23_20h26.35.788,swahili,2020.2.4,MacIntel,60,,,,,,,,,,0.348914931,-0.081519097,1,0,0,0.9759,test_pile,31,0,31,0,1,BRIBE - RUSHWA,,,,,,,,,,,,,,,,,,,,,,,,,,,,,,,,,,,,,,,,,,,,,,,,,,,,,,,,,,,,,,,,,,,,,,,,,,,,,,,,
,,,,,,,,,,00001579078,2020-10-23_20h26.35.788,swahili,2020.2.4,MacIntel,60,,,,,,,,,,-0.360177951,0.010338542,1,0,0,1.265655,unsorted_card,32,0,32,0,1,,,,,,,,,,,,,,,,,,,,,,,,,,,,,,,,,,,,,,,,,,,,,,,,,,,,,,,,,,,,,,,,,,,,,,,,,,,,,,,,,
,,,,,,,,,,00001579078,2020-10-23_20h26.35.788,swahili,2020.2.4,MacIntel,60,,,,,,,,,,0.442312283,0.103003472,1,0,0,0.80006,test_pile,33,0,33,0,1,ORPHAN - YATIMA,,,,,,,,,,,,,,,,,,,,,,,,,,,,,,,,,,,,,,,,,,,,,,,,,,,,,,,,,,,,,,,,,,,,,,,,,,,,,,,,
,,,,,,,,,,00001579078,2020-10-23_20h26.35.788,swahili,2020.2.4,MacIntel,60,,,,,,,,,,-0.406000434,0.053689236,1,0,0,0.63118,unsorted_card,34,0,34,0,1,,,,,,,,,,,,,,,,,,,,,,,,,,,,,,,,,,,,,,,,,,,,,,,,,,,,,,,,,,,,,,,,,,,,,,,,,,,,,,,,,
,,,,,,,,,,00001579078,2020-10-23_20h26.35.788,swahili,2020.2.4,MacIntel,60,,,,,,,,,,0.386642795,0.032873264,1,0,0,0.94786,test_pile,35,0,35,0,1,DIVORCE - TALAKA,,,,,,,,,,,,,,,,,,,,,,,,,,,,,,,,,,,,,,,,,,,,,,,,,,,,,,,,,,,,,,,,,,,,,,,,,,,,,,,,
,,,,,,,,,,00001579078,2020-10-23_20h26.35.788,swahili,2020.2.4,MacIntel,60,,,,,,,,,,-0.397992622,0.105546875,1,0,0,2.168365,unsorted_card,36,0,36,0,1,,,,,,,,,,,,,,,,,,,,,,,,,,,,,,,,,,,,,,,,,,,,,,,,,,,,,,,,,,,,,,,,,,,,,,,,,,,,,,,,,
,,,,,,,,,,00001579078,2020-10-23_20h26.35.788,swahili,2020.2.4,MacIntel,60,,,,,,,,,,0.556092665,-0.035815972,1,0,0,0.963245,test_pile,37,0,37,0,1,BOAT - MASHUA,,,,,,,,,,,,,,,,,,,,,,,,,,,,,,,,,,,,,,,,,,,,,,,,,,,,,,,,,,,,,,,,,,,,,,,,,,,,,,,,
,,,,,,,,,,00001579078,2020-10-23_20h26.35.788,swahili,2020.2.4,MacIntel,60,,,,,,,,,,-0.297184245,-0.062022569,1,0,0,0.567685001,unsorted_card,38,0,38,0,1,,,,,,,,,,,,,,,,,,,,,,,,,,,,,,,,,,,,,,,,,,,,,,,,,,,,,,,,,,,,,,,,,,,,,,,,,,,,,,,,,
,,,,,,,,,,00001579078,2020-10-23_20h26.35.788,swahili,2020.2.4,MacIntel,60,,,,,,,,,,0.439029948,-0.017960069,1,0,0,0.87806,test_pile,39,0,39,0,1,TREASURE - DAFINA,,,,,,,,,,,,,,,,,,,,,,,,,,,,,,,,,,,,,,,,,,,,,,,,,,,,,,,,,,,,,,,,,,,,,,,,,,,,,,,,
,,,,,,,,,,00001579078,2020-10-23_20h26.35.788,swahili,2020.2.4,MacIntel,60,,,,,,,,,,,,,,,,,,,,,,,,,,,,,,,,0,0,0,0,1,,,,,,,,,,,,,,,,,,,,,,,,,,,,,,,,,,,,,,,,,,,,,,,,,,,,,,,,,,,,,,,,,,
,,,,,,,,,,00001579078,2020-10-23_20h26.35.788,swahili,2020.2.4,MacIntel,60,,,,,,,,,,,,,,,,,,,,,,,,,,,,,,,,,,,,,return,1.470524999,10.421955,0.47147895,0.023836806,1,0,0,0.638165,yes,MERCHANT,YAMIRA,incorrect,0,0,0,0,1,,,,,,,,,,,,,,,,,,,,,,,,,,,,,,,,,,,,,,,,,,,,,,,,
,,,,,,,,,,00001579078,2020-10-23_20h26.35.788,swahili,2020.2.4,MacIntel,60,,,,,,,,,,,,,,,,,,,,,,,,,,,,,,,,,,,,,,,8.53386,0.566585286,0.006050347,1,0,0,0.929965,yes,PARROT,FALUKI,incorrect,1,0,1,0,1,,,,,,,,,,,,,,,,,,,,,,,,,,,,,,,,,,,,,,,,,,,,,,,,
,,,,,,,,,,00001579078,2020-10-23_20h26.35.788,swahili,2020.2.4,MacIntel,60,,,,,,,,,,,,,,,,,,,,,,,,,,,,,,,,,,,,,,,5.29821,0.358821615,-0.101909722,1,0,0,0.649634999,yes,TAILOR,JIBIRI,incorrect,2,0,2,0,1,,,,,,,,,,,,,,,,,,,,,,,,,,,,,,,,,,,,,,,,,,,,,,,,
,,,,,,,,,,00001579078,2020-10-23_20h26.35.788,swahili,2020.2.4,MacIntel,60,,,,,,,,,,,,,,,,,,,,,,,,,,,,,,,,,,,,,,,4.36516,0.335367839,-0.018298611,1,0,0,0.69721,yes,GRAPES,ZABIBU,incorrect,3,0,3,0,1,,,,,,,,,,,,,,,,,,,,,,,,,,,,,,,,,,,,,,,,,,,,,,,,
,,,,,,,,,,00001579078,2020-10-23_20h26.35.788,swahili,2020.2.4,MacIntel,60,,,,,,,,,,,,,,,,,,,,,,,,,,,,,,,,,,,,,,,2.06366,0.318766276,-0.064409722,1,0,0,0.600055,yes,BOAT,MASHUA,incorrect,4,0,4,0,1,,,,,,,,,,,,,,,,,,,,,,,,,,,,,,,,,,,,,,,,,,,,,,,,
,,,,,,,,,,00001579078,2020-10-23_20h26.35.788,swahili,2020.2.4,MacIntel,60,,,,,,,,,,,,,,,,,,,,,,,,,,,,,,,,,,,,,,,3.629205,0.417556424,-0.102456597,1,0,0,0.81905,yes,PLATE,SAMADI,incorrect,5,0,5,0,1,,,,,,,,,,,,,,,,,,,,,,,,,,,,,,,,,,,,,,,,,,,,,,,,
,,,,,,,,,,00001579078,2020-10-23_20h26.35.788,swahili,2020.2.4,MacIntel,60,,,,,,,,,,,,,,,,,,,,,,,,,,,,,,,,,,,,,,,2.033144999,0.404166667,0.063836806,1,0,0,0.59961,yes,DIVORCE,TALAKA,incorrect,6,0,6,0,1,,,,,,,,,,,,,,,,,,,,,,,,,,,,,,,,,,,,,,,,,,,,,,,,
,,,,,,,,,,00001579078,2020-10-23_20h26.35.788,swahili,2020.2.4,MacIntel,60,,,,,,,,,,,,,,,,,,,,,,,,,,,,,,,,,,,,,,,2.947005,0.413020833,-0.072421875,1,0,0,0.59778,yes,YEAST,HAMIRA,incorrect,7,0,7,0,1,,,,,,,,,,,,,,,,,,,,,,,,,,,,,,,,,,,,,,,,,,,,,,,,
,,,,,,,,,,00001579078,2020-10-23_20h26.35.788,swahili,2020.2.4,MacIntel,60,,,,,,,,,,,,,,,,,,,,,,,,,,,,,,,,,,,,,,,1.850235,0.412765842,0.015121528,1,0,0,0.58044,yes,TREASURE,DAFINA,incorrect,8,0,8,0,1,,,,,,,,,,,,,,,,,,,,,,,,,,,,,,,,,,,,,,,,,,,,,,,,
,,,,,,,,,,00001579078,2020-10-23_20h26.35.788,swahili,2020.2.4,MacIntel,60,,,,,,,,,,,,,,,,,,,,,,,,,,,,,,,,,,,,,,,3.431765,0.374810113,-0.122421875,1,0,0,0.584435,yes,BULL,FAHILI,incorrect,9,0,9,0,1,,,,,,,,,,,,,,,,,,,,,,,,,,,,,,,,,,,,,,,,,,,,,,,,
,,,,,,,,,,00001579078,2020-10-23_20h26.35.788,swahili,2020.2.4,MacIntel,60,,,,,,,,,,,,,,,,,,,,,,,,,,,,,,,,,,,,,,,18.652465,0.432519531,-0.085347222,1,0,0,0.595615,yes,POEM,UTEZBI,incorrect,10,0,10,0,1,,,,,,,,,,,,,,,,,,,,,,,,,,,,,,,,,,,,,,,,,,,,,,,,
,,,,,,,,,,00001579078,2020-10-23_20h26.35.788,swahili,2020.2.4,MacIntel,60,,,,,,,,,,,,,,,,,,,,,,,,,,,,,,,,,,,,,,,3.476885,0.353526476,-0.096614583,1,0,0,0.63253,yes,GRAVE,KABURI,incorrect,11,0,11,0,1,,,,,,,,,,,,,,,,,,,,,,,,,,,,,,,,,,,,,,,,,,,,,,,,
,,,,,,,,,,00001579078,2020-10-23_20h26.35.788,swahili,2020.2.4,MacIntel,60,,,,,,,,,,,,,,,,,,,,,,,,,,,,,,,,,,,,,,,3.613910001,0.325005425,-0.145338542,1,0,0,0.599865,yes,AGENT,WALIKI,incorrect,12,0,12,0,1,,,,,,,,,,,,,,,,,,,,,,,,,,,,,,,,,,,,,,,,,,,,,,,,
,,,,,,,,,,00001579078,2020-10-23_20h26.35.788,swahili,2020.2.4,MacIntel,60,,,,,,,,,,,,,,,,,,,,,,,,,,,,,,,,,,,,,,,5.3966,0.409635417,-0.063576389,1,0,0,0.585144999,yes,ORPHAN,YAMIRA,incorrect,13,0,13,0,1,,,,,,,,,,,,,,,,,,,,,,,,,,,,,,,,,,,,,,,,,,,,,,,,
,,,,,,,,,,00001579078,2020-10-23_20h26.35.788,swahili,2020.2.4,MacIntel,60,,,,,,,,,,,,,,,,,,,,,,,,,,,,,,,,,,,,,,,3.799365,0.327473958,-0.109565972,1,0,0,0.598825,yes,BRIBE,IDK,incorrect,14,0,14,0,1,,,,,,,,,,,,,,,,,,,,,,,,,,,,,,,,,,,,,,,,,,,,,,,,
,,,,,,,,,,00001579078,2020-10-23_20h26.35.788,swahili,2020.2.4,MacIntel,60,,,,,,,,,,,,,,,,,,,,,,,,,,,,,,,,,,,,,,,4.149285,0.350260417,-0.142178819,1,0,0,0.665925,yes,OATH,FDA,incorrect,15,0,15,0,1,,,,,,,,,,,,,,,,,,,,,,,,,,,,,,,,,,,,,,,,,,,,,,,,
,,,,,,,,,,00001579078,2020-10-23_20h26.35.788,swahili,2020.2.4,MacIntel,60,,,,,,,,,,,,,,,,,,,,,,,,,,,,,,,,,,,,,,,3.18054,0.355143229,-0.125164931,1,0,0,0.552770001,yes,MANURE,SAMADI,incorrect,16,0,16,0,1,,,,,,,,,,,,,,,,,,,,,,,,,,,,,,,,,,,,,,,,,,,,,,,,
,,,,,,,,,,00001579078,2020-10-23_20h26.35.788,swahili,2020.2.4,MacIntel,60,,,,,,,,,,,,,,,,,,,,,,,,,,,,,,,,,,,,,,,2.947945,0.374864366,-0.031154514,1,0,0,0.615675,yes,BLAME,LAWAMA,incorrect,17,0,17,0,1,,,,,,,,,,,,,,,,,,,,,,,,,,,,,,,,,,,,,,,,,,,,,,,,
,,,,,,,,,,00001579078,2020-10-23_20h26.35.788,swahili,2020.2.4,MacIntel,60,,,,,,,,,,,,,,,,,,,,,,,,,,,,,,,,,,,,,,,2.564825,0.383311632,-0.057595486,1,0,0,0.54903,yes,CORN,NAFAKA,incorrect,18,0,18,0,1,,,,,,,,,,,,,,,,,,,,,,,,,,,,,,,,,,,,,,,,,,,,,,,,
,,,,,,,,,,00001579078,2020-10-23_20h26.35.788,swahili,2020.2.4,MacIntel,60,,,,,,,,,,,,,,,,,,,,,,,,,,,,,,,,,,,,,,,4.59731,0.38914388,-0.014618056,1,0,0,0.599825,yes,CHEESE,JIBEBI,incorrect,19,0,19,0,1,,,,,,,,,,,,,,,,,,,,,,,,,,,,,,,,,,,,,,,,,,,,,,,,
,,,,,,,,,,00001579078,2020-10-23_20h26.35.788,swahili,2020.2.4,MacIntel,60,,,,,,,,,,,,,,,,,,,,,,,,,,,,,,,,,,,,,,,,,,,,,,,,,,,,,,,0,0,0,0,1,,,,,,,,,,,,,,,,,,,,,,,,,,,,,,,,,,,,,,,,,,,
,,,,,,,,,,00001579078,2020-10-23_20h26.35.788,swahili,2020.2.4,MacIntel,60,,,,,,,,,,,,,,,,,,,,,,,,,,,,,,,,,,,,,,,,,,,,,,,,,,,,,,,1,0,1,0,1,,,,,,,,,,,,,,,,,,,,,,,,,,,,,,,,,,,,,,,,,,,
,,,,,,,,,,00001579078,2020-10-23_20h26.35.788,swahili,2020.2.4,MacIntel,60,,,,,,,,,,,,,,,,,,,,,,,,,,,,,,,,,,,,,,,,,,,,,,,,,,,,,,,,,,,,3,0,3,0,1,,,,,,,,,,,,,,,,,,,,,,,,,,,,,,,,,,,,,,
,,,,,,,,,,00001579078,2020-10-23_20h26.35.788,swahili,2020.2.4,MacIntel,60,,,,,,,,,,0.371419271,-0.045746528,1,0,0,1.012815,test_pile,0,0,0,0,1,,,,,,,,,,,,,,,,,,,,,,,,,,,,,,,,,,,,,,,,,,,,,,,,,,,,,,,,,,,,,,,,,,,,,,,,,,,,,,,,,
,,,,,,,,,,00001579078,2020-10-23_20h26.35.788,swahili,2020.2.4,MacIntel,60,,,,,,,,,,-0.26328125,-0.078932292,1,0,0,0.697290001,unsorted_card,1,0,1,0,1,,,,,,,,,,,,,,,,,,,,,,,,,,,,,,,,,,,,,,,,,,,,,,,,,,,,,,,,,,,,,,,,,,,,,,,,,,,,,,,,,
,,,,,,,,,,00001579078,2020-10-23_20h26.35.788,swahili,2020.2.4,MacIntel,60,,,,,,,,,,0.456195747,-0.001623264,1,0,0,1.09984,test_pile,2,0,2,0,1,MERCHANT - TAJIRI,,,,,,,,,,,,,,,,,,,,,,,,,,,,,,,,,,,,,,,,,,,,,,,,,,,,,,,,,,,,,,,,,,,,,,,,,,,,,,,,
,,,,,,,,,,00001579078,2020-10-23_20h26.35.788,swahili,2020.2.4,MacIntel,60,,,,,,,,,,-0.290370009,-0.089496528,1,0,0,0.533220001,unsorted_card,3,0,3,0,1,,,,,,,,,,,,,,,,,,,,,,,,,,,,,,,,,,,,,,,,,,,,,,,,,,,,,,,,,,,,,,,,,,,,,,,,,,,,,,,,,
,,,,,,,,,,00001579078,2020-10-23_20h26.35.788,swahili,2020.2.4,MacIntel,60,,,,,,,,,,0.427571615,0.003532986,1,0,0,3.514625,test_pile,4,0,4,0,1,PARROT - KASUKU,,,,,,,,,,,,,,,,,,,,,,,,,,,,,,,,,,,,,,,,,,,,,,,,,,,,,,,,,,,,,,,,,,,,,,,,,,,,,,,,
,,,,,,,,,,00001579078,2020-10-23_20h26.35.788,swahili,2020.2.4,MacIntel,60,,,,,,,,,,-0.351133898,-0.079861111,1,0,0,0.71246,unsorted_card,5,0,5,0,1,,,,,,,,,,,,,,,,,,,,,,,,,,,,,,,,,,,,,,,,,,,,,,,,,,,,,,,,,,,,,,,,,,,,,,,,,,,,,,,,,
,,,,,,,,,,00001579078,2020-10-23_20h26.35.788,swahili,2020.2.4,MacIntel,60,,,,,,,,,,0.506998698,-0.078663194,1,0,0,1.515695,test_pile,6,0,6,0,1,BULL - FAHILI,,,,,,,,,,,,,,,,,,,,,,,,,,,,,,,,,,,,,,,,,,,,,,,,,,,,,,,,,,,,,,,,,,,,,,,,,,,,,,,,
,,,,,,,,,,00001579078,2020-10-23_20h26.35.788,swahili,2020.2.4,MacIntel,60,,,,,,,,,,-0.208805339,-0.109045139,1,0,0,0.650435,unsorted_card,7,0,7,0,1,,,,,,,,,,,,,,,,,,,,,,,,,,,,,,,,,,,,,,,,,,,,,,,,,,,,,,,,,,,,,,,,,,,,,,,,,,,,,,,,,
,,,,,,,,,,00001579078,2020-10-23_20h26.35.788,swahili,2020.2.4,MacIntel,60,,,,,,,,,,0.451540799,0.061640625,1,0,0,1.75145,test_pile,8,0,8,0,1,PLATE - SAHANI,,,,,,,,,,,,,,,,,,,,,,,,,,,,,,,,,,,,,,,,,,,,,,,,,,,,,,,,,,,,,,,,,,,,,,,,,,,,,,,,
,,,,,,,,,,00001579078,2020-10-23_20h26.35.788,swahili,2020.2.4,MacIntel,60,,,,,,,,,,-0.379833984,-0.014800347,1,0,0,0.594175001,unsorted_card,9,0,9,0,1,,,,,,,,,,,,,,,,,,,,,,,,,,,,,,,,,,,,,,,,,,,,,,,,,,,,,,,,,,,,,,,,,,,,,,,,,,,,,,,,,
,,,,,,,,,,00001579078,2020-10-23_20h26.35.788,swahili,2020.2.4,MacIntel,60,,,,,,,,,,0.416710069,-0.082508681,1,0,0,1.485195,test_pile,10,0,10,0,1,YEAST - HAMIRA,,,,,,,,,,,,,,,,,,,,,,,,,,,,,,,,,,,,,,,,,,,,,,,,,,,,,,,,,,,,,,,,,,,,,,,,,,,,,,,,
,,,,,,,,,,00001579078,2020-10-23_20h26.35.788,swahili,2020.2.4,MacIntel,60,,,,,,,,,,-0.208648003,-0.023715278,1,0,0,0.66307,unsorted_card,11,0,11,0,1,,,,,,,,,,,,,,,,,,,,,,,,,,,,,,,,,,,,,,,,,,,,,,,,,,,,,,,,,,,,,,,,,,,,,,,,,,,,,,,,,
,,,,,,,,,,00001579078,2020-10-23_20h26.35.788,swahili,2020.2.4,MacIntel,60,,,,,,,,,,0.567328559,-0.044088542,1,0,0,1.633154999,test_pile,12,0,12,0,1,BLAME - LAWAMA,,,,,,,,,,,,,,,,,,,,,,,,,,,,,,,,,,,,,,,,,,,,,,,,,,,,,,,,,,,,,,,,,,,,,,,,,,,,,,,,
,,,,,,,,,,00001579078,2020-10-23_20h26.35.788,swahili,2020.2.4,MacIntel,60,,,,,,,,,,-0.2097602,-0.001953125,1,0,0,0.750460001,unsorted_card,13,0,13,0,1,,,,,,,,,,,,,,,,,,,,,,,,,,,,,,,,,,,,,,,,,,,,,,,,,,,,,,,,,,,,,,,,,,,,,,,,,,,,,,,,,
,,,,,,,,,,00001579078,2020-10-23_20h26.35.788,swahili,2020.2.4,MacIntel,60,,,,,,,,,,0.502045356,-0.063585069,1,0,0,1.67971,test_pile,14,0,14,0,1,OATH - YAMINI,,,,,,,,,,,,,,,,,,,,,,,,,,,,,,,,,,,,,,,,,,,,,,,,,,,,,,,,,,,,,,,,,,,,,,,,,,,,,,,,
,,,,,,,,,,00001579078,2020-10-23_20h26.35.788,swahili,2020.2.4,MacIntel,60,,,,,,,,,,-0.286854384,-0.069878472,1,0,0,1.164505,unsorted_card,15,0,15,0,1,,,,,,,,,,,,,,,,,,,,,,,,,,,,,,,,,,,,,,,,,,,,,,,,,,,,,,,,,,,,,,,,,,,,,,,,,,,,,,,,,
,,,,,,,,,,00001579078,2020-10-23_20h26.35.788,swahili,2020.2.4,MacIntel,60,,,,,,,,,,0.406656901,-0.048177083,1,0,0,1.984809999,test_pile,16,0,16,0,1,CORN - NAFAKA,,,,,,,,,,,,,,,,,,,,,,,,,,,,,,,,,,,,,,,,,,,,,,,,,,,,,,,,,,,,,,,,,,,,,,,,,,,,,,,,
,,,,,,,,,,00001579078,2020-10-23_20h26.35.788,swahili,2020.2.4,MacIntel,60,,,,,,,,,,-0.148502604,0.144513889,1,0,0,1.347015,unsorted_card,17,0,17,0,1,,,,,,,,,,,,,,,,,,,,,,,,,,,,,,,,,,,,,,,,,,,,,,,,,,,,,,,,,,,,,,,,,,,,,,,,,,,,,,,,,
,,,,,,,,,,00001579078,2020-10-23_20h26.35.788,swahili,2020.2.4,MacIntel,60,,,,,,,,,,0.44516059,0.025164931,1,0,0,1.31405,test_pile,18,0,18,0,1,POEM - UTENZI,,,,,,,,,,,,,,,,,,,,,,,,,,,,,,,,,,,,,,,,,,,,,,,,,,,,,,,,,,,,,,,,,,,,,,,,,,,,,,,,
,,,,,,,,,,00001579078,2020-10-23_20h26.35.788,swahili,2020.2.4,MacIntel,60,,,,,,,,,,-0.461355252,-0.014861111,1,0,0,0.63296,unsorted_card,19,0,19,0,1,,,,,,,,,,,,,,,,,,,,,,,,,,,,,,,,,,,,,,,,,,,,,,,,,,,,,,,,,,,,,,,,,,,,,,,,,,,,,,,,,
,,,,,,,,,,00001579078,2020-10-23_20h26.35.788,swahili,2020.2.4,MacIntel,60,,,,,,,,,,0.468408203,-0.060407986,1,0,0,1.21461,test_pile,20,0,20,0,1,TAILOR - MSHONI,,,,,,,,,,,,,,,,,,,,,,,,,,,,,,,,,,,,,,,,,,,,,,,,,,,,,,,,,,,,,,,,,,,,,,,,,,,,,,,,
,,,,,,,,,,00001579078,2020-10-23_20h26.35.788,swahili,2020.2.4,MacIntel,60,,,,,,,,,,-0.371386719,-0.059826389,1,0,0,1.399639999,unsorted_card,21,0,21,0,1,,,,,,,,,,,,,,,,,,,,,,,,,,,,,,,,,,,,,,,,,,,,,,,,,,,,,,,,,,,,,,,,,,,,,,,,,,,,,,,,,
,,,,,,,,,,00001579078,2020-10-23_20h26.35.788,swahili,2020.2.4,MacIntel,60,,,,,,,,,,0.422157118,-0.003342014,1,0,0,1.131375,test_pile,22,0,22,0,1,CHEESE - JIBINI,,,,,,,,,,,,,,,,,,,,,,,,,,,,,,,,,,,,,,,,,,,,,,,,,,,,,,,,,,,,,,,,,,,,,,,,,,,,,,,,
,,,,,,,,,,00001579078,2020-10-23_20h26.35.788,swahili,2020.2.4,MacIntel,60,,,,,,,,,,-0.274761285,-0.017786458,1,0,0,1.68233,unsorted_card,23,0,23,0,1,,,,,,,,,,,,,,,,,,,,,,,,,,,,,,,,,,,,,,,,,,,,,,,,,,,,,,,,,,,,,,,,,,,,,,,,,,,,,,,,,
,,,,,,,,,,00001579078,2020-10-23_20h26.35.788,swahili,2020.2.4,MacIntel,60,,,,,,,,,,0.488189019,0.025208333,1,0,0,1.24868,test_pile,24,0,24,0,1,GRAPES - ZABIBU,,,,,,,,,,,,,,,,,,,,,,,,,,,,,,,,,,,,,,,,,,,,,,,,,,,,,,,,,,,,,,,,,,,,,,,,,,,,,,,,
,,,,,,,,,,00001579078,2020-10-23_20h26.35.788,swahili,2020.2.4,MacIntel,60,,,,,,,,,,-0.510584852,-0.059097222,1,0,0,1.265354999,unsorted_card,25,0,25,0,1,,,,,,,,,,,,,,,,,,,,,,,,,,,,,,,,,,,,,,,,,,,,,,,,,,,,,,,,,,,,,,,,,,,,,,,,,,,,,,,,,
,,,,,,,,,,00001579078,2020-10-23_20h26.35.788,swahili,2020.2.4,MacIntel,60,,,,,,,,,,0.412939453,-0.034756944,1,0,0,1.300545,test_pile,26,0,26,0,1,GRAVE - KABURI,,,,,,,,,,,,,,,,,,,,,,,,,,,,,,,,,,,,,,,,,,,,,,,,,,,,,,,,,,,,,,,,,,,,,,,,,,,,,,,,
,,,,,,,,,,00001579078,2020-10-23_20h26.35.788,swahili,2020.2.4,MacIntel,60,,,,,,,,,,-0.416948785,0.043255208,1,0,0,1.31216,unsorted_card,27,0,27,0,1,,,,,,,,,,,,,,,,,,,,,,,,,,,,,,,,,,,,,,,,,,,,,,,,,,,,,,,,,,,,,,,,,,,,,,,,,,,,,,,,,
,,,,,,,,,,00001579078,2020-10-23_20h26.35.788,swahili,2020.2.4,MacIntel,60,,,,,,,,,,0.635682509,-0.037152778,1,0,0,1.269599999,test_pile,28,0,28,0,1,MANURE - SAMADI,,,,,,,,,,,,,,,,,,,,,,,,,,,,,,,,,,,,,,,,,,,,,,,,,,,,,,,,,,,,,,,,,,,,,,,,,,,,,,,,
,,,,,,,,,,00001579078,2020-10-23_20h26.35.788,swahili,2020.2.4,MacIntel,60,,,,,,,,,,-0.236821832,0.039626736,1,0,0,0.665235,unsorted_card,29,0,29,0,1,,,,,,,,,,,,,,,,,,,,,,,,,,,,,,,,,,,,,,,,,,,,,,,,,,,,,,,,,,,,,,,,,,,,,,,,,,,,,,,,,
,,,,,,,,,,00001579078,2020-10-23_20h26.35.788,swahili,2020.2.4,MacIntel,60,,,,,,,,,,0.408420139,0.005833333,1,0,0,1.079024999,test_pile,30,0,30,0,1,AGENT - WAKILI,,,,,,,,,,,,,,,,,,,,,,,,,,,,,,,,,,,,,,,,,,,,,,,,,,,,,,,,,,,,,,,,,,,,,,,,,,,,,,,,
,,,,,,,,,,00001579078,2020-10-23_20h26.35.788,swahili,2020.2.4,MacIntel,60,,,,,,,,,,-0.468381076,0.118975694,1,0,0,0.8822,unsorted_card,31,0,31,0,1,,,,,,,,,,,,,,,,,,,,,,,,,,,,,,,,,,,,,,,,,,,,,,,,,,,,,,,,,,,,,,,,,,,,,,,,,,,,,,,,,
,,,,,,,,,,00001579078,2020-10-23_20h26.35.788,swahili,2020.2.4,MacIntel,60,,,,,,,,,,0.472650825,-0.048081597,1,0,0,1.248695,test_pile,32,0,32,0,1,BRIBE - RUSHWA,,,,,,,,,,,,,,,,,,,,,,,,,,,,,,,,,,,,,,,,,,,,,,,,,,,,,,,,,,,,,,,,,,,,,,,,,,,,,,,,
,,,,,,,,,,00001579078,2020-10-23_20h26.35.788,swahili,2020.2.4,MacIntel,60,,,,,,,,,,-0.514057075,-0.067421875,1,0,0,0.79789,unsorted_card,33,0,33,0,1,,,,,,,,,,,,,,,,,,,,,,,,,,,,,,,,,,,,,,,,,,,,,,,,,,,,,,,,,,,,,,,,,,,,,,,,,,,,,,,,,
,,,,,,,,,,00001579078,2020-10-23_20h26.35.788,swahili,2020.2.4,MacIntel,60,,,,,,,,,,0.401806641,-0.029600694,1,0,0,1.315995,test_pile,34,0,34,0,1,ORPHAN - YATIMA,,,,,,,,,,,,,,,,,,,,,,,,,,,,,,,,,,,,,,,,,,,,,,,,,,,,,,,,,,,,,,,,,,,,,,,,,,,,,,,,
,,,,,,,,,,00001579078,2020-10-23_20h26.35.788,swahili,2020.2.4,MacIntel,60,,,,,,,,,,-0.493207465,-0.078072917,1,0,0,0.764045,unsorted_card,35,0,35,0,1,,,,,,,,,,,,,,,,,,,,,,,,,,,,,,,,,,,,,,,,,,,,,,,,,,,,,,,,,,,,,,,,,,,,,,,,,,,,,,,,,
,,,,,,,,,,00001579078,2020-10-23_20h26.35.788,swahili,2020.2.4,MacIntel,60,,,,,,,,,,0.359369575,-0.000503472,1,0,0,1.014339999,test_pile,36,0,36,0,1,DIVORCE - TALAKA,,,,,,,,,,,,,,,,,,,,,,,,,,,,,,,,,,,,,,,,,,,,,,,,,,,,,,,,,,,,,,,,,,,,,,,,,,,,,,,,
,,,,,,,,,,00001579078,2020-10-23_20h26.35.788,swahili,2020.2.4,MacIntel,60,,,,,,,,,,-0.408181424,0.149149306,1,0,0,1.28152,unsorted_card,37,0,37,0,1,,,,,,,,,,,,,,,,,,,,,,,,,,,,,,,,,,,,,,,,,,,,,,,,,,,,,,,,,,,,,,,,,,,,,,,,,,,,,,,,,
,,,,,,,,,,00001579078,2020-10-23_20h26.35.788,swahili,2020.2.4,MacIntel,60,,,,,,,,,,0.514339193,0.040286458,1,0,0,0.815520001,test_pile,38,0,38,0,1,BOAT - MASHUA,,,,,,,,,,,,,,,,,,,,,,,,,,,,,,,,,,,,,,,,,,,,,,,,,,,,,,,,,,,,,,,,,,,,,,,,,,,,,,,,
,,,,,,,,,,00001579078,2020-10-23_20h26.35.788,swahili,2020.2.4,MacIntel,60,,,,,,,,,,-0.437472873,0.051631944,1,0,0,0.667545,unsorted_card,39,0,39,0,1,,,,,,,,,,,,,,,,,,,,,,,,,,,,,,,,,,,,,,,,,,,,,,,,,,,,,,,,,,,,,,,,,,,,,,,,,,,,,,,,,
,,,,,,,,,,00001579078,2020-10-23_20h26.35.788,swahili,2020.2.4,MacIntel,60,,,,,,,,,,0.545214844,0.064904514,1,0,0,0.848455,test_pile,40,0,40,0,1,TREASURE - DAFINA,,,,,,,,,,,,,,,,,,,,,,,,,,,,,,,,,,,,,,,,,,,,,,,,,,,,,,,,,,,,,,,,,,,,,,,,,,,,,,,,
,,,,,,,,,,00001579078,2020-10-23_20h26.35.788,swahili,2020.2.4,MacIntel,60,,,,,,,,,,,,,,,,,,,,,,,,,,,,,,,,0,0,0,0,1,,,,,,,,,,,,,,,,,,,,,,,,,,,,,,,,,,,,,,,,,,,,,,,,,,,,,,,,,,,,,,,,,,
,,,,,,,,,,00001579078,2020-10-23_20h26.35.788,swahili,2020.2.4,MacIntel,60,,,,,,,,,,,,,,,,,,,,,,,,,,,,,,,,,,,,,return,1.77074,2.311805,0.466677517,-0.020347222,1,0,0,0.966925001,yes,MANURE,SAMADI,incorrect,0,0,0,0,1,,,,,,,,,,,,,,,,,,,,,,,,,,,,,,,,,,,,,,,,,,,,,,,,
,,,,,,,,,,00001579078,2020-10-23_20h26.35.788,swahili,2020.2.4,MacIntel,60,,,,,,,,,,,,,,,,,,,,,,,,,,,,,,,,,,,,,,,1.81567,0.476312934,0.180885417,1,0,0,0.599675,yes,TREASURE,DAFINA,incorrect,1,0,1,0,1,,,,,,,,,,,,,,,,,,,,,,,,,,,,,,,,,,,,,,,,,,,,,,,,
,,,,,,,,,,00001579078,2020-10-23_20h26.35.788,swahili,2020.2.4,MacIntel,60,,,,,,,,,,,,,,,,,,,,,,,,,,,,,,,,,,,,,,,1.880469999,0.46531033,0.1053125,1,0,0,0.61983,yes,CORN,NAFAKA,incorrect,2,0,2,0,1,,,,,,,,,,,,,,,,,,,,,,,,,,,,,,,,,,,,,,,,,,,,,,,,
,,,,,,,,,,00001579078,2020-10-23_20h26.35.788,swahili,2020.2.4,MacIntel,60,,,,,,,,,,,,,,,,,,,,,,,,,,,,,,,,,,,,,,,1.99882,0.378651259,-0.026935764,1,0,0,0.667195,yes,BULL,FAHILI,incorrect,3,0,3,0,1,,,,,,,,,,,,,,,,,,,,,,,,,,,,,,,,,,,,,,,,,,,,,,,,
,,,,,,,,,,00001579078,2020-10-23_20h26.35.788,swahili,2020.2.4,MacIntel,60,,,,,,,,,,,,,,,,,,,,,,,,,,,,,,,,,,,,,,,5.050965,0.319292535,-0.147604167,1,0,0,0.567325,yes,ORPHAN,YAMINI,incorrect,4,0,4,0,1,,,,,,,,,,,,,,,,,,,,,,,,,,,,,,,,,,,,,,,,,,,,,,,,
,,,,,,,,,,00001579078,2020-10-23_20h26.35.788,swahili,2020.2.4,MacIntel,60,,,,,,,,,,,,,,,,,,,,,,,,,,,,,,,,,,,,,,,2.797925,0.338151042,-0.033654514,1,0,0,0.619755,yes,BLAME,LAWAMA,incorrect,5,0,5,0,1,,,,,,,,,,,,,,,,,,,,,,,,,,,,,,,,,,,,,,,,,,,,,,,,
,,,,,,,,,,00001579078,2020-10-23_20h26.35.788,swahili,2020.2.4,MacIntel,60,,,,,,,,,,,,,,,,,,,,,,,,,,,,,,,,,,,,,,,2.816095,0.338009983,-0.042838542,1,0,0,0.635465,yes,POEM,UTENZI,incorrect,6,0,6,0,1,,,,,,,,,,,,,,,,,,,,,,,,,,,,,,,,,,,,,,,,,,,,,,,,
,,,,,,,,,,00001579078,2020-10-23_20h26.35.788,swahili,2020.2.4,MacIntel,60,,,,,,,,,,,,,,,,,,,,,,,,,,,,,,,,,,,,,,,4.281505,0.399609375,0.023263889,1,0,0,0.602750001,yes,GRAPES,ZABIBU,incorrect,7,0,7,0,1,,,,,,,,,,,,,,,,,,,,,,,,,,,,,,,,,,,,,,,,,,,,,,,,
,,,,,,,,,,00001579078,2020-10-23_20h26.35.788,swahili,2020.2.4,MacIntel,60,,,,,,,,,,,,,,,,,,,,,,,,,,,,,,,,,,,,,,,2.39453,0.502853733,0.058637153,1,0,0,0.600895001,yes,GRAVE,KABURI,incorrect,8,0,8,0,1,,,,,,,,,,,,,,,,,,,,,,,,,,,,,,,,,,,,,,,,,,,,,,,,
,,,,,,,,,,00001579078,2020-10-23_20h26.35.788,swahili,2020.2.4,MacIntel,60,,,,,,,,,,,,,,,,,,,,,,,,,,,,,,,,,,,,,,,5.515389999,0.406391059,-0.024331597,1,0,0,0.680935,yes,AGENT,WALIKA,incorrect,9,0,9,0,1,,,,,,,,,,,,,,,,,,,,,,,,,,,,,,,,,,,,,,,,,,,,,,,,
,,,,,,,,,,00001579078,2020-10-23_20h26.35.788,swahili,2020.2.4,MacIntel,60,,,,,,,,,,,,,,,,,,,,,,,,,,,,,,,,,,,,,,,9.560945,0.28977322,-0.159470486,1,0,0,0.600889999,yes,TAILOR,JIBIRI,incorrect,10,0,10,0,1,,,,,,,,,,,,,,,,,,,,,,,,,,,,,,,,,,,,,,,,,,,,,,,,
,,,,,,,,,,00001579078,2020-10-23_20h26.35.788,swahili,2020.2.4,MacIntel,60,,,,,,,,,,,,,,,,,,,,,,,,,,,,,,,,,,,,,,,1.981085001,0.539154731,0.125355903,1,0,0,0.58137,yes,YEAST,HAMIRA,incorrect,11,0,11,0,1,,,,,,,,,,,,,,,,,,,,,,,,,,,,,,,,,,,,,,,,,,,,,,,,
,,,,,,,,,,00001579078,2020-10-23_20h26.35.788,swahili,2020.2.4,MacIntel,60,,,,,,,,,,,,,,,,,,,,,,,,,,,,,,,,,,,,,,,2.232375,0.346234809,0.015147569,1,0,0,0.585025,yes,BOAT,MASHUA,incorrect,12,0,12,0,1,,,,,,,,,,,,,,,,,,,,,,,,,,,,,,,,,,,,,,,,,,,,,,,,
,,,,,,,,,,00001579078,2020-10-23_20h26.35.788,swahili,2020.2.4,MacIntel,60,,,,,,,,,,,,,,,,,,,,,,,,,,,,,,,,,,,,,,,3.6811,0.457877604,-0.040069444,1,0,0,0.586275,yes,PARROT,KASUKU,incorrect,13,0,13,0,1,,,,,,,,,,,,,,,,,,,,,,,,,,,,,,,,,,,,,,,,,,,,,,,,
,,,,,,,,,,00001579078,2020-10-23_20h26.35.788,swahili,2020.2.4,MacIntel,60,,,,,,,,,,,,,,,,,,,,,,,,,,,,,,,,,,,,,,,2.662665,0.302533637,-0.020737847,1,0,0,0.584865,yes,PLATE,SAHANI,incorrect,14,0,14,0,1,,,,,,,,,,,,,,,,,,,,,,,,,,,,,,,,,,,,,,,,,,,,,,,,
,,,,,,,,,,00001579078,2020-10-23_20h26.35.788,swahili,2020.2.4,MacIntel,60,,,,,,,,,,,,,,,,,,,,,,,,,,,,,,,,,,,,,,,5.297325,0.387874349,-0.102934028,1,0,0,0.550615,yes,OATH,YAMIRA,incorrect,15,0,15,0,1,,,,,,,,,,,,,,,,,,,,,,,,,,,,,,,,,,,,,,,,,,,,,,,,
,,,,,,,,,,00001579078,2020-10-23_20h26.35.788,swahili,2020.2.4,MacIntel,60,,,,,,,,,,,,,,,,,,,,,,,,,,,,,,,,,,,,,,,4.199779999,0.375472005,-0.045633681,1,0,0,0.54753,yes,BRIBE,RUSHWA,incorrect,16,0,16,0,1,,,,,,,,,,,,,,,,,,,,,,,,,,,,,,,,,,,,,,,,,,,,,,,,
,,,,,,,,,,00001579078,2020-10-23_20h26.35.788,swahili,2020.2.4,MacIntel,60,,,,,,,,,,,,,,,,,,,,,,,,,,,,,,,,,,,,,,,3.647915,0.253998481,-0.160581597,1,0,0,0.54833,yes,CHEESE,JIBIRI,incorrect,17,0,17,0,1,,,,,,,,,,,,,,,,,,,,,,,,,,,,,,,,,,,,,,,,,,,,,,,,
,,,,,,,,,,00001579078,2020-10-23_20h26.35.788,swahili,2020.2.4,MacIntel,60,,,,,,,,,,,,,,,,,,,,,,,,,,,,,,,,,,,,,,,3.993985,0.605164931,0.290911458,1,0,0,0.536085,yes,MERCHANT,TAMIRA,incorrect,18,0,18,0,1,,,,,,,,,,,,,,,,,,,,,,,,,,,,,,,,,,,,,,,,,,,,,,,,
,,,,,,,,,,00001579078,2020-10-23_20h26.35.788,swahili,2020.2.4,MacIntel,60,,,,,,,,,,,,,,,,,,,,,,,,,,,,,,,,,,,,,,,2.49706,0.309472656,-0.159201389,1,0,0,0.570755,yes,DIVORCE,TALAKA,incorrect,19,0,19,0,1,,,,,,,,,,,,,,,,,,,,,,,,,,,,,,,,,,,,,,,,,,,,,,,,
,,,,,,,,,,00001579078,2020-10-23_20h26.35.788,swahili,2020.2.4,MacIntel,60,,,,,,,,,,,,,,,,,,,,,,,,,,,,,,,,,,,,,,,,,,,,,,,,,,,,,,,0,0,0,0,1,,,,,,,,,,,,,,,,,,,,,,,,,,,,,,,,,,,,,,,,,,,
,,,,,,,,,,00001579078,2020-10-23_20h26.35.788,swahili,2020.2.4,MacIntel,60,,,,,,,,,,,,,,,,,,,,,,,,,,,,,,,,,,,,,,,,,,,,,,,,,,,,,,,1,0,1,0,1,,,,,,,,,,,,,,,,,,,,,,,,,,,,,,,,,,,,,,,,,,,
,,,,,,,,,,00001579078,2020-10-23_20h26.35.788,swahili,2020.2.4,MacIntel,60,,,,,,,,,,,,,,,,,,,,,,,,,,,,,,,,,,,,,,,,,,,,,,,,,,,,,,,,,,,,4,0,4,0,1,,,,,,,,,,,,,,,,,,,,,,,,,,,,,,,,,,,,,,
,,,,,,,,,,00001579078,2020-10-23_20h26.35.788,swahili,2020.2.4,MacIntel,60,,,,,,,,,,0.122265625,-0.194852431,1,0,0,0.24629,unsorted_card,0,0,0,0,1,,,,,,,,,,,,,,,,,,,,,,,,,,,,,,,,,,,,,,,,,,,,,,,,,,,,,,,,,,,,,,,,,,,,,,,,,,,,,,,,,
,,,,,,,,,,00001579078,2020-10-23_20h26.35.788,swahili,2020.2.4,MacIntel,60,,,,,,,,,,0.64750434,0.010894097,1,0,0,1.449440001,test_pile,1,0,1,0,1,MERCHANT - TAJIRI,,,,,,,,,,,,,,,,,,,,,,,,,,,,,,,,,,,,,,,,,,,,,,,,,,,,,,,,,,,,,,,,,,,,,,,,,,,,,,,,
,,,,,,,,,,00001579078,2020-10-23_20h26.35.788,swahili,2020.2.4,MacIntel,60,,,,,,,,,,-0.450737847,-0.155347222,1,0,0,0.59208,unsorted_card,2,0,2,0,1,,,,,,,,,,,,,,,,,,,,,,,,,,,,,,,,,,,,,,,,,,,,,,,,,,,,,,,,,,,,,,,,,,,,,,,,,,,,,,,,,
,,,,,,,,,,00001579078,2020-10-23_20h26.35.788,swahili,2020.2.4,MacIntel,60,,,,,,,,,,0.541444227,-0.03171875,1,0,0,1.334295,test_pile,3,0,3,0,1,PARROT - KASUKU,,,,,,,,,,,,,,,,,,,,,,,,,,,,,,,,,,,,,,,,,,,,,,,,,,,,,,,,,,,,,,,,,,,,,,,,,,,,,,,,
,,,,,,,,,,00001579078,2020-10-23_20h26.35.788,swahili,2020.2.4,MacIntel,60,,,,,,,,,,-0.289518229,-0.067942708,1,0,0,0.563785,unsorted_card,4,0,4,0,1,,,,,,,,,,,,,,,,,,,,,,,,,,,,,,,,,,,,,,,,,,,,,,,,,,,,,,,,,,,,,,,,,,,,,,,,,,,,,,,,,
,,,,,,,,,,00001579078,2020-10-23_20h26.35.788,swahili,2020.2.4,MacIntel,60,,,,,,,,,,0.42546658,-0.004661458,1,0,0,1.38203,test_pile,5,0,5,0,1,BULL - FAHILI,,,,,,,,,,,,,,,,,,,,,,,,,,,,,,,,,,,,,,,,,,,,,,,,,,,,,,,,,,,,,,,,,,,,,,,,,,,,,,,,
,,,,,,,,,,00001579078,2020-10-23_20h26.35.788,swahili,2020.2.4,MacIntel,60,,,,,,,,,,-0.389545356,0.003524306,1,0,0,0.651165,unsorted_card,6,0,6,0,1,,,,,,,,,,,,,,,,,,,,,,,,,,,,,,,,,,,,,,,,,,,,,,,,,,,,,,,,,,,,,,,,,,,,,,,,,,,,,,,,,
,,,,,,,,,,00001579078,2020-10-23_20h26.35.788,swahili,2020.2.4,MacIntel,60,,,,,,,,,,0.534277344,0.039930556,1,0,0,1.2818,test_pile,7,0,7,0,1,PLATE - SAHANI,,,,,,,,,,,,,,,,,,,,,,,,,,,,,,,,,,,,,,,,,,,,,,,,,,,,,,,,,,,,,,,,,,,,,,,,,,,,,,,,
,,,,,,,,,,00001579078,2020-10-23_20h26.35.788,swahili,2020.2.4,MacIntel,60,,,,,,,,,,-0.28164605,-0.003480903,1,0,0,0.99543,unsorted_card,8,0,8,0,1,,,,,,,,,,,,,,,,,,,,,,,,,,,,,,,,,,,,,,,,,,,,,,,,,,,,,,,,,,,,,,,,,,,,,,,,,,,,,,,,,
,,,,,,,,,,00001579078,2020-10-23_20h26.35.788,swahili,2020.2.4,MacIntel,60,,,,,,,,,,0.476068793,-0.063229167,1,0,0,1.084165,test_pile,9,0,9,0,1,YEAST - HAMIRA,,,,,,,,,,,,,,,,,,,,,,,,,,,,,,,,,,,,,,,,,,,,,,,,,,,,,,,,,,,,,,,,,,,,,,,,,,,,,,,,
,,,,,,,,,,00001579078,2020-10-23_20h26.35.788,swahili,2020.2.4,MacIntel,60,,,,,,,,,,-0.412635634,0.14046875,1,0,0,0.602264999,unsorted_card,10,0,10,0,1,,,,,,,,,,,,,,,,,,,,,,,,,,,,,,,,,,,,,,,,,,,,,,,,,,,,,,,,,,,,,,,,,,,,,,,,,,,,,,,,,
,,,,,,,,,,00001579078,2020-10-23_20h26.35.788,swahili,2020.2.4,MacIntel,60,,,,,,,,,,0.365326606,0.022777778,1,0,0,1.580580001,test_pile,11,0,11,0,1,BLAME - LAWAMA,,,,,,,,,,,,,,,,,,,,,,,,,,,,,,,,,,,,,,,,,,,,,,,,,,,,,,,,,,,,,,,,,,,,,,,,,,,,,,,,
,,,,,,,,,,00001579078,2020-10-23_20h26.35.788,swahili,2020.2.4,MacIntel,60,,,,,,,,,,-0.343500434,-0.002170139,1,0,0,1.228585,unsorted_card,12,0,12,0,1,,,,,,,,,,,,,,,,,,,,,,,,,,,,,,,,,,,,,,,,,,,,,,,,,,,,,,,,,,,,,,,,,,,,,,,,,,,,,,,,,
,,,,,,,,,,00001579078,2020-10-23_20h26.35.788,swahili,2020.2.4,MacIntel,60,,,,,,,,,,0.472325304,-0.015529514,1,0,0,1.08244,test_pile,13,0,13,0,1,OATH - YAMINI,,,,,,,,,,,,,,,,,,,,,,,,,,,,,,,,,,,,,,,,,,,,,,,,,,,,,,,,,,,,,,,,,,,,,,,,,,,,,,,,
,,,,,,,,,,00001579078,2020-10-23_20h26.35.788,swahili,2020.2.4,MacIntel,60,,,,,,,,,,-0.225716146,-0.043862847,1,0,0,0.69961,unsorted_card,14,0,14,0,1,,,,,,,,,,,,,,,,,,,,,,,,,,,,,,,,,,,,,,,,,,,,,,,,,,,,,,,,,,,,,,,,,,,,,,,,,,,,,,,,,
,,,,,,,,,,00001579078,2020-10-23_20h26.35.788,swahili,2020.2.4,MacIntel,60,,,,,,,,,,0.470665148,-0.581189236,1,0,0,1.147475,done_pile,15,0,15,0,1,CORN - NAFAKA,,,,,,,,,,,,,,,,,,,,,,,,,,,,,,,,,,,,,,,,,,,,,,,,,,,,,,,,,,,,,,,,,,,,,,,,,,,,,,,,
,,,,,,,,,,00001579078,2020-10-23_20h26.35.788,swahili,2020.2.4,MacIntel,60,,,,,,,,,,-0.285405816,-0.033133681,1,0,0,0.83334,unsorted_card,16,0,16,0,1,,,,,,,,,,,,,,,,,,,,,,,,,,,,,,,,,,,,,,,,,,,,,,,,,,,,,,,,,,,,,,,,,,,,,,,,,,,,,,,,,
,,,,,,,,,,00001579078,2020-10-23_20h26.35.788,swahili,2020.2.4,MacIntel,60,,,,,,,,,,0.497927517,0.061901042,1,0,0,1.24749,test_pile,17,0,17,0,1,POEM - UTENZI,,,,,,,,,,,,,,,,,,,,,,,,,,,,,,,,,,,,,,,,,,,,,,,,,,,,,,,,,,,,,,,,,,,,,,,,,,,,,,,,
,,,,,,,,,,00001579078,2020-10-23_20h26.35.788,swahili,2020.2.4,MacIntel,60,,,,,,,,,,-0.307085503,-0.058368056,1,0,0,0.898775,unsorted_card,18,0,18,0,1,,,,,,,,,,,,,,,,,,,,,,,,,,,,,,,,,,,,,,,,,,,,,,,,,,,,,,,,,,,,,,,,,,,,,,,,,,,,,,,,,
,,,,,,,,,,00001579078,2020-10-23_20h26.35.788,swahili,2020.2.4,MacIntel,60,,,,,,,,,,0.488943142,-0.065902778,1,0,0,1.16596,test_pile,19,0,19,0,1,TAILOR - MSHONI,,,,,,,,,,,,,,,,,,,,,,,,,,,,,,,,,,,,,,,,,,,,,,,,,,,,,,,,,,,,,,,,,,,,,,,,,,,,,,,,
,,,,,,,,,,00001579078,2020-10-23_20h26.35.788,swahili,2020.2.4,MacIntel,60,,,,,,,,,,-0.208371311,0.058871528,1,0,0,1.312325,unsorted_card,20,0,20,0,1,,,,,,,,,,,,,,,,,,,,,,,,,,,,,,,,,,,,,,,,,,,,,,,,,,,,,,,,,,,,,,,,,,,,,,,,,,,,,,,,,
,,,,,,,,,,00001579078,2020-10-23_20h26.35.788,swahili,2020.2.4,MacIntel,60,,,,,,,,,,-0.208371311,0.058871528,1,0,0,0.965679999,unsorted_card,21,0,21,0,1,CHEESE - JIBINI,,,,,,,,,,,,,,,,,,,,,,,,,,,,,,,,,,,,,,,,,,,,,,,,,,,,,,,,,,,,,,,,,,,,,,,,,,,,,,,,
,,,,,,,,,,00001579078,2020-10-23_20h26.35.788,swahili,2020.2.4,MacIntel,60,,,,,,,,,,0.594585503,-0.031953125,1,0,0,0.700065,test_pile,22,0,22,0,1,CHEESE - JIBINI,,,,,,,,,,,,,,,,,,,,,,,,,,,,,,,,,,,,,,,,,,,,,,,,,,,,,,,,,,,,,,,,,,,,,,,,,,,,,,,,
,,,,,,,,,,00001579078,2020-10-23_20h26.35.788,swahili,2020.2.4,MacIntel,60,,,,,,,,,,-0.206732856,-0.013315972,1,0,0,0.662395,unsorted_card,23,0,23,0,1,,,,,,,,,,,,,,,,,,,,,,,,,,,,,,,,,,,,,,,,,,,,,,,,,,,,,,,,,,,,,,,,,,,,,,,,,,,,,,,,,
,,,,,,,,,,00001579078,2020-10-23_20h26.35.788,swahili,2020.2.4,MacIntel,60,,,,,,,,,,0.389686415,-0.496284722,1,0,0,1.09874,done_pile,24,0,24,0,1,GRAPES - ZABIBU,,,,,,,,,,,,,,,,,,,,,,,,,,,,,,,,,,,,,,,,,,,,,,,,,,,,,,,,,,,,,,,,,,,,,,,,,,,,,,,,
,,,,,,,,,,00001579078,2020-10-23_20h26.35.788,swahili,2020.2.4,MacIntel,60,,,,,,,,,,-0.357855903,0.214887153,1,0,0,0.64911,unsorted_card,25,0,25,0,1,,,,,,,,,,,,,,,,,,,,,,,,,,,,,,,,,,,,,,,,,,,,,,,,,,,,,,,,,,,,,,,,,,,,,,,,,,,,,,,,,
,,,,,,,,,,00001579078,2020-10-23_20h26.35.788,swahili,2020.2.4,MacIntel,60,,,,,,,,,,0.445974392,-0.615598958,1,0,0,1.14782,done_pile,26,0,26,0,1,GRAVE - KABURI,,,,,,,,,,,,,,,,,,,,,,,,,,,,,,,,,,,,,,,,,,,,,,,,,,,,,,,,,,,,,,,,,,,,,,,,,,,,,,,,
,,,,,,,,,,00001579078,2020-10-23_20h26.35.788,swahili,2020.2.4,MacIntel,60,,,,,,,,,,-0.236507161,0.040217014,1,0,0,0.783215,unsorted_card,27,0,27,0,1,,,,,,,,,,,,,,,,,,,,,,,,,,,,,,,,,,,,,,,,,,,,,,,,,,,,,,,,,,,,,,,,,,,,,,,,,,,,,,,,,
,,,,,,,,,,00001579078,2020-10-23_20h26.35.788,swahili,2020.2.4,MacIntel,60,,,,,,,,,,0.411735026,-0.047126736,1,0,0,1.26519,test_pile,28,0,28,0,1,MANURE - SAMADI,,,,,,,,,,,,,,,,,,,,,,,,,,,,,,,,,,,,,,,,,,,,,,,,,,,,,,,,,,,,,,,,,,,,,,,,,,,,,,,,
,,,,,,,,,,00001579078,2020-10-23_20h26.35.788,swahili,2020.2.4,MacIntel,60,,,,,,,,,,-0.204117839,-0.059887153,1,0,0,0.6644,unsorted_card,29,0,29,0,1,,,,,,,,,,,,,,,,,,,,,,,,,,,,,,,,,,,,,,,,,,,,,,,,,,,,,,,,,,,,,,,,,,,,,,,,,,,,,,,,,
,,,,,,,,,,00001579078,2020-10-23_20h26.35.788,swahili,2020.2.4,MacIntel,60,,,,,,,,,,0.403998481,-0.020598958,1,0,0,1.16587,test_pile,30,0,30,0,1,AGENT - WAKILI,,,,,,,,,,,,,,,,,,,,,,,,,,,,,,,,,,,,,,,,,,,,,,,,,,,,,,,,,,,,,,,,,,,,,,,,,,,,,,,,
,,,,,,,,,,00001579078,2020-10-23_20h26.35.788,swahili,2020.2.4,MacIntel,60,,,,,,,,,,-0.251264106,0.022413194,1,0,0,1.41429,unsorted_card,31,0,31,0,1,,,,,,,,,,,,,,,,,,,,,,,,,,,,,,,,,,,,,,,,,,,,,,,,,,,,,,,,,,,,,,,,,,,,,,,,,,,,,,,,,
,,,,,,,,,,00001579078,2020-10-23_20h26.35.788,swahili,2020.2.4,MacIntel,60,,,,,,,,,,0.440917969,0.032135417,1,0,0,1.050715,test_pile,32,0,32,0,1,BRIBE - RUSHWA,,,,,,,,,,,,,,,,,,,,,,,,,,,,,,,,,,,,,,,,,,,,,,,,,,,,,,,,,,,,,,,,,,,,,,,,,,,,,,,,
,,,,,,,,,,00001579078,2020-10-23_20h26.35.788,swahili,2020.2.4,MacIntel,60,,,,,,,,,,-0.173681641,0.084409722,1,0,0,0.74788,unsorted_card,33,0,33,0,1,,,,,,,,,,,,,,,,,,,,,,,,,,,,,,,,,,,,,,,,,,,,,,,,,,,,,,,,,,,,,,,,,,,,,,,,,,,,,,,,,
,,,,,,,,,,00001579078,2020-10-23_20h26.35.788,swahili,2020.2.4,MacIntel,60,,,,,,,,,,0.578314887,0.040147569,1,0,0,1.100105001,test_pile,34,0,34,0,1,ORPHAN - YATIMA,,,,,,,,,,,,,,,,,,,,,,,,,,,,,,,,,,,,,,,,,,,,,,,,,,,,,,,,,,,,,,,,,,,,,,,,,,,,,,,,
,,,,,,,,,,00001579078,2020-10-23_20h26.35.788,swahili,2020.2.4,MacIntel,60,,,,,,,,,,-0.311376953,0.005703125,1,0,0,0.646305,unsorted_card,35,0,35,0,1,,,,,,,,,,,,,,,,,,,,,,,,,,,,,,,,,,,,,,,,,,,,,,,,,,,,,,,,,,,,,,,,,,,,,,,,,,,,,,,,,
,,,,,,,,,,00001579078,2020-10-23_20h26.35.788,swahili,2020.2.4,MacIntel,60,,,,,,,,,,0.479557292,-0.468862847,1,0,0,1.215015,done_pile,36,0,36,0,1,DIVORCE - TALAKA,,,,,,,,,,,,,,,,,,,,,,,,,,,,,,,,,,,,,,,,,,,,,,,,,,,,,,,,,,,,,,,,,,,,,,,,,,,,,,,,
,,,,,,,,,,00001579078,2020-10-23_20h26.35.788,swahili,2020.2.4,MacIntel,60,,,,,,,,,,-0.269710286,0.120598958,1,0,0,0.698435,unsorted_card,37,0,37,0,1,,,,,,,,,,,,,,,,,,,,,,,,,,,,,,,,,,,,,,,,,,,,,,,,,,,,,,,,,,,,,,,,,,,,,,,,,,,,,,,,,
,,,,,,,,,,00001579078,2020-10-23_20h26.35.788,swahili,2020.2.4,MacIntel,60,,,,,,,,,,0.460601128,-0.646189236,1,0,0,1.233975,done_pile,38,0,38,0,1,BOAT - MASHUA,,,,,,,,,,,,,,,,,,,,,,,,,,,,,,,,,,,,,,,,,,,,,,,,,,,,,,,,,,,,,,,,,,,,,,,,,,,,,,,,
,,,,,,,,,,00001579078,2020-10-23_20h26.35.788,swahili,2020.2.4,MacIntel,60,,,,,,,,,,-0.137868924,-0.143845486,1,0,0,0.68047,unsorted_card,39,0,39,0,1,,,,,,,,,,,,,,,,,,,,,,,,,,,,,,,,,,,,,,,,,,,,,,,,,,,,,,,,,,,,,,,,,,,,,,,,,,,,,,,,,
,,,,,,,,,,00001579078,2020-10-23_20h26.35.788,swahili,2020.2.4,MacIntel,60,,,,,,,,,,0.39890408,-0.529626736,1,0,0,0.917405,done_pile,40,0,40,0,1,TREASURE - DAFINA,,,,,,,,,,,,,,,,,,,,,,,,,,,,,,,,,,,,,,,,,,,,,,,,,,,,,,,,,,,,,,,,,,,,,,,,,,,,,,,,
,,,,,,,,,,00001579078,2020-10-23_20h26.35.788,swahili,2020.2.4,MacIntel,60,,,,,,,,,,,,,,,,,,,,,,,,,,,,,,,,0,0,0,0,1,,,,,,,,,,,,,,,,,,,,,,,,,,,,,,,,,,,,,,,,,,,,,,,,,,,,,,,,,,,,,,,,,,
,,,,,,,,,,00001579078,2020-10-23_20h26.35.788,swahili,2020.2.4,MacIntel,60,,,,,,,,,,,,,,,,,,,,,,,,,,,,,,,,,,,,,return,1.428685,3.465249999,0.396337891,-0.003723958,1,0,0,0.682365,yes,CHEESE,JIBINI,incorrect,0,0,0,0,1,,,,,,,,,,,,,,,,,,,,,,,,,,,,,,,,,,,,,,,,,,,,,,,,
,,,,,,,,,,00001579078,2020-10-23_20h26.35.788,swahili,2020.2.4,MacIntel,60,,,,,,,,,,,,,,,,,,,,,,,,,,,,,,,,,,,,,,,2.614825,0.30109592,-0.037317708,1,0,0,0.57034,yes,BRIBE,RUSHWA,incorrect,1,0,1,0,1,,,,,,,,,,,,,,,,,,,,,,,,,,,,,,,,,,,,,,,,,,,,,,,,
,,,,,,,,,,00001579078,2020-10-23_20h26.35.788,swahili,2020.2.4,MacIntel,60,,,,,,,,,,,,,,,,,,,,,,,,,,,,,,,,,,,,,,,7.048255,0.31961263,-0.132595486,1,0,0,0.601645,yes,MERCHANT,MSHONI,incorrect,2,0,2,0,1,,,,,,,,,,,,,,,,,,,,,,,,,,,,,,,,,,,,,,,,,,,,,,,,
,,,,,,,,,,00001579078,2020-10-23_20h26.35.788,swahili,2020.2.4,MacIntel,60,,,,,,,,,,,,,,,,,,,,,,,,,,,,,,,,,,,,,,,2.63084,0.369341363,-0.100225694,1,0,0,0.86601,yes,MANURE,SAMADI,incorrect,3,0,3,0,1,,,,,,,,,,,,,,,,,,,,,,,,,,,,,,,,,,,,,,,,,,,,,,,,
,,,,,,,,,,00001579078,2020-10-23_20h26.35.788,swahili,2020.2.4,MacIntel,60,,,,,,,,,,,,,,,,,,,,,,,,,,,,,,,,,,,,,,,2.24658,0.402788628,-0.083723958,1,0,0,0.699419999,yes,BULL,FAHILI,incorrect,4,0,4,0,1,,,,,,,,,,,,,,,,,,,,,,,,,,,,,,,,,,,,,,,,,,,,,,,,
,,,,,,,,,,00001579078,2020-10-23_20h26.35.788,swahili,2020.2.4,MacIntel,60,,,,,,,,,,,,,,,,,,,,,,,,,,,,,,,,,,,,,,,2.363355,0.240115017,-0.100217014,1,0,0,0.568515,yes,PLATE,SAHANI,incorrect,5,0,5,0,1,,,,,,,,,,,,,,,,,,,,,,,,,,,,,,,,,,,,,,,,,,,,,,,,
,,,,,,,,,,00001579078,2020-10-23_20h26.35.788,swahili,2020.2.4,MacIntel,60,,,,,,,,,,,,,,,,,,,,,,,,,,,,,,,,,,,,,,,7.381045,0.337467448,-0.049722222,1,0,0,0.666895,yes,OATH,YAMIRA,incorrect,6,0,6,0,1,,,,,,,,,,,,,,,,,,,,,,,,,,,,,,,,,,,,,,,,,,,,,,,,
,,,,,,,,,,00001579078,2020-10-23_20h26.35.788,swahili,2020.2.4,MacIntel,60,,,,,,,,,,,,,,,,,,,,,,,,,,,,,,,,,,,,,,,2.332335001,0.448659939,-0.120078125,1,0,0,0.60032,yes,YEAST,HAMIRA,incorrect,7,0,7,0,1,,,,,,,,,,,,,,,,,,,,,,,,,,,,,,,,,,,,,,,,,,,,,,,,
,,,,,,,,,,00001579078,2020-10-23_20h26.35.788,swahili,2020.2.4,MacIntel,60,,,,,,,,,,,,,,,,,,,,,,,,,,,,,,,,,,,,,,,3.379515,0.437858073,-0.053046875,1,0,0,0.63297,yes,BLAME,LAWAMA,incorrect,8,0,8,0,1,,,,,,,,,,,,,,,,,,,,,,,,,,,,,,,,,,,,,,,,,,,,,,,,
,,,,,,,,,,00001579078,2020-10-23_20h26.35.788,swahili,2020.2.4,MacIntel,60,,,,,,,,,,,,,,,,,,,,,,,,,,,,,,,,,,,,,,,3.481784999,0.393961589,-0.040659722,1,0,0,0.582885,yes,PARROT,KASUKU,incorrect,9,0,9,0,1,,,,,,,,,,,,,,,,,,,,,,,,,,,,,,,,,,,,,,,,,,,,,,,,
,,,,,,,,,,00001579078,2020-10-23_20h26.35.788,swahili,2020.2.4,MacIntel,60,,,,,,,,,,,,,,,,,,,,,,,,,,,,,,,,,,,,,,,5.048925,0.299088542,-0.1203125,1,0,0,0.531965,yes,TAILOR,MSHONI,incorrect,10,0,10,0,1,,,,,,,,,,,,,,,,,,,,,,,,,,,,,,,,,,,,,,,,,,,,,,,,
,,,,,,,,,,00001579078,2020-10-23_20h26.35.788,swahili,2020.2.4,MacIntel,60,,,,,,,,,,,,,,,,,,,,,,,,,,,,,,,,,,,,,,,7.949485,0.406559245,-0.086727431,1,0,0,0.61359,yes,ORPHAN,YATIMA,incorrect,11,0,11,0,1,,,,,,,,,,,,,,,,,,,,,,,,,,,,,,,,,,,,,,,,,,,,,,,,
,,,,,,,,,,00001579078,2020-10-23_20h26.35.788,swahili,2020.2.4,MacIntel,60,,,,,,,,,,,,,,,,,,,,,,,,,,,,,,,,,,,,,,,3.083415,0.313102214,-0.163350694,1,0,0,0.632209999,yes,AGENT,WAKILI,incorrect,12,0,12,0,1,,,,,,,,,,,,,,,,,,,,,,,,,,,,,,,,,,,,,,,,,,,,,,,,
,,,,,,,,,,00001579078,2020-10-23_20h26.35.788,swahili,2020.2.4,MacIntel,60,,,,,,,,,,,,,,,,,,,,,,,,,,,,,,,,,,,,,,,2.464475,0.462537977,-0.011779514,1,0,0,0.55061,yes,POEM,UTENZI,incorrect,13,0,13,0,1,,,,,,,,,,,,,,,,,,,,,,,,,,,,,,,,,,,,,,,,,,,,,,,,
,,,,,,,,,,00001579078,2020-10-23_20h26.35.788,swahili,2020.2.4,MacIntel,60,,,,,,,,,,,,,,,,,,,,,,,,,,,,,,,,,,,,,,,,,,,,,,,,,,,,,,,0,0,0,0,1,,,,,,,,,,,,,,,,,,,,,,,,,,,,,,,,,,,,,,,,,,,
,,,,,,,,,,00001579078,2020-10-23_20h26.35.788,swahili,2020.2.4,MacIntel,60,,,,,,,,,,,,,,,,,,,,,,,,,,,,,,,,,,,,,,,,,,,,,,,,,,,,,,,1,0,1,0,1,,,,,,,,,,,,,,,,,,,,,,,,,,,,,,,,,,,,,,,,,,,
,,,,,,,,,,00001579078,2020-10-23_20h26.35.788,swahili,2020.2.4,MacIntel,60,,,,,,,,,,,,,,,,,,,,,,,,,,,,,,,,,,,,,,,,,,,,,,,,,,,,,,,,,,,,5,0,5,0,1,,,,,,,,,,,,,,,,,,,,,,,,,,,,,,,,,,,,,,
,,,,,,,,,,00001579078,2020-10-23_20h26.35.788,swahili,2020.2.4,MacIntel,60,,,,,,,,,,-0.204096137,-0.012447917,1,0,0,1.09962,unsorted_card,0,0,0,0,1,,,,,,,,,,,,,,,,,,,,,,,,,,,,,,,,,,,,,,,,,,,,,,,,,,,,,,,,,,,,,,,,,,,,,,,,,,,,,,,,,
,,,,,,,,,,00001579078,2020-10-23_20h26.35.788,swahili,2020.2.4,MacIntel,60,,,,,,,,,,0.750401476,-0.010720486,1,0,0,1.79664,test_pile,1,0,1,0,1,MERCHANT - TAJIRI,,,,,,,,,,,,,,,,,,,,,,,,,,,,,,,,,,,,,,,,,,,,,,,,,,,,,,,,,,,,,,,,,,,,,,,,,,,,,,,,
,,,,,,,,,,00001579078,2020-10-23_20h26.35.788,swahili,2020.2.4,MacIntel,60,,,,,,,,,,-0.219162326,-0.157647569,1,0,0,0.56401,unsorted_card,2,0,2,0,1,,,,,,,,,,,,,,,,,,,,,,,,,,,,,,,,,,,,,,,,,,,,,,,,,,,,,,,,,,,,,,,,,,,,,,,,,,,,,,,,,
,,,,,,,,,,00001579078,2020-10-23_20h26.35.788,swahili,2020.2.4,MacIntel,60,,,,,,,,,,0.499782986,-0.039149306,1,0,0,1.435079999,test_pile,3,0,3,0,1,PARROT - KASUKU,,,,,,,,,,,,,,,,,,,,,,,,,,,,,,,,,,,,,,,,,,,,,,,,,,,,,,,,,,,,,,,,,,,,,,,,,,,,,,,,
,,,,,,,,,,00001579078,2020-10-23_20h26.35.788,swahili,2020.2.4,MacIntel,60,,,,,,,,,,-0.208539497,-0.016354167,1,0,0,0.617355,unsorted_card,4,0,4,0,1,,,,,,,,,,,,,,,,,,,,,,,,,,,,,,,,,,,,,,,,,,,,,,,,,,,,,,,,,,,,,,,,,,,,,,,,,,,,,,,,,
,,,,,,,,,,00001579078,2020-10-23_20h26.35.788,swahili,2020.2.4,MacIntel,60,,,,,,,,,,0.43078342,-0.51578125,1,0,0,0.9469,done_pile,5,0,5,0,1,BULL - FAHILI,,,,,,,,,,,,,,,,,,,,,,,,,,,,,,,,,,,,,,,,,,,,,,,,,,,,,,,,,,,,,,,,,,,,,,,,,,,,,,,,
,,,,,,,,,,00001579078,2020-10-23_20h26.35.788,swahili,2020.2.4,MacIntel,60,,,,,,,,,,-0.269840495,0.032413194,1,0,0,0.581315001,unsorted_card,6,0,6,0,1,,,,,,,,,,,,,,,,,,,,,,,,,,,,,,,,,,,,,,,,,,,,,,,,,,,,,,,,,,,,,,,,,,,,,,,,,,,,,,,,,
,,,,,,,,,,00001579078,2020-10-23_20h26.35.788,swahili,2020.2.4,MacIntel,60,,,,,,,,,,0.456374783,0.079809028,1,0,0,1.00027,test_pile,7,0,7,0,1,PLATE - SAHANI,,,,,,,,,,,,,,,,,,,,,,,,,,,,,,,,,,,,,,,,,,,,,,,,,,,,,,,,,,,,,,,,,,,,,,,,,,,,,,,,
,,,,,,,,,,00001579078,2020-10-23_20h26.35.788,swahili,2020.2.4,MacIntel,60,,,,,,,,,,-0.43336046,-0.015746528,1,0,0,0.56132,unsorted_card,8,0,8,0,1,,,,,,,,,,,,,,,,,,,,,,,,,,,,,,,,,,,,,,,,,,,,,,,,,,,,,,,,,,,,,,,,,,,,,,,,,,,,,,,,,
,,,,,,,,,,00001579078,2020-10-23_20h26.35.788,swahili,2020.2.4,MacIntel,60,,,,,,,,,,0.399131944,0.095677083,1,0,0,1.03437,test_pile,9,0,9,0,1,YEAST - HAMIRA,,,,,,,,,,,,,,,,,,,,,,,,,,,,,,,,,,,,,,,,,,,,,,,,,,,,,,,,,,,,,,,,,,,,,,,,,,,,,,,,
,,,,,,,,,,00001579078,2020-10-23_20h26.35.788,swahili,2020.2.4,MacIntel,60,,,,,,,,,,-0.484206814,0.070538194,1,0,0,0.547084999,unsorted_card,10,0,10,0,1,,,,,,,,,,,,,,,,,,,,,,,,,,,,,,,,,,,,,,,,,,,,,,,,,,,,,,,,,,,,,,,,,,,,,,,,,,,,,,,,,
,,,,,,,,,,00001579078,2020-10-23_20h26.35.788,swahili,2020.2.4,MacIntel,60,,,,,,,,,,0.254589844,-0.409756944,1,0,0,0.9325,done_pile,11,0,11,0,1,BLAME - LAWAMA,,,,,,,,,,,,,,,,,,,,,,,,,,,,,,,,,,,,,,,,,,,,,,,,,,,,,,,,,,,,,,,,,,,,,,,,,,,,,,,,
,,,,,,,,,,00001579078,2020-10-23_20h26.35.788,swahili,2020.2.4,MacIntel,60,,,,,,,,,,-0.440424262,-0.041710069,1,0,0,0.59631,unsorted_card,12,0,12,0,1,,,,,,,,,,,,,,,,,,,,,,,,,,,,,,,,,,,,,,,,,,,,,,,,,,,,,,,,,,,,,,,,,,,,,,,,,,,,,,,,,
,,,,,,,,,,00001579078,2020-10-23_20h26.35.788,swahili,2020.2.4,MacIntel,60,,,,,,,,,,0.362841797,-0.021128472,1,0,0,1.049965,test_pile,13,0,13,0,1,OATH - YAMINI,,,,,,,,,,,,,,,,,,,,,,,,,,,,,,,,,,,,,,,,,,,,,,,,,,,,,,,,,,,,,,,,,,,,,,,,,,,,,,,,
,,,,,,,,,,00001579078,2020-10-23_20h26.35.788,swahili,2020.2.4,MacIntel,60,,,,,,,,,,-0.466482205,0.088298611,1,0,0,0.548260001,unsorted_card,14,0,14,0,1,,,,,,,,,,,,,,,,,,,,,,,,,,,,,,,,,,,,,,,,,,,,,,,,,,,,,,,,,,,,,,,,,,,,,,,,,,,,,,,,,
,,,,,,,,,,00001579078,2020-10-23_20h26.35.788,swahili,2020.2.4,MacIntel,60,,,,,,,,,,0.446912977,-0.084505208,1,0,0,1.16461,test_pile,15,0,15,0,1,POEM - UTENZI,,,,,,,,,,,,,,,,,,,,,,,,,,,,,,,,,,,,,,,,,,,,,,,,,,,,,,,,,,,,,,,,,,,,,,,,,,,,,,,,
,,,,,,,,,,00001579078,2020-10-23_20h26.35.788,swahili,2020.2.4,MacIntel,60,,,,,,,,,,-0.561463759,0.021284722,1,0,0,0.582634999,unsorted_card,16,0,16,0,1,,,,,,,,,,,,,,,,,,,,,,,,,,,,,,,,,,,,,,,,,,,,,,,,,,,,,,,,,,,,,,,,,,,,,,,,,,,,,,,,,
,,,,,,,,,,00001579078,2020-10-23_20h26.35.788,swahili,2020.2.4,MacIntel,60,,,,,,,,,,0.420166016,-0.027881944,1,0,0,0.948155,test_pile,17,0,17,0,1,TAILOR - MSHONI,,,,,,,,,,,,,,,,,,,,,,,,,,,,,,,,,,,,,,,,,,,,,,,,,,,,,,,,,,,,,,,,,,,,,,,,,,,,,,,,
,,,,,,,,,,00001579078,2020-10-23_20h26.35.788,swahili,2020.2.4,MacIntel,60,,,,,,,,,,-0.372249349,0.038923611,1,0,0,0.59748,unsorted_card,18,0,18,0,1,,,,,,,,,,,,,,,,,,,,,,,,,,,,,,,,,,,,,,,,,,,,,,,,,,,,,,,,,,,,,,,,,,,,,,,,,,,,,,,,,
