condition,consent_key.keys,consent_key.rt,done_with_instructions.keys,done_with_instructions.rt,instr_loop.thisRepN,instr_loop.thisTrialN,instr_loop.thisN,instr_loop.thisIndex,instr_loop.ran,Student ID #,date,expName,psychopyVersion,OS,frameRate,instr_learning_key.keys,instr_learning_key.rt,card_gen_loop.thisRepN,card_gen_loop.thisTrialN,card_gen_loop.thisN,card_gen_loop.thisIndex,card_gen_loop.ran,swa,eng,choose_pile.x,choose_pile.y,choose_pile.leftButton,choose_pile.midButton,choose_pile.rightButton,choose_pile.time,choose_pile.clicked_name,choices.thisRepN,choices.thisTrialN,choices.thisN,choices.thisIndex,choices.ran,card_to_show,mouse_pick.x,mouse_pick.y,mouse_pick.leftButton,mouse_pick.midButton,mouse_pick.rightButton,mouse_pick.time,mouse_pick.clicked_name,key_instr_study.keys,key_instr_study.rt,next_study.keys,next_study.rt,study_loop.thisRepN,study_loop.thisTrialN,study_loop.thisN,study_loop.thisIndex,study_loop.ran,key_instr_test.keys,learn_loop.thisRepN,learn_loop.thisTrialN,learn_loop.thisN,learn_loop.thisIndex,learn_loop.ran,trials.thisRepN,trials.thisTrialN,trials.thisN,trials.thisIndex,trials.ran,key_instr_test.rt,duration,yes_or_no.x,yes_or_no.y,yes_or_no.leftButton,yes_or_no.midButton,yes_or_no.rightButton,yes_or_no.time,yes_or_no.clicked_name,test_response.stim,test_response.resp,test_response.eval,test_loop.thisRepN,test_loop.thisTrialN,test_loop.thisN,test_loop.thisIndex,test_loop.ran,instr_movie_key.keys,instr_movie_key.rt,return_to_exp.keys,return_to_exp.rt,instr_assess_key.keys,instr_assess_key.rt,assess_loop.thisRepN,assess_loop.thisTrialN,assess_loop.thisN,assess_loop.thisIndex,assess_loop.ran,ans_gen_loop.thisRepN,ans_gen_loop.thisTrialN,ans_gen_loop.thisN,ans_gen_loop.thisIndex,ans_gen_loop.ran,sen,ans,instr_transfer_key.keys,instr_transfer_key.rt,transfer_response.resp,transfer_response.eval,select_word.x,select_word.y,select_word.leftButton,select_word.midButton,select_word.rightButton,select_word.time,select_word.clicked_name,transfers.thisRepN,transfers.thisTrialN,transfers.thisN,transfers.thisIndex,transfers.ran,end_experiment.keys,end_experiment.rt
2,return,42.67936,return,20.660265,0,0,0,0,1,1537036,2020-10-29_19h57.49.248,swahili,2020.2.4,Win32,60,,,,,,,,,,,,,,,,,,,,,,,,,,,,,,,,,,,,,,,,,,,,,,,,,,,,,,,,,,,,,,,,,,,,,,,,,,,,,,,,,,,,,,,,,,,,,,,,,,,,,,
,,,return,38.654115,1,0,1,0,1,1537036,2020-10-29_19h57.49.248,swahili,2020.2.4,Win32,60,,,,,,,,,,,,,,,,,,,,,,,,,,,,,,,,,,,,,,,,,,,,,,,,,,,,,,,,,,,,,,,,,,,,,,,,,,,,,,,,,,,,,,,,,,,,,,,,,,,,,,
,,,,,,,,,,1537036,2020-10-29_19h57.49.248,swahili,2020.2.4,Win32,60,return,51.12582,0,0,0,0,1,TAJIRI,MERCHANT,,,,,,,,,,,,,,,,,,,,,,,,,,,,,,,,,,,,,,,,,,,,,,,,,,,,,,,,,,,,,,,,,,,,,,,,,,,,,,,,,,,,,,,,,,,,,
,,,,,,,,,,1537036,2020-10-29_19h57.49.248,swahili,2020.2.4,Win32,60,,,0,1,1,1,1,KASUKU,PARROT,,,,,,,,,,,,,,,,,,,,,,,,,,,,,,,,,,,,,,,,,,,,,,,,,,,,,,,,,,,,,,,,,,,,,,,,,,,,,,,,,,,,,,,,,,,,,
,,,,,,,,,,1537036,2020-10-29_19h57.49.248,swahili,2020.2.4,Win32,60,,,0,2,2,2,1,FAHILI,BULL,,,,,,,,,,,,,,,,,,,,,,,,,,,,,,,,,,,,,,,,,,,,,,,,,,,,,,,,,,,,,,,,,,,,,,,,,,,,,,,,,,,,,,,,,,,,,
,,,,,,,,,,1537036,2020-10-29_19h57.49.248,swahili,2020.2.4,Win32,60,,,0,3,3,3,1,SAHANI,PLATE,,,,,,,,,,,,,,,,,,,,,,,,,,,,,,,,,,,,,,,,,,,,,,,,,,,,,,,,,,,,,,,,,,,,,,,,,,,,,,,,,,,,,,,,,,,,,
,,,,,,,,,,1537036,2020-10-29_19h57.49.248,swahili,2020.2.4,Win32,60,,,0,4,4,4,1,HAMIRA,YEAST,,,,,,,,,,,,,,,,,,,,,,,,,,,,,,,,,,,,,,,,,,,,,,,,,,,,,,,,,,,,,,,,,,,,,,,,,,,,,,,,,,,,,,,,,,,,,
,,,,,,,,,,1537036,2020-10-29_19h57.49.248,swahili,2020.2.4,Win32,60,,,0,5,5,5,1,LAWAMA,BLAME,,,,,,,,,,,,,,,,,,,,,,,,,,,,,,,,,,,,,,,,,,,,,,,,,,,,,,,,,,,,,,,,,,,,,,,,,,,,,,,,,,,,,,,,,,,,,
,,,,,,,,,,1537036,2020-10-29_19h57.49.248,swahili,2020.2.4,Win32,60,,,0,6,6,6,1,YAMINI,OATH,,,,,,,,,,,,,,,,,,,,,,,,,,,,,,,,,,,,,,,,,,,,,,,,,,,,,,,,,,,,,,,,,,,,,,,,,,,,,,,,,,,,,,,,,,,,,
,,,,,,,,,,1537036,2020-10-29_19h57.49.248,swahili,2020.2.4,Win32,60,,,0,7,7,7,1,NAFAKA,CORN,,,,,,,,,,,,,,,,,,,,,,,,,,,,,,,,,,,,,,,,,,,,,,,,,,,,,,,,,,,,,,,,,,,,,,,,,,,,,,,,,,,,,,,,,,,,,
,,,,,,,,,,1537036,2020-10-29_19h57.49.248,swahili,2020.2.4,Win32,60,,,0,8,8,8,1,UTENZI,POEM,,,,,,,,,,,,,,,,,,,,,,,,,,,,,,,,,,,,,,,,,,,,,,,,,,,,,,,,,,,,,,,,,,,,,,,,,,,,,,,,,,,,,,,,,,,,,
,,,,,,,,,,1537036,2020-10-29_19h57.49.248,swahili,2020.2.4,Win32,60,,,0,9,9,9,1,MSHONI,TAILOR,,,,,,,,,,,,,,,,,,,,,,,,,,,,,,,,,,,,,,,,,,,,,,,,,,,,,,,,,,,,,,,,,,,,,,,,,,,,,,,,,,,,,,,,,,,,,
,,,,,,,,,,1537036,2020-10-29_19h57.49.248,swahili,2020.2.4,Win32,60,,,0,10,10,10,1,JIBINI,CHEESE,,,,,,,,,,,,,,,,,,,,,,,,,,,,,,,,,,,,,,,,,,,,,,,,,,,,,,,,,,,,,,,,,,,,,,,,,,,,,,,,,,,,,,,,,,,,,
,,,,,,,,,,1537036,2020-10-29_19h57.49.248,swahili,2020.2.4,Win32,60,,,0,11,11,11,1,ZABIBU,GRAPES,,,,,,,,,,,,,,,,,,,,,,,,,,,,,,,,,,,,,,,,,,,,,,,,,,,,,,,,,,,,,,,,,,,,,,,,,,,,,,,,,,,,,,,,,,,,,
,,,,,,,,,,1537036,2020-10-29_19h57.49.248,swahili,2020.2.4,Win32,60,,,0,12,12,12,1,KABURI,GRAVE,,,,,,,,,,,,,,,,,,,,,,,,,,,,,,,,,,,,,,,,,,,,,,,,,,,,,,,,,,,,,,,,,,,,,,,,,,,,,,,,,,,,,,,,,,,,,
,,,,,,,,,,1537036,2020-10-29_19h57.49.248,swahili,2020.2.4,Win32,60,,,0,13,13,13,1,SAMADI,MANURE,,,,,,,,,,,,,,,,,,,,,,,,,,,,,,,,,,,,,,,,,,,,,,,,,,,,,,,,,,,,,,,,,,,,,,,,,,,,,,,,,,,,,,,,,,,,,
,,,,,,,,,,1537036,2020-10-29_19h57.49.248,swahili,2020.2.4,Win32,60,,,0,14,14,14,1,WAKILI,AGENT,,,,,,,,,,,,,,,,,,,,,,,,,,,,,,,,,,,,,,,,,,,,,,,,,,,,,,,,,,,,,,,,,,,,,,,,,,,,,,,,,,,,,,,,,,,,,
,,,,,,,,,,1537036,2020-10-29_19h57.49.248,swahili,2020.2.4,Win32,60,,,0,15,15,15,1,RUSHWA,BRIBE,,,,,,,,,,,,,,,,,,,,,,,,,,,,,,,,,,,,,,,,,,,,,,,,,,,,,,,,,,,,,,,,,,,,,,,,,,,,,,,,,,,,,,,,,,,,,
,,,,,,,,,,1537036,2020-10-29_19h57.49.248,swahili,2020.2.4,Win32,60,,,0,16,16,16,1,YATIMA,ORPHAN,,,,,,,,,,,,,,,,,,,,,,,,,,,,,,,,,,,,,,,,,,,,,,,,,,,,,,,,,,,,,,,,,,,,,,,,,,,,,,,,,,,,,,,,,,,,,
,,,,,,,,,,1537036,2020-10-29_19h57.49.248,swahili,2020.2.4,Win32,60,,,0,17,17,17,1,TALAKA,DIVORCE,,,,,,,,,,,,,,,,,,,,,,,,,,,,,,,,,,,,,,,,,,,,,,,,,,,,,,,,,,,,,,,,,,,,,,,,,,,,,,,,,,,,,,,,,,,,,
,,,,,,,,,,1537036,2020-10-29_19h57.49.248,swahili,2020.2.4,Win32,60,,,0,18,18,18,1,MASHUA,BOAT,,,,,,,,,,,,,,,,,,,,,,,,,,,,,,,,,,,,,,,,,,,,,,,,,,,,,,,,,,,,,,,,,,,,,,,,,,,,,,,,,,,,,,,,,,,,,
,,,,,,,,,,1537036,2020-10-29_19h57.49.248,swahili,2020.2.4,Win32,60,,,0,19,19,19,1,DAFINA,TREASURE,,,,,,,,,,,,,,,,,,,,,,,,,,,,,,,,,,,,,,,,,,,,,,,,,,,,,,,,,,,,,,,,,,,,,,,,,,,,,,,,,,,,,,,,,,,,,
,,,,,,,,,,1537036,2020-10-29_19h57.49.248,swahili,2020.2.4,Win32,60,,,,,,,,,,-0.274999989,-0.001851867,1,0,0,5.704525,unsorted_card,0,0,0,0,1,,,,,,,,,,,,,,,,,,,,,,,,,,,,,,,,,,,,,,,,,,,,,,,,,,,,,,,,,,,,,,,,,,,,,,,,,,,,,,,,,
,,,,,,,,,,1537036,2020-10-29_19h57.49.248,swahili,2020.2.4,Win32,60,,,,,,,,,,0.528125023,0.490740733,1,0,0,5.81199,study_pile,1,0,1,0,1,MERCHANT - TAJIRI,,,,,,,,,,,,,,,,,,,,,,,,,,,,,,,,,,,,,,,,,,,,,,,,,,,,,,,,,,,,,,,,,,,,,,,,,,,,,,,,
,,,,,,,,,,1537036,2020-10-29_19h57.49.248,swahili,2020.2.4,Win32,60,,,,,,,,,,-0.33437499,-0.087037053,1,0,0,1.03603,unsorted_card,2,0,2,0,1,,,,,,,,,,,,,,,,,,,,,,,,,,,,,,,,,,,,,,,,,,,,,,,,,,,,,,,,,,,,,,,,,,,,,,,,,,,,,,,,,
,,,,,,,,,,1537036,2020-10-29_19h57.49.248,swahili,2020.2.4,Win32,60,,,,,,,,,,0.637500024,0.501851844,1,0,0,10.212805,study_pile,3,0,3,0,1,PARROT - KASUKU,,,,,,,,,,,,,,,,,,,,,,,,,,,,,,,,,,,,,,,,,,,,,,,,,,,,,,,,,,,,,,,,,,,,,,,,,,,,,,,,
,,,,,,,,,,1537036,2020-10-29_19h57.49.248,swahili,2020.2.4,Win32,60,,,,,,,,,,-0.198958321,0.087037023,1,0,0,2.224,unsorted_card,4,0,4,0,1,,,,,,,,,,,,,,,,,,,,,,,,,,,,,,,,,,,,,,,,,,,,,,,,,,,,,,,,,,,,,,,,,,,,,,,,,,,,,,,,,
,,,,,,,,,,1537036,2020-10-29_19h57.49.248,swahili,2020.2.4,Win32,60,,,,,,,,,,0.482291689,0.442592584,1,0,0,2.901925,study_pile,5,0,5,0,1,BULL - FAHILI,,,,,,,,,,,,,,,,,,,,,,,,,,,,,,,,,,,,,,,,,,,,,,,,,,,,,,,,,,,,,,,,,,,,,,,,,,,,,,,,
,,,,,,,,,,1537036,2020-10-29_19h57.49.248,swahili,2020.2.4,Win32,60,,,,,,,,,,-0.34062499,-0.181481499,1,0,0,0.55448,unsorted_card,6,0,6,0,1,,,,,,,,,,,,,,,,,,,,,,,,,,,,,,,,,,,,,,,,,,,,,,,,,,,,,,,,,,,,,,,,,,,,,,,,,,,,,,,,,
,,,,,,,,,,1537036,2020-10-29_19h57.49.248,swahili,2020.2.4,Win32,60,,,,,,,,,,0.573958357,0.487037029,1,0,0,4.57253,study_pile,7,0,7,0,1,PLATE - SAHANI,,,,,,,,,,,,,,,,,,,,,,,,,,,,,,,,,,,,,,,,,,,,,,,,,,,,,,,,,,,,,,,,,,,,,,,,,,,,,,,,
,,,,,,,,,,1537036,2020-10-29_19h57.49.248,swahili,2020.2.4,Win32,60,,,,,,,,,,-0.261458322,-0.01481483,1,0,0,0.528425,unsorted_card,8,0,8,0,1,,,,,,,,,,,,,,,,,,,,,,,,,,,,,,,,,,,,,,,,,,,,,,,,,,,,,,,,,,,,,,,,,,,,,,,,,,,,,,,,,
,,,,,,,,,,1537036,2020-10-29_19h57.49.248,swahili,2020.2.4,Win32,60,,,,,,,,,,0.470833355,0.407407399,1,0,0,4.91433,study_pile,9,0,9,0,1,YEAST - HAMIRA,,,,,,,,,,,,,,,,,,,,,,,,,,,,,,,,,,,,,,,,,,,,,,,,,,,,,,,,,,,,,,,,,,,,,,,,,,,,,,,,
,,,,,,,,,,1537036,2020-10-29_19h57.49.248,swahili,2020.2.4,Win32,60,,,,,,,,,,-0.238541655,-0.009259274,1,0,0,0.925185,unsorted_card,10,0,10,0,1,,,,,,,,,,,,,,,,,,,,,,,,,,,,,,,,,,,,,,,,,,,,,,,,,,,,,,,,,,,,,,,,,,,,,,,,,,,,,,,,,
,,,,,,,,,,1537036,2020-10-29_19h57.49.248,swahili,2020.2.4,Win32,60,,,,,,,,,,0.407291688,0.425925917,1,0,0,3.3021,study_pile,11,0,11,0,1,BLAME - LAWAMA,,,,,,,,,,,,,,,,,,,,,,,,,,,,,,,,,,,,,,,,,,,,,,,,,,,,,,,,,,,,,,,,,,,,,,,,,,,,,,,,
,,,,,,,,,,1537036,2020-10-29_19h57.49.248,swahili,2020.2.4,Win32,60,,,,,,,,,,-0.33437499,-0.11296298,1,0,0,0.56668,unsorted_card,12,0,12,0,1,,,,,,,,,,,,,,,,,,,,,,,,,,,,,,,,,,,,,,,,,,,,,,,,,,,,,,,,,,,,,,,,,,,,,,,,,,,,,,,,,
,,,,,,,,,,1537036,2020-10-29_19h57.49.248,swahili,2020.2.4,Win32,60,,,,,,,,,,0.485416689,0.433333325,1,0,0,7.887525,study_pile,13,0,13,0,1,OATH - YAMINI,,,,,,,,,,,,,,,,,,,,,,,,,,,,,,,,,,,,,,,,,,,,,,,,,,,,,,,,,,,,,,,,,,,,,,,,,,,,,,,,
,,,,,,,,,,1537036,2020-10-29_19h57.49.248,swahili,2020.2.4,Win32,60,,,,,,,,,,-0.414583325,-0.138888906,1,0,0,0.45452,unsorted_card,14,0,14,0,1,,,,,,,,,,,,,,,,,,,,,,,,,,,,,,,,,,,,,,,,,,,,,,,,,,,,,,,,,,,,,,,,,,,,,,,,,,,,,,,,,
,,,,,,,,,,1537036,2020-10-29_19h57.49.248,swahili,2020.2.4,Win32,60,,,,,,,,,,0.532291689,0.446296288,1,0,0,8.22736,study_pile,15,0,15,0,1,CORN - NAFAKA,,,,,,,,,,,,,,,,,,,,,,,,,,,,,,,,,,,,,,,,,,,,,,,,,,,,,,,,,,,,,,,,,,,,,,,,,,,,,,,,
,,,,,,,,,,1537036,2020-10-29_19h57.49.248,swahili,2020.2.4,Win32,60,,,,,,,,,,-0.274999989,0.0148148,1,0,0,0.780775,unsorted_card,16,0,16,0,1,,,,,,,,,,,,,,,,,,,,,,,,,,,,,,,,,,,,,,,,,,,,,,,,,,,,,,,,,,,,,,,,,,,,,,,,,,,,,,,,,
,,,,,,,,,,1537036,2020-10-29_19h57.49.248,swahili,2020.2.4,Win32,60,,,,,,,,,,0.529166689,0.509259252,1,0,0,5.163535,study_pile,17,0,17,0,1,POEM - UTENZI,,,,,,,,,,,,,,,,,,,,,,,,,,,,,,,,,,,,,,,,,,,,,,,,,,,,,,,,,,,,,,,,,,,,,,,,,,,,,,,,
,,,,,,,,,,1537036,2020-10-29_19h57.49.248,swahili,2020.2.4,Win32,60,,,,,,,,,,-0.31874999,-0.088888905,1,0,0,0.432165,unsorted_card,18,0,18,0,1,,,,,,,,,,,,,,,,,,,,,,,,,,,,,,,,,,,,,,,,,,,,,,,,,,,,,,,,,,,,,,,,,,,,,,,,,,,,,,,,,
,,,,,,,,,,1537036,2020-10-29_19h57.49.248,swahili,2020.2.4,Win32,60,,,,,,,,,,0.638541691,0.514814808,1,0,0,16.55923,study_pile,19,0,19,0,1,TAILOR - MSHONI,,,,,,,,,,,,,,,,,,,,,,,,,,,,,,,,,,,,,,,,,,,,,,,,,,,,,,,,,,,,,,,,,,,,,,,,,,,,,,,,
,,,,,,,,,,1537036,2020-10-29_19h57.49.248,swahili,2020.2.4,Win32,60,,,,,,,,,,-0.211458258,-0.01481483,1,0,0,0.73918,unsorted_card,20,0,20,0,1,,,,,,,,,,,,,,,,,,,,,,,,,,,,,,,,,,,,,,,,,,,,,,,,,,,,,,,,,,,,,,,,,,,,,,,,,,,,,,,,,
,,,,,,,,,,1537036,2020-10-29_19h57.49.248,swahili,2020.2.4,Win32,60,,,,,,,,,,0.530208483,0.518518511,1,0,0,3.408615,study_pile,21,0,21,0,1,CHEESE - JIBINI,,,,,,,,,,,,,,,,,,,,,,,,,,,,,,,,,,,,,,,,,,,,,,,,,,,,,,,,,,,,,,,,,,,,,,,,,,,,,,,,
,,,,,,,,,,1537036,2020-10-29_19h57.49.248,swahili,2020.2.4,Win32,60,,,,,,,,,,-0.411458325,0.085185172,1,0,0,0.56375,unsorted_card,22,0,22,0,1,,,,,,,,,,,,,,,,,,,,,,,,,,,,,,,,,,,,,,,,,,,,,,,,,,,,,,,,,,,,,,,,,,,,,,,,,,,,,,,,,
,,,,,,,,,,1537036,2020-10-29_19h57.49.248,swahili,2020.2.4,Win32,60,,,,,,,,,,0.485416689,0.449999992,1,0,0,3.01821,study_pile,23,0,23,0,1,GRAPES - ZABIBU,,,,,,,,,,,,,,,,,,,,,,,,,,,,,,,,,,,,,,,,,,,,,,,,,,,,,,,,,,,,,,,,,,,,,,,,,,,,,,,,
,,,,,,,,,,1537036,2020-10-29_19h57.49.248,swahili,2020.2.4,Win32,60,,,,,,,,,,-0.351041657,-0.04444446,1,0,0,1.394475,unsorted_card,24,0,24,0,1,,,,,,,,,,,,,,,,,,,,,,,,,,,,,,,,,,,,,,,,,,,,,,,,,,,,,,,,,,,,,,,,,,,,,,,,,,,,,,,,,
,,,,,,,,,,1537036,2020-10-29_19h57.49.248,swahili,2020.2.4,Win32,60,,,,,,,,,,0.421875021,0.451851844,1,0,0,4.392255,study_pile,25,0,25,0,1,GRAVE - KABURI,,,,,,,,,,,,,,,,,,,,,,,,,,,,,,,,,,,,,,,,,,,,,,,,,,,,,,,,,,,,,,,,,,,,,,,,,,,,,,,,
,,,,,,,,,,1537036,2020-10-29_19h57.49.248,swahili,2020.2.4,Win32,60,,,,,,,,,,-0.417708325,0.155555486,1,0,0,0.531545,unsorted_card,26,0,26,0,1,,,,,,,,,,,,,,,,,,,,,,,,,,,,,,,,,,,,,,,,,,,,,,,,,,,,,,,,,,,,,,,,,,,,,,,,,,,,,,,,,
,,,,,,,,,,1537036,2020-10-29_19h57.49.248,swahili,2020.2.4,Win32,60,,,,,,,,,,0.578125024,0.40555549,1,0,0,3.212135,study_pile,27,0,27,0,1,MANURE - SAMADI,,,,,,,,,,,,,,,,,,,,,,,,,,,,,,,,,,,,,,,,,,,,,,,,,,,,,,,,,,,,,,,,,,,,,,,,,,,,,,,,
,,,,,,,,,,1537036,2020-10-29_19h57.49.248,swahili,2020.2.4,Win32,60,,,,,,,,,,-0.422916658,0.046296282,1,0,0,0.50393,unsorted_card,28,0,28,0,1,,,,,,,,,,,,,,,,,,,,,,,,,,,,,,,,,,,,,,,,,,,,,,,,,,,,,,,,,,,,,,,,,,,,,,,,,,,,,,,,,
,,,,,,,,,,1537036,2020-10-29_19h57.49.248,swahili,2020.2.4,Win32,60,,,,,,,,,,0.452083482,0.398148139,1,0,0,2.189415,study_pile,29,0,29,0,1,AGENT - WAKILI,,,,,,,,,,,,,,,,,,,,,,,,,,,,,,,,,,,,,,,,,,,,,,,,,,,,,,,,,,,,,,,,,,,,,,,,,,,,,,,,
,,,,,,,,,,1537036,2020-10-29_19h57.49.248,swahili,2020.2.4,Win32,60,,,,,,,,,,0.390625021,0.444444436,1,0,0,2.242445,study_pile,30,0,30,0,1,,,,,,,,,,,,,,,,,,,,,,,,,,,,,,,,,,,,,,,,,,,,,,,,,,,,,,,,,,,,,,,,,,,,,,,,,,,,,,,,,
,,,,,,,,,,1537036,2020-10-29_19h57.49.248,swahili,2020.2.4,Win32,60,,,,,,,,,,-0.347916657,0.057407393,1,0,0,0.99731,unsorted_card,31,0,31,0,1,,,,,,,,,,,,,,,,,,,,,,,,,,,,,,,,,,,,,,,,,,,,,,,,,,,,,,,,,,,,,,,,,,,,,,,,,,,,,,,,,
,,,,,,,,,,1537036,2020-10-29_19h57.49.248,swahili,2020.2.4,Win32,60,,,,,,,,,,0.460416688,0.449999992,1,0,0,2.60861,study_pile,32,0,32,0,1,BRIBE - RUSHWA,,,,,,,,,,,,,,,,,,,,,,,,,,,,,,,,,,,,,,,,,,,,,,,,,,,,,,,,,,,,,,,,,,,,,,,,,,,,,,,,
,,,,,,,,,,1537036,2020-10-29_19h57.49.248,swahili,2020.2.4,Win32,60,,,,,,,,,,-0.331249926,0.124074061,1,0,0,0.476705,unsorted_card,33,0,33,0,1,,,,,,,,,,,,,,,,,,,,,,,,,,,,,,,,,,,,,,,,,,,,,,,,,,,,,,,,,,,,,,,,,,,,,,,,,,,,,,,,,
,,,,,,,,,,1537036,2020-10-29_19h57.49.248,swahili,2020.2.4,Win32,60,,,,,,,,,,0.567708357,0.474074066,1,0,0,2.44203,study_pile,34,0,34,0,1,ORPHAN - YATIMA,,,,,,,,,,,,,,,,,,,,,,,,,,,,,,,,,,,,,,,,,,,,,,,,,,,,,,,,,,,,,,,,,,,,,,,,,,,,,,,,
,,,,,,,,,,1537036,2020-10-29_19h57.49.248,swahili,2020.2.4,Win32,60,,,,,,,,,,-0.126041654,0.07407406,1,0,0,0.55258,unsorted_card,35,0,35,0,1,,,,,,,,,,,,,,,,,,,,,,,,,,,,,,,,,,,,,,,,,,,,,,,,,,,,,,,,,,,,,,,,,,,,,,,,,,,,,,,,,
,,,,,,,,,,1537036,2020-10-29_19h57.49.248,swahili,2020.2.4,Win32,60,,,,,,,,,,0.465625022,0.520370363,1,0,0,2.33106,study_pile,36,0,36,0,1,DIVORCE - TALAKA,,,,,,,,,,,,,,,,,,,,,,,,,,,,,,,,,,,,,,,,,,,,,,,,,,,,,,,,,,,,,,,,,,,,,,,,,,,,,,,,
,,,,,,,,,,1537036,2020-10-29_19h57.49.248,swahili,2020.2.4,Win32,60,,,,,,,,,,-0.236458322,0.17222221,1,0,0,1.952945,unsorted_card,37,0,37,0,1,,,,,,,,,,,,,,,,,,,,,,,,,,,,,,,,,,,,,,,,,,,,,,,,,,,,,,,,,,,,,,,,,,,,,,,,,,,,,,,,,
,,,,,,,,,,1537036,2020-10-29_19h57.49.248,swahili,2020.2.4,Win32,60,,,,,,,,,,0.439583355,0.479629622,1,0,0,2.042155,study_pile,38,0,38,0,1,BOAT - MASHUA,,,,,,,,,,,,,,,,,,,,,,,,,,,,,,,,,,,,,,,,,,,,,,,,,,,,,,,,,,,,,,,,,,,,,,,,,,,,,,,,
,,,,,,,,,,1537036,2020-10-29_19h57.49.248,swahili,2020.2.4,Win32,60,,,,,,,,,,-0.341666657,0.08333332,1,0,0,0.518215,unsorted_card,39,0,39,0,1,,,,,,,,,,,,,,,,,,,,,,,,,,,,,,,,,,,,,,,,,,,,,,,,,,,,,,,,,,,,,,,,,,,,,,,,,,,,,,,,,
,,,,,,,,,,1537036,2020-10-29_19h57.49.248,swahili,2020.2.4,Win32,60,,,,,,,,,,0.407291688,0.457407399,1,0,0,2.85305,study_pile,40,0,40,0,1,TREASURE - DAFINA,,,,,,,,,,,,,,,,,,,,,,,,,,,,,,,,,,,,,,,,,,,,,,,,,,,,,,,,,,,,,,,,,,,,,,,,,,,,,,,,
,,,,,,,,,,1537036,2020-10-29_19h57.49.248,swahili,2020.2.4,Win32,60,,,,,,,,,,,,,,,,,,,,,,CHEESE - JIBINI,,,,,,,,return,5.682305,return,14.94832,0,0,0,0,1,,,,,,,,,,,,,,,,,,,,,,,,,,,,,,,,,,,,,,,,,,,,,,,,,,,,,,,,,,,,,,,,
,,,,,,,,,,1537036,2020-10-29_19h57.49.248,swahili,2020.2.4,Win32,60,,,,,,,,,,,,,,,,,,,,,,GRAPES - ZABIBU,,,,,,,,,,return,3.77853,1,0,1,0,1,,,,,,,,,,,,,,,,,,,,,,,,,,,,,,,,,,,,,,,,,,,,,,,,,,,,,,,,,,,,,,,,
,,,,,,,,,,1537036,2020-10-29_19h57.49.248,swahili,2020.2.4,Win32,60,,,,,,,,,,,,,,,,,,,,,,BOAT - MASHUA,,,,,,,,,,return,7.308655,2,0,2,0,1,,,,,,,,,,,,,,,,,,,,,,,,,,,,,,,,,,,,,,,,,,,,,,,,,,,,,,,,,,,,,,,,
,,,,,,,,,,1537036,2020-10-29_19h57.49.248,swahili,2020.2.4,Win32,60,,,,,,,,,,,,,,,,,,,,,,ORPHAN - YATIMA,,,,,,,,,,return,5.97283,3,0,3,0,1,,,,,,,,,,,,,,,,,,,,,,,,,,,,,,,,,,,,,,,,,,,,,,,,,,,,,,,,,,,,,,,,
,,,,,,,,,,1537036,2020-10-29_19h57.49.248,swahili,2020.2.4,Win32,60,,,,,,,,,,,,,,,,,,,,,,AGENT - WAKILI,,,,,,,,,,return,2.607815,4,0,4,0,1,,,,,,,,,,,,,,,,,,,,,,,,,,,,,,,,,,,,,,,,,,,,,,,,,,,,,,,,,,,,,,,,
,,,,,,,,,,1537036,2020-10-29_19h57.49.248,swahili,2020.2.4,Win32,60,,,,,,,,,,,,,,,,,,,,,,POEM - UTENZI,,,,,,,,,,return,10.161385,5,0,5,0,1,,,,,,,,,,,,,,,,,,,,,,,,,,,,,,,,,,,,,,,,,,,,,,,,,,,,,,,,,,,,,,,,
,,,,,,,,,,1537036,2020-10-29_19h57.49.248,swahili,2020.2.4,Win32,60,,,,,,,,,,,,,,,,,,,,,,BLAME - LAWAMA,,,,,,,,,,return,4.81496,6,0,6,0,1,,,,,,,,,,,,,,,,,,,,,,,,,,,,,,,,,,,,,,,,,,,,,,,,,,,,,,,,,,,,,,,,
,,,,,,,,,,1537036,2020-10-29_19h57.49.248,swahili,2020.2.4,Win32,60,,,,,,,,,,,,,,,,,,,,,,YEAST - HAMIRA,,,,,,,,,,return,3.890075,7,0,7,0,1,,,,,,,,,,,,,,,,,,,,,,,,,,,,,,,,,,,,,,,,,,,,,,,,,,,,,,,,,,,,,,,,
,,,,,,,,,,1537036,2020-10-29_19h57.49.248,swahili,2020.2.4,Win32,60,,,,,,,,,,,,,,,,,,,,,,DIVORCE - TALAKA,,,,,,,,,,return,5.73006,8,0,8,0,1,,,,,,,,,,,,,,,,,,,,,,,,,,,,,,,,,,,,,,,,,,,,,,,,,,,,,,,,,,,,,,,,
,,,,,,,,,,1537036,2020-10-29_19h57.49.248,swahili,2020.2.4,Win32,60,,,,,,,,,,,,,,,,,,,,,,BRIBE - RUSHWA,,,,,,,,,,return,6.18157,9,0,9,0,1,,,,,,,,,,,,,,,,,,,,,,,,,,,,,,,,,,,,,,,,,,,,,,,,,,,,,,,,,,,,,,,,
,,,,,,,,,,1537036,2020-10-29_19h57.49.248,swahili,2020.2.4,Win32,60,,,,,,,,,,,,,,,,,,,,,,MANURE - SAMADI,,,,,,,,,,return,3.40575,10,0,10,0,1,,,,,,,,,,,,,,,,,,,,,,,,,,,,,,,,,,,,,,,,,,,,,,,,,,,,,,,,,,,,,,,,
,,,,,,,,,,1537036,2020-10-29_19h57.49.248,swahili,2020.2.4,Win32,60,,,,,,,,,,,,,,,,,,,,,,PLATE - SAHANI,,,,,,,,,,return,3.93136,11,0,11,0,1,,,,,,,,,,,,,,,,,,,,,,,,,,,,,,,,,,,,,,,,,,,,,,,,,,,,,,,,,,,,,,,,
,,,,,,,,,,1537036,2020-10-29_19h57.49.248,swahili,2020.2.4,Win32,60,,,,,,,,,,,,,,,,,,,,,,MERCHANT - TAJIRI,,,,,,,,,,return,2.16006,12,0,12,0,1,,,,,,,,,,,,,,,,,,,,,,,,,,,,,,,,,,,,,,,,,,,,,,,,,,,,,,,,,,,,,,,,
,,,,,,,,,,1537036,2020-10-29_19h57.49.248,swahili,2020.2.4,Win32,60,,,,,,,,,,,,,,,,,,,,,,TAILOR - MSHONI,,,,,,,,,,return,10.954245,13,0,13,0,1,,,,,,,,,,,,,,,,,,,,,,,,,,,,,,,,,,,,,,,,,,,,,,,,,,,,,,,,,,,,,,,,
,,,,,,,,,,1537036,2020-10-29_19h57.49.248,swahili,2020.2.4,Win32,60,,,,,,,,,,,,,,,,,,,,,,GRAVE - KABURI,,,,,,,,,,return,8.01453,14,0,14,0,1,,,,,,,,,,,,,,,,,,,,,,,,,,,,,,,,,,,,,,,,,,,,,,,,,,,,,,,,,,,,,,,,
,,,,,,,,,,1537036,2020-10-29_19h57.49.248,swahili,2020.2.4,Win32,60,,,,,,,,,,,,,,,,,,,,,,BULL - FAHILI,,,,,,,,,,return,4.757385,15,0,15,0,1,,,,,,,,,,,,,,,,,,,,,,,,,,,,,,,,,,,,,,,,,,,,,,,,,,,,,,,,,,,,,,,,
,,,,,,,,,,1537036,2020-10-29_19h57.49.248,swahili,2020.2.4,Win32,60,,,,,,,,,,,,,,,,,,,,,,CORN - NAFAKA,,,,,,,,,,return,6.896345,16,0,16,0,1,,,,,,,,,,,,,,,,,,,,,,,,,,,,,,,,,,,,,,,,,,,,,,,,,,,,,,,,,,,,,,,,
,,,,,,,,,,1537036,2020-10-29_19h57.49.248,swahili,2020.2.4,Win32,60,,,,,,,,,,,,,,,,,,,,,,PARROT - KASUKU,,,,,,,,,,return,5.35634,17,0,17,0,1,,,,,,,,,,,,,,,,,,,,,,,,,,,,,,,,,,,,,,,,,,,,,,,,,,,,,,,,,,,,,,,,
,,,,,,,,,,1537036,2020-10-29_19h57.49.248,swahili,2020.2.4,Win32,60,,,,,,,,,,,,,,,,,,,,,,TREASURE - DAFINA,,,,,,,,,,return,4.06315,18,0,18,0,1,,,,,,,,,,,,,,,,,,,,,,,,,,,,,,,,,,,,,,,,,,,,,,,,,,,,,,,,,,,,,,,,
,,,,,,,,,,1537036,2020-10-29_19h57.49.248,swahili,2020.2.4,Win32,60,,,,,,,,,,,,,,,,,,,,,,OATH - YAMINI,,,,,,,,,,return,2.82769,19,0,19,0,1,,,,,,,,,,,,,,,,,,,,,,,,,,,,,,,,,,,,,,,,,,,,,,,,,,,,,,,,,,,,,,,,
,,,,,,,,,,1537036,2020-10-29_19h57.49.248,swahili,2020.2.4,Win32,60,,,,,,,,,,,,,,,,,,,,,,,,,,,,,,,,,,,,,,,,0,0,0,0,1,,,,,,,,,,,,,,,,,,,,,,,,,,,,,,,,,,,,,,,,,,,,,,,,,,,,,,,,,,
,,,,,,,,,,1537036,2020-10-29_19h57.49.248,swahili,2020.2.4,Win32,60,,,,,,,,,,,,,,,,,,,,,,,,,,,,,,,,,,,,,,,,1,0,1,0,1,,,,,,,,,,,,,,,,,,,,,,,,,,,,,,,,,,,,,,,,,,,,,,,,,,,,,,,,,,
,,,,,,,,,,1537036,2020-10-29_19h57.49.248,swahili,2020.2.4,Win32,60,,,,,,,,,,,,,,,,,,,,,,,,,,,,,,,,,,,,,,,,,,,,,0,0,0,0,1,,,,,,,,,,,,,,,,,,,,,,,,,,,,,,,,,,,,,,,,,,,,,,,,,,,,,
,,,,,,,,,,1537036,2020-10-29_19h57.49.248,swahili,2020.2.4,Win32,60,,,,,,,,,,-0.239583322,0.001851837,1,0,0,1.90872,unsorted_card,0,0,0,0,1,,,,,,,,,,,,,,,,,,,,,,,,,,,,,,,,,,,,,,,,,,,,,,,,,,,,,,,,,,,,,,,,,,,,,,,,,,,,,,,,,
,,,,,,,,,,1537036,2020-10-29_19h57.49.248,swahili,2020.2.4,Win32,60,,,,,,,,,,0.455208355,0.457407399,1,0,0,5.4398,study_pile,1,0,1,0,1,MERCHANT - TAJIRI,,,,,,,,,,,,,,,,,,,,,,,,,,,,,,,,,,,,,,,,,,,,,,,,,,,,,,,,,,,,,,,,,,,,,,,,,,,,,,,,
,,,,,,,,,,1537036,2020-10-29_19h57.49.248,swahili,2020.2.4,Win32,60,,,,,,,,,,-0.12291659,-0.001851867,1,0,0,0.829755,unsorted_card,2,0,2,0,1,,,,,,,,,,,,,,,,,,,,,,,,,,,,,,,,,,,,,,,,,,,,,,,,,,,,,,,,,,,,,,,,,,,,,,,,,,,,,,,,,
,,,,,,,,,,1537036,2020-10-29_19h57.49.248,swahili,2020.2.4,Win32,60,,,,,,,,,,0.422916688,0.47777777,1,0,0,18.88047,study_pile,3,0,3,0,1,PARROT - KASUKU,,,,,,,,,,,,,,,,,,,,,,,,,,,,,,,,,,,,,,,,,,,,,,,,,,,,,,,,,,,,,,,,,,,,,,,,,,,,,,,,
,,,,,,,,,,1537036,2020-10-29_19h57.49.248,swahili,2020.2.4,Win32,60,,,,,,,,,,-0.510416659,-0.212962981,1,0,0,0.970845,unsorted_card,4,0,4,0,1,,,,,,,,,,,,,,,,,,,,,,,,,,,,,,,,,,,,,,,,,,,,,,,,,,,,,,,,,,,,,,,,,,,,,,,,,,,,,,,,,
,,,,,,,,,,1537036,2020-10-29_19h57.49.248,swahili,2020.2.4,Win32,60,,,,,,,,,,0.422916688,0.381481472,1,0,0,4.69265,study_pile,5,0,5,0,1,BULL - FAHILI,,,,,,,,,,,,,,,,,,,,,,,,,,,,,,,,,,,,,,,,,,,,,,,,,,,,,,,,,,,,,,,,,,,,,,,,,,,,,,,,
,,,,,,,,,,1537036,2020-10-29_19h57.49.248,swahili,2020.2.4,Win32,60,,,,,,,,,,-0.56041666,0.001851837,1,0,0,1.157765,unsorted_card,6,0,6,0,1,,,,,,,,,,,,,,,,,,,,,,,,,,,,,,,,,,,,,,,,,,,,,,,,,,,,,,,,,,,,,,,,,,,,,,,,,,,,,,,,,
,,,,,,,,,,1537036,2020-10-29_19h57.49.248,swahili,2020.2.4,Win32,60,,,,,,,,,,0.462500149,0.475925918,1,0,0,2.76722,study_pile,7,0,7,0,1,PLATE - SAHANI,,,,,,,,,,,,,,,,,,,,,,,,,,,,,,,,,,,,,,,,,,,,,,,,,,,,,,,,,,,,,,,,,,,,,,,,,,,,,,,,
,,,,,,,,,,1537036,2020-10-29_19h57.49.248,swahili,2020.2.4,Win32,60,,,,,,,,,,-0.467708294,0.14259258,1,0,0,0.742245,unsorted_card,8,0,8,0,1,,,,,,,,,,,,,,,,,,,,,,,,,,,,,,,,,,,,,,,,,,,,,,,,,,,,,,,,,,,,,,,,,,,,,,,,,,,,,,,,,
,,,,,,,,,,1537036,2020-10-29_19h57.49.248,swahili,2020.2.4,Win32,60,,,,,,,,,,0.483333483,0.540740706,1,0,0,6.628225,study_pile,9,0,9,0,1,YEAST - HAMIRA,,,,,,,,,,,,,,,,,,,,,,,,,,,,,,,,,,,,,,,,,,,,,,,,,,,,,,,,,,,,,,,,,,,,,,,,,,,,,,,,
,,,,,,,,,,1537036,2020-10-29_19h57.49.248,swahili,2020.2.4,Win32,60,,,,,,,,,,-0.368749991,0.116666654,1,0,0,1.548665,unsorted_card,10,0,10,0,1,,,,,,,,,,,,,,,,,,,,,,,,,,,,,,,,,,,,,,,,,,,,,,,,,,,,,,,,,,,,,,,,,,,,,,,,,,,,,,,,,
,,,,,,,,,,1537036,2020-10-29_19h57.49.248,swahili,2020.2.4,Win32,60,,,,,,,,,,0.648958358,0.479629622,1,0,0,20.24222,study_pile,11,0,11,0,1,BLAME - LAWAMA,,,,,,,,,,,,,,,,,,,,,,,,,,,,,,,,,,,,,,,,,,,,,,,,,,,,,,,,,,,,,,,,,,,,,,,,,,,,,,,,
,,,,,,,,,,1537036,2020-10-29_19h57.49.248,swahili,2020.2.4,Win32,60,,,,,,,,,,-0.536458326,0.105555542,1,0,0,1.190875,unsorted_card,12,0,12,0,1,,,,,,,,,,,,,,,,,,,,,,,,,,,,,,,,,,,,,,,,,,,,,,,,,,,,,,,,,,,,,,,,,,,,,,,,,,,,,,,,,
,,,,,,,,,,1537036,2020-10-29_19h57.49.248,swahili,2020.2.4,Win32,60,,,,,,,,,,0.473958355,0.492592585,1,0,0,5.966965,study_pile,13,0,13,0,1,OATH - YAMINI,,,,,,,,,,,,,,,,,,,,,,,,,,,,,,,,,,,,,,,,,,,,,,,,,,,,,,,,,,,,,,,,,,,,,,,,,,,,,,,,
,,,,,,,,,,1537036,2020-10-29_19h57.49.248,swahili,2020.2.4,Win32,60,,,,,,,,,,-0.589583327,-0.148148165,1,0,0,0.87706,unsorted_card,14,0,14,0,1,,,,,,,,,,,,,,,,,,,,,,,,,,,,,,,,,,,,,,,,,,,,,,,,,,,,,,,,,,,,,,,,,,,,,,,,,,,,,,,,,
,,,,,,,,,,1537036,2020-10-29_19h57.49.248,swahili,2020.2.4,Win32,60,,,,,,,,,,0.539583356,0.457407399,1,0,0,13.296165,study_pile,15,0,15,0,1,CORN - NAFAKA,,,,,,,,,,,,,,,,,,,,,,,,,,,,,,,,,,,,,,,,,,,,,,,,,,,,,,,,,,,,,,,,,,,,,,,,,,,,,,,,
,,,,,,,,,,1537036,2020-10-29_19h57.49.248,swahili,2020.2.4,Win32,60,,,,,,,,,,-0.348958324,0.011111096,1,0,0,0.947325,unsorted_card,16,0,16,0,1,,,,,,,,,,,,,,,,,,,,,,,,,,,,,,,,,,,,,,,,,,,,,,,,,,,,,,,,,,,,,,,,,,,,,,,,,,,,,,,,,
,,,,,,,,,,1537036,2020-10-29_19h57.49.248,swahili,2020.2.4,Win32,60,,,,,,,,,,0.476041689,0.498148141,1,0,0,8.20901,study_pile,17,0,17,0,1,POEM - UTENZI,,,,,,,,,,,,,,,,,,,,,,,,,,,,,,,,,,,,,,,,,,,,,,,,,,,,,,,,,,,,,,,,,,,,,,,,,,,,,,,,
,,,,,,,,,,1537036,2020-10-29_19h57.49.248,swahili,2020.2.4,Win32,60,,,,,,,,,,-0.555208327,-0.057407423,1,0,0,0.597855,unsorted_card,18,0,18,0,1,,,,,,,,,,,,,,,,,,,,,,,,,,,,,,,,,,,,,,,,,,,,,,,,,,,,,,,,,,,,,,,,,,,,,,,,,,,,,,,,,
,,,,,,,,,,1537036,2020-10-29_19h57.49.248,swahili,2020.2.4,Win32,60,,,,,,,,,,0.639583485,0.527777771,1,0,0,7.359405,study_pile,19,0,19,0,1,TAILOR - MSHONI,,,,,,,,,,,,,,,,,,,,,,,,,,,,,,,,,,,,,,,,,,,,,,,,,,,,,,,,,,,,,,,,,,,,,,,,,,,,,,,,
,,,,,,,,,,1537036,2020-10-29_19h57.49.248,swahili,2020.2.4,Win32,60,,,,,,,,,,-0.476041659,-0.040740756,1,0,0,0.683215,unsorted_card,20,0,20,0,1,,,,,,,,,,,,,,,,,,,,,,,,,,,,,,,,,,,,,,,,,,,,,,,,,,,,,,,,,,,,,,,,,,,,,,,,,,,,,,,,,
,,,,,,,,,,1537036,2020-10-29_19h57.49.248,swahili,2020.2.4,Win32,60,,,,,,,,,,0.456250022,0.490740733,1,0,0,4.55371,study_pile,21,0,21,0,1,CHEESE - JIBINI,,,,,,,,,,,,,,,,,,,,,,,,,,,,,,,,,,,,,,,,,,,,,,,,,,,,,,,,,,,,,,,,,,,,,,,,,,,,,,,,
,,,,,,,,,,1537036,2020-10-29_19h57.49.248,swahili,2020.2.4,Win32,60,,,,,,,,,,-0.443749992,-0.018518534,1,0,0,0.67293,unsorted_card,22,0,22,0,1,,,,,,,,,,,,,,,,,,,,,,,,,,,,,,,,,,,,,,,,,,,,,,,,,,,,,,,,,,,,,,,,,,,,,,,,,,,,,,,,,
,,,,,,,,,,1537036,2020-10-29_19h57.49.248,swahili,2020.2.4,Win32,60,,,,,,,,,,0.496875022,0.598148142,1,0,0,7.425275,study_pile,23,0,23,0,1,GRAPES - ZABIBU,,,,,,,,,,,,,,,,,,,,,,,,,,,,,,,,,,,,,,,,,,,,,,,,,,,,,,,,,,,,,,,,,,,,,,,,,,,,,,,,
,,,,,,,,,,1537036,2020-10-29_19h57.49.248,swahili,2020.2.4,Win32,60,,,,,,,,,,-0.274999989,0.057407393,1,0,0,1.236905,unsorted_card,24,0,24,0,1,,,,,,,,,,,,,,,,,,,,,,,,,,,,,,,,,,,,,,,,,,,,,,,,,,,,,,,,,,,,,,,,,,,,,,,,,,,,,,,,,
,,,,,,,,,,1537036,2020-10-29_19h57.49.248,swahili,2020.2.4,Win32,60,,,,,,,,,,0.626041691,0.496296289,1,0,0,13.389465,study_pile,25,0,25,0,1,GRAVE - KABURI,,,,,,,,,,,,,,,,,,,,,,,,,,,,,,,,,,,,,,,,,,,,,,,,,,,,,,,,,,,,,,,,,,,,,,,,,,,,,,,,
,,,,,,,,,,1537036,2020-10-29_19h57.49.248,swahili,2020.2.4,Win32,60,,,,,,,,,,-0.463541659,0.138888876,1,0,0,0.53771,unsorted_card,26,0,26,0,1,,,,,,,,,,,,,,,,,,,,,,,,,,,,,,,,,,,,,,,,,,,,,,,,,,,,,,,,,,,,,,,,,,,,,,,,,,,,,,,,,
,,,,,,,,,,1537036,2020-10-29_19h57.49.248,swahili,2020.2.4,Win32,60,,,,,,,,,,0.403125021,0.442592584,1,0,0,2.9282,study_pile,27,0,27,0,1,MANURE - SAMADI,,,,,,,,,,,,,,,,,,,,,,,,,,,,,,,,,,,,,,,,,,,,,,,,,,,,,,,,,,,,,,,,,,,,,,,,,,,,,,,,
,,,,,,,,,,1537036,2020-10-29_19h57.49.248,swahili,2020.2.4,Win32,60,,,,,,,,,,-0.462499992,0.07407406,1,0,0,0.532325,unsorted_card,28,0,28,0,1,,,,,,,,,,,,,,,,,,,,,,,,,,,,,,,,,,,,,,,,,,,,,,,,,,,,,,,,,,,,,,,,,,,,,,,,,,,,,,,,,
,,,,,,,,,,1537036,2020-10-29_19h57.49.248,swahili,2020.2.4,Win32,60,,,,,,,,,,0.436458482,0.422222214,1,0,0,3.50462,study_pile,29,0,29,0,1,AGENT - WAKILI,,,,,,,,,,,,,,,,,,,,,,,,,,,,,,,,,,,,,,,,,,,,,,,,,,,,,,,,,,,,,,,,,,,,,,,,,,,,,,,,
,,,,,,,,,,1537036,2020-10-29_19h57.49.248,swahili,2020.2.4,Win32,60,,,,,,,,,,-0.531249993,-0.168518536,1,0,0,0.93466,unsorted_card,30,0,30,0,1,,,,,,,,,,,,,,,,,,,,,,,,,,,,,,,,,,,,,,,,,,,,,,,,,,,,,,,,,,,,,,,,,,,,,,,,,,,,,,,,,
,,,,,,,,,,1537036,2020-10-29_19h57.49.248,swahili,2020.2.4,Win32,60,,,,,,,,,,0.415625148,0.533333326,1,0,0,7.07864,study_pile,31,0,31,0,1,BRIBE - RUSHWA,,,,,,,,,,,,,,,,,,,,,,,,,,,,,,,,,,,,,,,,,,,,,,,,,,,,,,,,,,,,,,,,,,,,,,,,,,,,,,,,
,,,,,,,,,,1537036,2020-10-29_19h57.49.248,swahili,2020.2.4,Win32,60,,,,,,,,,,-0.406249991,-0.283333352,1,0,0,0.58485,unsorted_card,32,0,32,0,1,,,,,,,,,,,,,,,,,,,,,,,,,,,,,,,,,,,,,,,,,,,,,,,,,,,,,,,,,,,,,,,,,,,,,,,,,,,,,,,,,
,,,,,,,,,,1537036,2020-10-29_19h57.49.248,swahili,2020.2.4,Win32,60,,,,,,,,,,0.357291687,0.372222213,1,0,0,5.28465,study_pile,33,0,33,0,1,ORPHAN - YATIMA,,,,,,,,,,,,,,,,,,,,,,,,,,,,,,,,,,,,,,,,,,,,,,,,,,,,,,,,,,,,,,,,,,,,,,,,,,,,,,,,
,,,,,,,,,,1537036,2020-10-29_19h57.49.248,swahili,2020.2.4,Win32,60,,,,,,,,,,-0.336458323,-0.072222238,1,0,0,0.69802,unsorted_card,34,0,34,0,1,,,,,,,,,,,,,,,,,,,,,,,,,,,,,,,,,,,,,,,,,,,,,,,,,,,,,,,,,,,,,,,,,,,,,,,,,,,,,,,,,
,,,,,,,,,,1537036,2020-10-29_19h57.49.248,swahili,2020.2.4,Win32,60,,,,,,,,,,0.562500023,0.564814808,1,0,0,7.324455,study_pile,35,0,35,0,1,DIVORCE - TALAKA,,,,,,,,,,,,,,,,,,,,,,,,,,,,,,,,,,,,,,,,,,,,,,,,,,,,,,,,,,,,,,,,,,,,,,,,,,,,,,,,
,,,,,,,,,,1537036,2020-10-29_19h57.49.248,swahili,2020.2.4,Win32,60,,,,,,,,,,-0.364583324,0.153703691,1,0,0,0.620025,unsorted_card,36,0,36,0,1,,,,,,,,,,,,,,,,,,,,,,,,,,,,,,,,,,,,,,,,,,,,,,,,,,,,,,,,,,,,,,,,,,,,,,,,,,,,,,,,,
,,,,,,,,,,1537036,2020-10-29_19h57.49.248,swahili,2020.2.4,Win32,60,,,,,,,,,,0.400000148,0.479629622,1,0,0,9.67252,study_pile,37,0,37,0,1,BOAT - MASHUA,,,,,,,,,,,,,,,,,,,,,,,,,,,,,,,,,,,,,,,,,,,,,,,,,,,,,,,,,,,,,,,,,,,,,,,,,,,,,,,,
,,,,,,,,,,1537036,2020-10-29_19h57.49.248,swahili,2020.2.4,Win32,60,,,,,,,,,,-0.363541657,-0.109259276,1,0,0,0.5516,unsorted_card,38,0,38,0,1,,,,,,,,,,,,,,,,,,,,,,,,,,,,,,,,,,,,,,,,,,,,,,,,,,,,,,,,,,,,,,,,,,,,,,,,,,,,,,,,,
,,,,,,,,,,1537036,2020-10-29_19h57.49.248,swahili,2020.2.4,Win32,60,,,,,,,,,,0.412500021,0.524074067,1,0,0,2.66294,study_pile,39,0,39,0,1,TREASURE - DAFINA,,,,,,,,,,,,,,,,,,,,,,,,,,,,,,,,,,,,,,,,,,,,,,,,,,,,,,,,,,,,,,,,,,,,,,,,,,,,,,,,
,,,,,,,,,,1537036,2020-10-29_19h57.49.248,swahili,2020.2.4,Win32,60,,,,,,,,,,,,,,,,,,,,,,GRAPES - ZABIBU,,,,,,,,return,8.260095,return,11.732195,0,0,0,0,1,,,,,,,,,,,,,,,,,,,,,,,,,,,,,,,,,,,,,,,,,,,,,,,,,,,,,,,,,,,,,,,,
,,,,,,,,,,1537036,2020-10-29_19h57.49.248,swahili,2020.2.4,Win32,60,,,,,,,,,,,,,,,,,,,,,,PLATE - SAHANI,,,,,,,,,,return,1.980045,1,0,1,0,1,,,,,,,,,,,,,,,,,,,,,,,,,,,,,,,,,,,,,,,,,,,,,,,,,,,,,,,,,,,,,,,,
,,,,,,,,,,1537036,2020-10-29_19h57.49.248,swahili,2020.2.4,Win32,60,,,,,,,,,,,,,,,,,,,,,,POEM - UTENZI,,,,,,,,,,return,2.118435,2,0,2,0,1,,,,,,,,,,,,,,,,,,,,,,,,,,,,,,,,,,,,,,,,,,,,,,,,,,,,,,,,,,,,,,,,
,,,,,,,,,,1537036,2020-10-29_19h57.49.248,swahili,2020.2.4,Win32,60,,,,,,,,,,,,,,,,,,,,,,TREASURE - DAFINA,,,,,,,,,,return,11.794355,3,0,3,0,1,,,,,,,,,,,,,,,,,,,,,,,,,,,,,,,,,,,,,,,,,,,,,,,,,,,,,,,,,,,,,,,,
,,,,,,,,,,1537036,2020-10-29_19h57.49.248,swahili,2020.2.4,Win32,60,,,,,,,,,,,,,,,,,,,,,,BRIBE - RUSHWA,,,,,,,,,,return,2.119815,4,0,4,0,1,,,,,,,,,,,,,,,,,,,,,,,,,,,,,,,,,,,,,,,,,,,,,,,,,,,,,,,,,,,,,,,,
,,,,,,,,,,1537036,2020-10-29_19h57.49.248,swahili,2020.2.4,Win32,60,,,,,,,,,,,,,,,,,,,,,,GRAVE - KABURI,,,,,,,,,,return,1.66045,5,0,5,0,1,,,,,,,,,,,,,,,,,,,,,,,,,,,,,,,,,,,,,,,,,,,,,,,,,,,,,,,,,,,,,,,,
,,,,,,,,,,1537036,2020-10-29_19h57.49.248,swahili,2020.2.4,Win32,60,,,,,,,,,,,,,,,,,,,,,,DIVORCE - TALAKA,,,,,,,,,,return,1.423615,6,0,6,0,1,,,,,,,,,,,,,,,,,,,,,,,,,,,,,,,,,,,,,,,,,,,,,,,,,,,,,,,,,,,,,,,,
,,,,,,,,,,1537036,2020-10-29_19h57.49.248,swahili,2020.2.4,Win32,60,,,,,,,,,,,,,,,,,,,,,,OATH - YAMINI,,,,,,,,,,return,5.911995,7,0,7,0,1,,,,,,,,,,,,,,,,,,,,,,,,,,,,,,,,,,,,,,,,,,,,,,,,,,,,,,,,,,,,,,,,
,,,,,,,,,,1537036,2020-10-29_19h57.49.248,swahili,2020.2.4,Win32,60,,,,,,,,,,,,,,,,,,,,,,CHEESE - JIBINI,,,,,,,,,,return,1.61401,8,0,8,0,1,,,,,,,,,,,,,,,,,,,,,,,,,,,,,,,,,,,,,,,,,,,,,,,,,,,,,,,,,,,,,,,,
,,,,,,,,,,1537036,2020-10-29_19h57.49.248,swahili,2020.2.4,Win32,60,,,,,,,,,,,,,,,,,,,,,,PARROT - KASUKU,,,,,,,,,,return,1.653105,9,0,9,0,1,,,,,,,,,,,,,,,,,,,,,,,,,,,,,,,,,,,,,,,,,,,,,,,,,,,,,,,,,,,,,,,,
,,,,,,,,,,1537036,2020-10-29_19h57.49.248,swahili,2020.2.4,Win32,60,,,,,,,,,,,,,,,,,,,,,,BLAME - LAWAMA,,,,,,,,,,return,2.520885,10,0,10,0,1,,,,,,,,,,,,,,,,,,,,,,,,,,,,,,,,,,,,,,,,,,,,,,,,,,,,,,,,,,,,,,,,
,,,,,,,,,,1537036,2020-10-29_19h57.49.248,swahili,2020.2.4,Win32,60,,,,,,,,,,,,,,,,,,,,,,MERCHANT - TAJIRI,,,,,,,,,,return,1.73038,11,0,11,0,1,,,,,,,,,,,,,,,,,,,,,,,,,,,,,,,,,,,,,,,,,,,,,,,,,,,,,,,,,,,,,,,,
,,,,,,,,,,1537036,2020-10-29_19h57.49.248,swahili,2020.2.4,Win32,60,,,,,,,,,,,,,,,,,,,,,,MANURE - SAMADI,,,,,,,,,,return,1.503275,12,0,12,0,1,,,,,,,,,,,,,,,,,,,,,,,,,,,,,,,,,,,,,,,,,,,,,,,,,,,,,,,,,,,,,,,,
,,,,,,,,,,1537036,2020-10-29_19h57.49.248,swahili,2020.2.4,Win32,60,,,,,,,,,,,,,,,,,,,,,,TAILOR - MSHONI,,,,,,,,,,return,1.427325,13,0,13,0,1,,,,,,,,,,,,,,,,,,,,,,,,,,,,,,,,,,,,,,,,,,,,,,,,,,,,,,,,,,,,,,,,
,,,,,,,,,,1537036,2020-10-29_19h57.49.248,swahili,2020.2.4,Win32,60,,,,,,,,,,,,,,,,,,,,,,CORN - NAFAKA,,,,,,,,,,return,1.5366,14,0,14,0,1,,,,,,,,,,,,,,,,,,,,,,,,,,,,,,,,,,,,,,,,,,,,,,,,,,,,,,,,,,,,,,,,
,,,,,,,,,,1537036,2020-10-29_19h57.49.248,swahili,2020.2.4,Win32,60,,,,,,,,,,,,,,,,,,,,,,BULL - FAHILI,,,,,,,,,,return,1.451515,15,0,15,0,1,,,,,,,,,,,,,,,,,,,,,,,,,,,,,,,,,,,,,,,,,,,,,,,,,,,,,,,,,,,,,,,,
,,,,,,,,,,1537036,2020-10-29_19h57.49.248,swahili,2020.2.4,Win32,60,,,,,,,,,,,,,,,,,,,,,,BOAT - MASHUA,,,,,,,,,,return,1.768425,16,0,16,0,1,,,,,,,,,,,,,,,,,,,,,,,,,,,,,,,,,,,,,,,,,,,,,,,,,,,,,,,,,,,,,,,,
,,,,,,,,,,1537036,2020-10-29_19h57.49.248,swahili,2020.2.4,Win32,60,,,,,,,,,,,,,,,,,,,,,,YEAST - HAMIRA,,,,,,,,,,return,2.917585,17,0,17,0,1,,,,,,,,,,,,,,,,,,,,,,,,,,,,,,,,,,,,,,,,,,,,,,,,,,,,,,,,,,,,,,,,
,,,,,,,,,,1537036,2020-10-29_19h57.49.248,swahili,2020.2.4,Win32,60,,,,,,,,,,,,,,,,,,,,,,AGENT - WAKILI,,,,,,,,,,return,1.32166,18,0,18,0,1,,,,,,,,,,,,,,,,,,,,,,,,,,,,,,,,,,,,,,,,,,,,,,,,,,,,,,,,,,,,,,,,
,,,,,,,,,,1537036,2020-10-29_19h57.49.248,swahili,2020.2.4,Win32,60,,,,,,,,,,,,,,,,,,,,,,ORPHAN - YATIMA,,,,,,,,,,return,1.56263,19,0,19,0,1,,,,,,,,,,,,,,,,,,,,,,,,,,,,,,,,,,,,,,,,,,,,,,,,,,,,,,,,,,,,,,,,
,,,,,,,,,,1537036,2020-10-29_19h57.49.248,swahili,2020.2.4,Win32,60,,,,,,,,,,,,,,,,,,,,,,,,,,,,,,,,,,,,,,,,0,0,0,0,1,,,,,,,,,,,,,,,,,,,,,,,,,,,,,,,,,,,,,,,,,,,,,,,,,,,,,,,,,,
,,,,,,,,,,1537036,2020-10-29_19h57.49.248,swahili,2020.2.4,Win32,60,,,,,,,,,,,,,,,,,,,,,,,,,,,,,,,,,,,,,,,,1,0,1,0,1,,,,,,,,,,,,,,,,,,,,,,,,,,,,,,,,,,,,,,,,,,,,,,,,,,,,,,,,,,
,,,,,,,,,,1537036,2020-10-29_19h57.49.248,swahili,2020.2.4,Win32,60,,,,,,,,,,,,,,,,,,,,,,,,,,,,,,,,,,,,,,,,,,,,,1,0,1,0,1,,,,,,,,,,,,,,,,,,,,,,,,,,,,,,,,,,,,,,,,,,,,,,,,,,,,,
,,,,,,,,,,1537036,2020-10-29_19h57.49.248,swahili,2020.2.4,Win32,60,,,,,,,,,,-0.181249988,0.035185171,1,0,0,1.90038,unsorted_card,0,0,0,0,1,,,,,,,,,,,,,,,,,,,,,,,,,,,,,,,,,,,,,,,,,,,,,,,,,,,,,,,,,,,,,,,,,,,,,,,,,,,,,,,,,
,,,,,,,,,,1537036,2020-10-29_19h57.49.248,swahili,2020.2.4,Win32,60,,,,,,,,,,0.565625023,0.438888881,1,0,0,8.09308,study_pile,1,0,1,0,1,MERCHANT - TAJIRI,,,,,,,,,,,,,,,,,,,,,,,,,,,,,,,,,,,,,,,,,,,,,,,,,,,,,,,,,,,,,,,,,,,,,,,,,,,,,,,,
,,,,,,,,,,1537036,2020-10-29_19h57.49.248,swahili,2020.2.4,Win32,60,,,,,,,,,,-0.109374987,0.125925913,1,0,0,0.64124,unsorted_card,2,0,2,0,1,,,,,,,,,,,,,,,,,,,,,,,,,,,,,,,,,,,,,,,,,,,,,,,,,,,,,,,,,,,,,,,,,,,,,,,,,,,,,,,,,
,,,,,,,,,,1537036,2020-10-29_19h57.49.248,swahili,2020.2.4,Win32,60,,,,,,,,,,0.471875022,0.035185171,1,0,0,1.957445,test_pile,3,0,3,0,1,PARROT - KASUKU,,,,,,,,,,,,,,,,,,,,,,,,,,,,,,,,,,,,,,,,,,,,,,,,,,,,,,,,,,,,,,,,,,,,,,,,,,,,,,,,
,,,,,,,,,,1537036,2020-10-29_19h57.49.248,swahili,2020.2.4,Win32,60,,,,,,,,,,-0.166666654,-1.4912E-08,1,0,0,0.63534,unsorted_card,4,0,4,0,1,,,,,,,,,,,,,,,,,,,,,,,,,,,,,,,,,,,,,,,,,,,,,,,,,,,,,,,,,,,,,,,,,,,,,,,,,,,,,,,,,
,,,,,,,,,,1537036,2020-10-29_19h57.49.248,swahili,2020.2.4,Win32,60,,,,,,,,,,0.475000022,0.411111102,1,0,0,3.76632,study_pile,5,0,5,0,1,BULL - FAHILI,,,,,,,,,,,,,,,,,,,,,,,,,,,,,,,,,,,,,,,,,,,,,,,,,,,,,,,,,,,,,,,,,,,,,,,,,,,,,,,,
,,,,,,,,,,1537036,2020-10-29_19h57.49.248,swahili,2020.2.4,Win32,60,,,,,,,,,,-0.207291655,0.049999986,1,0,0,0.58209,unsorted_card,6,0,6,0,1,,,,,,,,,,,,,,,,,,,,,,,,,,,,,,,,,,,,,,,,,,,,,,,,,,,,,,,,,,,,,,,,,,,,,,,,,,,,,,,,,
,,,,,,,,,,1537036,2020-10-29_19h57.49.248,swahili,2020.2.4,Win32,60,,,,,,,,,,0.361458354,0.094444431,1,0,0,2.42145,test_pile,7,0,7,0,1,PLATE - SAHANI,,,,,,,,,,,,,,,,,,,,,,,,,,,,,,,,,,,,,,,,,,,,,,,,,,,,,,,,,,,,,,,,,,,,,,,,,,,,,,,,
,,,,,,,,,,1537036,2020-10-29_19h57.49.248,swahili,2020.2.4,Win32,60,,,,,,,,,,-0.274999989,-0.020370386,1,0,0,0.43414,unsorted_card,8,0,8,0,1,,,,,,,,,,,,,,,,,,,,,,,,,,,,,,,,,,,,,,,,,,,,,,,,,,,,,,,,,,,,,,,,,,,,,,,,,,,,,,,,,
,,,,,,,,,,1537036,2020-10-29_19h57.49.248,swahili,2020.2.4,Win32,60,,,,,,,,,,0.467708482,-0.012962978,1,0,0,2.685345,test_pile,9,0,9,0,1,YEAST - HAMIRA,,,,,,,,,,,,,,,,,,,,,,,,,,,,,,,,,,,,,,,,,,,,,,,,,,,,,,,,,,,,,,,,,,,,,,,,,,,,,,,,
,,,,,,,,,,1537036,2020-10-29_19h57.49.248,swahili,2020.2.4,Win32,60,,,,,,,,,,-0.151041654,0.009259244,1,0,0,0.51082,unsorted_card,10,0,10,0,1,,,,,,,,,,,,,,,,,,,,,,,,,,,,,,,,,,,,,,,,,,,,,,,,,,,,,,,,,,,,,,,,,,,,,,,,,,,,,,,,,
,,,,,,,,,,1537036,2020-10-29_19h57.49.248,swahili,2020.2.4,Win32,60,,,,,,,,,,0.436458482,0.422222214,1,0,0,1.963625,study_pile,11,0,11,0,1,BLAME - LAWAMA,,,,,,,,,,,,,,,,,,,,,,,,,,,,,,,,,,,,,,,,,,,,,,,,,,,,,,,,,,,,,,,,,,,,,,,,,,,,,,,,
,,,,,,,,,,1537036,2020-10-29_19h57.49.248,swahili,2020.2.4,Win32,60,,,,,,,,,,-0.31249999,0.077777764,1,0,0,0.51129,unsorted_card,12,0,12,0,1,,,,,,,,,,,,,,,,,,,,,,,,,,,,,,,,,,,,,,,,,,,,,,,,,,,,,,,,,,,,,,,,,,,,,,,,,,,,,,,,,
,,,,,,,,,,1537036,2020-10-29_19h57.49.248,swahili,2020.2.4,Win32,60,,,,,,,,,,0.403125021,0.072222152,1,0,0,1.60194,test_pile,13,0,13,0,1,OATH - YAMINI,,,,,,,,,,,,,,,,,,,,,,,,,,,,,,,,,,,,,,,,,,,,,,,,,,,,,,,,,,,,,,,,,,,,,,,,,,,,,,,,
,,,,,,,,,,1537036,2020-10-29_19h57.49.248,swahili,2020.2.4,Win32,60,,,,,,,,,,-0.278124989,0.072222152,1,0,0,0.51258,unsorted_card,14,0,14,0,1,,,,,,,,,,,,,,,,,,,,,,,,,,,,,,,,,,,,,,,,,,,,,,,,,,,,,,,,,,,,,,,,,,,,,,,,,,,,,,,,,
,,,,,,,,,,1537036,2020-10-29_19h57.49.248,swahili,2020.2.4,Win32,60,,,,,,,,,,0.417708354,0.046296282,1,0,0,1.47032,test_pile,15,0,15,0,1,CORN - NAFAKA,,,,,,,,,,,,,,,,,,,,,,,,,,,,,,,,,,,,,,,,,,,,,,,,,,,,,,,,,,,,,,,,,,,,,,,,,,,,,,,,
,,,,,,,,,,1537036,2020-10-29_19h57.49.248,swahili,2020.2.4,Win32,60,,,,,,,,,,-0.228124988,0.025925911,1,0,0,0.43851,unsorted_card,16,0,16,0,1,,,,,,,,,,,,,,,,,,,,,,,,,,,,,,,,,,,,,,,,,,,,,,,,,,,,,,,,,,,,,,,,,,,,,,,,,,,,,,,,,
,,,,,,,,,,1537036,2020-10-29_19h57.49.248,swahili,2020.2.4,Win32,60,,,,,,,,,,0.35625002,0.062962892,1,0,0,2.071265,test_pile,17,0,17,0,1,POEM - UTENZI,,,,,,,,,,,,,,,,,,,,,,,,,,,,,,,,,,,,,,,,,,,,,,,,,,,,,,,,,,,,,,,,,,,,,,,,,,,,,,,,
,,,,,,,,,,1537036,2020-10-29_19h57.49.248,swahili,2020.2.4,Win32,60,,,,,,,,,,-0.240624989,-0.01481483,1,0,0,0.462405,unsorted_card,18,0,18,0,1,,,,,,,,,,,,,,,,,,,,,,,,,,,,,,,,,,,,,,,,,,,,,,,,,,,,,,,,,,,,,,,,,,,,,,,,,,,,,,,,,
,,,,,,,,,,1537036,2020-10-29_19h57.49.248,swahili,2020.2.4,Win32,60,,,,,,,,,,0.383333354,0.072222152,1,0,0,1.130645,test_pile,19,0,19,0,1,TAILOR - MSHONI,,,,,,,,,,,,,,,,,,,,,,,,,,,,,,,,,,,,,,,,,,,,,,,,,,,,,,,,,,,,,,,,,,,,,,,,,,,,,,,,
,,,,,,,,,,1537036,2020-10-29_19h57.49.248,swahili,2020.2.4,Win32,60,,,,,,,,,,-0.376041657,0.159259247,1,0,0,0.468805,unsorted_card,20,0,20,0,1,,,,,,,,,,,,,,,,,,,,,,,,,,,,,,,,,,,,,,,,,,,,,,,,,,,,,,,,,,,,,,,,,,,,,,,,,,,,,,,,,
,,,,,,,,,,1537036,2020-10-29_19h57.49.248,swahili,2020.2.4,Win32,60,,,,,,,,,,0.456250022,0.051851838,1,0,0,1.67739,test_pile,21,0,21,0,1,CHEESE - JIBINI,,,,,,,,,,,,,,,,,,,,,,,,,,,,,,,,,,,,,,,,,,,,,,,,,,,,,,,,,,,,,,,,,,,,,,,,,,,,,,,,
,,,,,,,,,,1537036,2020-10-29_19h57.49.248,swahili,2020.2.4,Win32,60,,,,,,,,,,-0.241666655,0.055555541,1,0,0,0.441535,unsorted_card,22,0,22,0,1,,,,,,,,,,,,,,,,,,,,,,,,,,,,,,,,,,,,,,,,,,,,,,,,,,,,,,,,,,,,,,,,,,,,,,,,,,,,,,,,,
,,,,,,,,,,1537036,2020-10-29_19h57.49.248,swahili,2020.2.4,Win32,60,,,,,,,,,,0.407291688,0.075925912,1,0,0,2.476555,test_pile,23,0,23,0,1,GRAPES - ZABIBU,,,,,,,,,,,,,,,,,,,,,,,,,,,,,,,,,,,,,,,,,,,,,,,,,,,,,,,,,,,,,,,,,,,,,,,,,,,,,,,,
,,,,,,,,,,1537036,2020-10-29_19h57.49.248,swahili,2020.2.4,Win32,60,,,,,,,,,,-0.148958257,0.020370356,1,0,0,0.47535,unsorted_card,24,0,24,0,1,,,,,,,,,,,,,,,,,,,,,,,,,,,,,,,,,,,,,,,,,,,,,,,,,,,,,,,,,,,,,,,,,,,,,,,,,,,,,,,,,
,,,,,,,,,,1537036,2020-10-29_19h57.49.248,swahili,2020.2.4,Win32,60,,,,,,,,,,0.463541688,0.079629616,1,0,0,1.55372,test_pile,25,0,25,0,1,GRAVE - KABURI,,,,,,,,,,,,,,,,,,,,,,,,,,,,,,,,,,,,,,,,,,,,,,,,,,,,,,,,,,,,,,,,,,,,,,,,,,,,,,,,
,,,,,,,,,,1537036,2020-10-29_19h57.49.248,swahili,2020.2.4,Win32,60,,,,,,,,,,-0.202083321,0.048148134,1,0,0,0.67246,unsorted_card,26,0,26,0,1,,,,,,,,,,,,,,,,,,,,,,,,,,,,,,,,,,,,,,,,,,,,,,,,,,,,,,,,,,,,,,,,,,,,,,,,,,,,,,,,,
,,,,,,,,,,1537036,2020-10-29_19h57.49.248,swahili,2020.2.4,Win32,60,,,,,,,,,,0.463541688,0.564814808,1,0,0,1.28111,study_pile,27,0,27,0,1,MANURE - SAMADI,,,,,,,,,,,,,,,,,,,,,,,,,,,,,,,,,,,,,,,,,,,,,,,,,,,,,,,,,,,,,,,,,,,,,,,,,,,,,,,,
,,,,,,,,,,1537036,2020-10-29_19h57.49.248,swahili,2020.2.4,Win32,60,,,,,,,,,,-0.234374989,0.08333332,1,0,0,0.46922,unsorted_card,28,0,28,0,1,,,,,,,,,,,,,,,,,,,,,,,,,,,,,,,,,,,,,,,,,,,,,,,,,,,,,,,,,,,,,,,,,,,,,,,,,,,,,,,,,
,,,,,,,,,,1537036,2020-10-29_19h57.49.248,swahili,2020.2.4,Win32,60,,,,,,,,,,0.444791688,0.424074065,1,0,0,2.944255,study_pile,29,0,29,0,1,AGENT - WAKILI,,,,,,,,,,,,,,,,,,,,,,,,,,,,,,,,,,,,,,,,,,,,,,,,,,,,,,,,,,,,,,,,,,,,,,,,,,,,,,,,
,,,,,,,,,,1537036,2020-10-29_19h57.49.248,swahili,2020.2.4,Win32,60,,,,,,,,,,-0.247916592,-0.057407423,1,0,0,0.44691,unsorted_card,30,0,30,0,1,,,,,,,,,,,,,,,,,,,,,,,,,,,,,,,,,,,,,,,,,,,,,,,,,,,,,,,,,,,,,,,,,,,,,,,,,,,,,,,,,
,,,,,,,,,,1537036,2020-10-29_19h57.49.248,swahili,2020.2.4,Win32,60,,,,,,,,,,0.469791689,0.462962955,1,0,0,2.74881,study_pile,31,0,31,0,1,BRIBE - RUSHWA,,,,,,,,,,,,,,,,,,,,,,,,,,,,,,,,,,,,,,,,,,,,,,,,,,,,,,,,,,,,,,,,,,,,,,,,,,,,,,,,
,,,,,,,,,,1537036,2020-10-29_19h57.49.248,swahili,2020.2.4,Win32,60,,,,,,,,,,-0.262499989,0.057407393,1,0,0,0.45572,unsorted_card,32,0,32,0,1,,,,,,,,,,,,,,,,,,,,,,,,,,,,,,,,,,,,,,,,,,,,,,,,,,,,,,,,,,,,,,,,,,,,,,,,,,,,,,,,,
,,,,,,,,,,1537036,2020-10-29_19h57.49.248,swahili,2020.2.4,Win32,60,,,,,,,,,,0.471875022,0.461111103,1,0,0,1.42806,study_pile,33,0,33,0,1,ORPHAN - YATIMA,,,,,,,,,,,,,,,,,,,,,,,,,,,,,,,,,,,,,,,,,,,,,,,,,,,,,,,,,,,,,,,,,,,,,,,,,,,,,,,,
,,,,,,,,,,1537036,2020-10-29_19h57.49.248,swahili,2020.2.4,Win32,60,,,,,,,,,,-0.206249925,-0.161111128,1,0,0,0.72094,unsorted_card,34,0,34,0,1,,,,,,,,,,,,,,,,,,,,,,,,,,,,,,,,,,,,,,,,,,,,,,,,,,,,,,,,,,,,,,,,,,,,,,,,,,,,,,,,,
,,,,,,,,,,1537036,2020-10-29_19h57.49.248,swahili,2020.2.4,Win32,60,,,,,,,,,,0.466666689,0.490740733,1,0,0,2.41989,study_pile,35,0,35,0,1,DIVORCE - TALAKA,,,,,,,,,,,,,,,,,,,,,,,,,,,,,,,,,,,,,,,,,,,,,,,,,,,,,,,,,,,,,,,,,,,,,,,,,,,,,,,,
,,,,,,,,,,1537036,2020-10-29_19h57.49.248,swahili,2020.2.4,Win32,60,,,,,,,,,,-0.212499988,0.068518505,1,0,0,0.5112,unsorted_card,36,0,36,0,1,,,,,,,,,,,,,,,,,,,,,,,,,,,,,,,,,,,,,,,,,,,,,,,,,,,,,,,,,,,,,,,,,,,,,,,,,,,,,,,,,
,,,,,,,,,,1537036,2020-10-29_19h57.49.248,swahili,2020.2.4,Win32,60,,,,,,,,,,0.425000021,0.403703695,1,0,0,1.282955,study_pile,37,0,37,0,1,BOAT - MASHUA,,,,,,,,,,,,,,,,,,,,,,,,,,,,,,,,,,,,,,,,,,,,,,,,,,,,,,,,,,,,,,,,,,,,,,,,,,,,,,,,
,,,,,,,,,,1537036,2020-10-29_19h57.49.248,swahili,2020.2.4,Win32,60,,,,,,,,,,-0.317708323,-1.4912E-08,1,0,0,0.585065,unsorted_card,38,0,38,0,1,,,,,,,,,,,,,,,,,,,,,,,,,,,,,,,,,,,,,,,,,,,,,,,,,,,,,,,,,,,,,,,,,,,,,,,,,,,,,,,,,
,,,,,,,,,,1537036,2020-10-29_19h57.49.248,swahili,2020.2.4,Win32,60,,,,,,,,,,0.518750023,0.059259245,1,0,0,1.542405,test_pile,39,0,39,0,1,TREASURE - DAFINA,,,,,,,,,,,,,,,,,,,,,,,,,,,,,,,,,,,,,,,,,,,,,,,,,,,,,,,,,,,,,,,,,,,,,,,,,,,,,,,,
,,,,,,,,,,1537036,2020-10-29_19h57.49.248,swahili,2020.2.4,Win32,60,,,,,,,,,,,,,,,,,,,,,,,0.54791669,-0.072222238,1,0,0,5.353995,test_first,,,,,0,0,0,0,1,,,,,,,,,,,,,,,,,,,,,,,,,,,,,,,,,,,,,,,,,,,,,,,,,,,,,,,,,,,,,,,,
,,,,,,,,,,1537036,2020-10-29_19h57.49.248,swahili,2020.2.4,Win32,60,,,,,,,,,,,,,,,,,,,,,,,,,,,,,,,,,,,,,,,return,,,,,,,,,,,3.65324,12.85586,0.54791669,-0.072222238,1,0,0,1.90589,yes,CHEESE,JAHIRI,incorrect,0,0,0,0,1,,,,,,,,,,,,,,,,,,,,,,,,,,,,,,,,,,,,
,,,,,,,,,,1537036,2020-10-29_19h57.49.248,swahili,2020.2.4,Win32,60,,,,,,,,,,,,,,,,,,,,,,,,,,,,,,,,,,,,,,,,,,,,,,,,,,,6.109005,0.593750024,0.168518506,1,0,0,1.0696,yes,OATH,YAMINI,incorrect,1,0,1,0,1,,,,,,,,,,,,,,,,,,,,,,,,,,,,,,,,,,,,
,,,,,,,,,,1537036,2020-10-29_19h57.49.248,swahili,2020.2.4,Win32,60,,,,,,,,,,,,,,,,,,,,,,,,,,,,,,,,,,,,,,,,,,,,,,,,,,,3.323395,0.53854169,0.072222152,1,0,0,0.90716,yes,CORN,NAFAKA,incorrect,2,0,2,0,1,,,,,,,,,,,,,,,,,,,,,,,,,,,,,,,,,,,,
,,,,,,,,,,1537036,2020-10-29_19h57.49.248,swahili,2020.2.4,Win32,60,,,,,,,,,,,,,,,,,,,,,,,,,,,,,,,,,,,,,,,,,,,,,,,,,,,5.968955,0.435416688,-0.137037054,1,0,0,1.00077,yes,TAILOR,TAHIJI,incorrect,3,0,3,0,1,,,,,,,,,,,,,,,,,,,,,,,,,,,,,,,,,,,,
,,,,,,,,,,1537036,2020-10-29_19h57.49.248,swahili,2020.2.4,Win32,60,,,,,,,,,,,,,,,,,,,,,,,,,,,,,,,,,,,,,,,,,,,,,,,,,,,12.658905,0.37500002,-0.161111128,1,0,0,1.028125,yes,GRAVE,KUBANA,incorrect,4,0,4,0,1,,,,,,,,,,,,,,,,,,,,,,,,,,,,,,,,,,,,
,,,,,,,,,,1537036,2020-10-29_19h57.49.248,swahili,2020.2.4,Win32,60,,,,,,,,,,,,,,,,,,,,,,,,,,,,,,,,,,,,,,,,,,,,,,,,,,,13.027285,0.357291687,-0.164814832,1,0,0,1.014275,yes,GRAPES,ZABIBU,incorrect,5,0,5,0,1,,,,,,,,,,,,,,,,,,,,,,,,,,,,,,,,,,,,
,,,,,,,,,,1537036,2020-10-29_19h57.49.248,swahili,2020.2.4,Win32,60,,,,,,,,,,,,,,,,,,,,,,,,,,,,,,,,,,,,,,,,,,,,,,,,,,,10.69106,0.384375148,-0.057407423,1,0,0,1.014315,yes,PLATE,TAHIRI,incorrect,6,0,6,0,1,,,,,,,,,,,,,,,,,,,,,,,,,,,,,,,,,,,,
,,,,,,,,,,1537036,2020-10-29_19h57.49.248,swahili,2020.2.4,Win32,60,,,,,,,,,,,,,,,,,,,,,,,,,,,,,,,,,,,,,,,,,,,,,,,,,,,6.69459,0.354166687,-0.101851868,1,0,0,1.14295,yes,PARROT,KUZUKU,incorrect,7,0,7,0,1,,,,,,,,,,,,,,,,,,,,,,,,,,,,,,,,,,,,
,,,,,,,,,,1537036,2020-10-29_19h57.49.248,swahili,2020.2.4,Win32,60,,,,,,,,,,,,,,,,,,,,,,,,,,,,,,,,,,,,,,,,,,,,,,,,,,,6.920985,0.388541687,-0.140740758,1,0,0,0.96053,yes,TREASURE,YAFINA,incorrect,8,0,8,0,1,,,,,,,,,,,,,,,,,,,,,,,,,,,,,,,,,,,,
,,,,,,,,,,1537036,2020-10-29_19h57.49.248,swahili,2020.2.4,Win32,60,,,,,,,,,,,,,,,,,,,,,,,,,,,,,,,,,,,,,,,,,,,,,,,,,,,5.726585,0.430208355,-0.111111128,1,0,0,1.06959,yes,YEAST,IDK,incorrect,9,0,9,0,1,,,,,,,,,,,,,,,,,,,,,,,,,,,,,,,,,,,,
,,,,,,,,,,1537036,2020-10-29_19h57.49.248,swahili,2020.2.4,Win32,60,,,,,,,,,,,,,,,,,,,,,,,,,,,,,,,,,,,,,,,,,,,,,,,,,,,4.47604,0.503125022,-0.035185201,1,0,0,0.95247,yes,POEM,UTENZI,incorrect,10,0,10,0,1,,,,,,,,,,,,,,,,,,,,,,,,,,,,,,,,,,,,
,,,,,,,,,,1537036,2020-10-29_19h57.49.248,swahili,2020.2.4,Win32,60,,,,,,,,,,,,,,,,,,,,,,,,,,,,,,,,,,,,,,,,0,0,0,0,1,,,,,,,,,,,,,,,,,,,,,,,,,,,,,,,,,,,,,,,,,,,,,,,,,,,,,,,,,,
,,,,,,,,,,1537036,2020-10-29_19h57.49.248,swahili,2020.2.4,Win32,60,,,,,,,,,,,,,,,,,,,,,,BULL - FAHILI,,,,,,,,return,2.65559,return,2.09431,0,0,0,0,1,,,,,,,,,,,,,,,,,,,,,,,,,,,,,,,,,,,,,,,,,,,,,,,,,,,,,,,,,,,,,,,,
,,,,,,,,,,1537036,2020-10-29_19h57.49.248,swahili,2020.2.4,Win32,60,,,,,,,,,,,,,,,,,,,,,,DIVORCE - TALAKA,,,,,,,,,,return,7.535365,1,0,1,0,1,,,,,,,,,,,,,,,,,,,,,,,,,,,,,,,,,,,,,,,,,,,,,,,,,,,,,,,,,,,,,,,,
,,,,,,,,,,1537036,2020-10-29_19h57.49.248,swahili,2020.2.4,Win32,60,,,,,,,,,,,,,,,,,,,,,,AGENT - WAKILI,,,,,,,,,,return,7.9055,2,0,2,0,1,,,,,,,,,,,,,,,,,,,,,,,,,,,,,,,,,,,,,,,,,,,,,,,,,,,,,,,,,,,,,,,,
,,,,,,,,,,1537036,2020-10-29_19h57.49.248,swahili,2020.2.4,Win32,60,,,,,,,,,,,,,,,,,,,,,,BOAT - MASHUA,,,,,,,,,,return,5.36308,3,0,3,0,1,,,,,,,,,,,,,,,,,,,,,,,,,,,,,,,,,,,,,,,,,,,,,,,,,,,,,,,,,,,,,,,,
,,,,,,,,,,1537036,2020-10-29_19h57.49.248,swahili,2020.2.4,Win32,60,,,,,,,,,,,,,,,,,,,,,,MERCHANT - TAJIRI,,,,,,,,,,return,2.1255,4,0,4,0,1,,,,,,,,,,,,,,,,,,,,,,,,,,,,,,,,,,,,,,,,,,,,,,,,,,,,,,,,,,,,,,,,
,,,,,,,,,,1537036,2020-10-29_19h57.49.248,swahili,2020.2.4,Win32,60,,,,,,,,,,,,,,,,,,,,,,MANURE - SAMADI,,,,,,,,,,return,9.03576,5,0,5,0,1,,,,,,,,,,,,,,,,,,,,,,,,,,,,,,,,,,,,,,,,,,,,,,,,,,,,,,,,,,,,,,,,
,,,,,,,,,,1537036,2020-10-29_19h57.49.248,swahili,2020.2.4,Win32,60,,,,,,,,,,,,,,,,,,,,,,ORPHAN - YATIMA,,,,,,,,,,return,1.47505,6,0,6,0,1,,,,,,,,,,,,,,,,,,,,,,,,,,,,,,,,,,,,,,,,,,,,,,,,,,,,,,,,,,,,,,,,
,,,,,,,,,,1537036,2020-10-29_19h57.49.248,swahili,2020.2.4,Win32,60,,,,,,,,,,,,,,,,,,,,,,BRIBE - RUSHWA,,,,,,,,,,return,1.452705,7,0,7,0,1,,,,,,,,,,,,,,,,,,,,,,,,,,,,,,,,,,,,,,,,,,,,,,,,,,,,,,,,,,,,,,,,
,,,,,,,,,,1537036,2020-10-29_19h57.49.248,swahili,2020.2.4,Win32,60,,,,,,,,,,,,,,,,,,,,,,BLAME - LAWAMA,,,,,,,,,,return,1.25081,8,0,8,0,1,,,,,,,,,,,,,,,,,,,,,,,,,,,,,,,,,,,,,,,,,,,,,,,,,,,,,,,,,,,,,,,,
,,,,,,,,,,1537036,2020-10-29_19h57.49.248,swahili,2020.2.4,Win32,60,,,,,,,,,,,,,,,,,,,,,,,,,,,,,,,,,,,,,,,,1,0,1,0,1,,,,,,,,,,,,,,,,,,,,,,,,,,,,,,,,,,,,,,,,,,,,,,,,,,,,,,,,,,
,,,,,,,,,,1537036,2020-10-29_19h57.49.248,swahili,2020.2.4,Win32,60,,,,,,,,,,,,,,,,,,,,,,,,,,,,,,,,,,,,,,,,,,,,,2,0,2,0,1,,,,,,,,,,,,,,,,,,,,,,,,,,,,,,,,,,,,,,,,,,,,,,,,,,,,,
,,,,,,,,,,1537036,2020-10-29_19h57.49.248,swahili,2020.2.4,Win32,60,,,,,,,,,,-0.140624987,0.025925911,1,0,0,1.06695,unsorted_card,0,0,0,0,1,,,,,,,,,,,,,,,,,,,,,,,,,,,,,,,,,,,,,,,,,,,,,,,,,,,,,,,,,,,,,,,,,,,,,,,,,,,,,,,,,
,,,,,,,,,,1537036,2020-10-29_19h57.49.248,swahili,2020.2.4,Win32,60,,,,,,,,,,0.522916689,-0.012962978,1,0,0,1.53166,test_pile,1,0,1,0,1,MERCHANT - TAJIRI,,,,,,,,,,,,,,,,,,,,,,,,,,,,,,,,,,,,,,,,,,,,,,,,,,,,,,,,,,,,,,,,,,,,,,,,,,,,,,,,
,,,,,,,,,,1537036,2020-10-29_19h57.49.248,swahili,2020.2.4,Win32,60,,,,,,,,,,-0.351041657,0.188888877,1,0,0,0.515405,unsorted_card,2,0,2,0,1,,,,,,,,,,,,,,,,,,,,,,,,,,,,,,,,,,,,,,,,,,,,,,,,,,,,,,,,,,,,,,,,,,,,,,,,,,,,,,,,,
,,,,,,,,,,1537036,2020-10-29_19h57.49.248,swahili,2020.2.4,Win32,60,,,,,,,,,,0.448958355,0.051851838,1,0,0,2.95129,test_pile,3,0,3,0,1,PARROT - KASUKU,,,,,,,,,,,,,,,,,,,,,,,,,,,,,,,,,,,,,,,,,,,,,,,,,,,,,,,,,,,,,,,,,,,,,,,,,,,,,,,,
,,,,,,,,,,1537036,2020-10-29_19h57.49.248,swahili,2020.2.4,Win32,60,,,,,,,,,,-0.418749991,0.055555541,1,0,0,0.418465,unsorted_card,4,0,4,0,1,,,,,,,,,,,,,,,,,,,,,,,,,,,,,,,,,,,,,,,,,,,,,,,,,,,,,,,,,,,,,,,,,,,,,,,,,,,,,,,,,
,,,,,,,,,,1537036,2020-10-29_19h57.49.248,swahili,2020.2.4,Win32,60,,,,,,,,,,0.451041688,0.064814801,1,0,0,2.30089,test_pile,5,0,5,0,1,BULL - FAHILI,,,,,,,,,,,,,,,,,,,,,,,,,,,,,,,,,,,,,,,,,,,,,,,,,,,,,,,,,,,,,,,,,,,,,,,,,,,,,,,,
,,,,,,,,,,1537036,2020-10-29_19h57.49.248,swahili,2020.2.4,Win32,60,,,,,,,,,,-0.31249999,-0.031481497,1,0,0,0.47296,unsorted_card,6,0,6,0,1,,,,,,,,,,,,,,,,,,,,,,,,,,,,,,,,,,,,,,,,,,,,,,,,,,,,,,,,,,,,,,,,,,,,,,,,,,,,,,,,,
,,,,,,,,,,1537036,2020-10-29_19h57.49.248,swahili,2020.2.4,Win32,60,,,,,,,,,,0.438541688,0.012962948,1,0,0,1.748225,test_pile,7,0,7,0,1,PLATE - SAHANI,,,,,,,,,,,,,,,,,,,,,,,,,,,,,,,,,,,,,,,,,,,,,,,,,,,,,,,,,,,,,,,,,,,,,,,,,,,,,,,,
,,,,,,,,,,1537036,2020-10-29_19h57.49.248,swahili,2020.2.4,Win32,60,,,,,,,,,,-0.229166655,-0.031481497,1,0,0,0.44221,unsorted_card,8,0,8,0,1,,,,,,,,,,,,,,,,,,,,,,,,,,,,,,,,,,,,,,,,,,,,,,,,,,,,,,,,,,,,,,,,,,,,,,,,,,,,,,,,,
,,,,,,,,,,1537036,2020-10-29_19h57.49.248,swahili,2020.2.4,Win32,60,,,,,,,,,,0.498958483,0.029629615,1,0,0,0.99154,test_pile,9,0,9,0,1,YEAST - HAMIRA,,,,,,,,,,,,,,,,,,,,,,,,,,,,,,,,,,,,,,,,,,,,,,,,,,,,,,,,,,,,,,,,,,,,,,,,,,,,,,,,
,,,,,,,,,,1537036,2020-10-29_19h57.49.248,swahili,2020.2.4,Win32,60,,,,,,,,,,-0.255208322,-0.127777795,1,0,0,0.45569,unsorted_card,10,0,10,0,1,,,,,,,,,,,,,,,,,,,,,,,,,,,,,,,,,,,,,,,,,,,,,,,,,,,,,,,,,,,,,,,,,,,,,,,,,,,,,,,,,
,,,,,,,,,,1537036,2020-10-29_19h57.49.248,swahili,2020.2.4,Win32,60,,,,,,,,,,0.513541689,-0.051851868,1,0,0,0.921725,test_pile,11,0,11,0,1,BLAME - LAWAMA,,,,,,,,,,,,,,,,,,,,,,,,,,,,,,,,,,,,,,,,,,,,,,,,,,,,,,,,,,,,,,,,,,,,,,,,,,,,,,,,
,,,,,,,,,,1537036,2020-10-29_19h57.49.248,swahili,2020.2.4,Win32,60,,,,,,,,,,-0.35624999,-0.209259277,1,0,0,0.393905,unsorted_card,12,0,12,0,1,,,,,,,,,,,,,,,,,,,,,,,,,,,,,,,,,,,,,,,,,,,,,,,,,,,,,,,,,,,,,,,,,,,,,,,,,,,,,,,,,
,,,,,,,,,,1537036,2020-10-29_19h57.49.248,swahili,2020.2.4,Win32,60,,,,,,,,,,0.421875021,-0.012962978,1,0,0,1.415125,test_pile,13,0,13,0,1,OATH - YAMINI,,,,,,,,,,,,,,,,,,,,,,,,,,,,,,,,,,,,,,,,,,,,,,,,,,,,,,,,,,,,,,,,,,,,,,,,,,,,,,,,
,,,,,,,,,,1537036,2020-10-29_19h57.49.248,swahili,2020.2.4,Win32,60,,,,,,,,,,-0.15416659,-0.042592608,1,0,0,0.567525,unsorted_card,14,0,14,0,1,,,,,,,,,,,,,,,,,,,,,,,,,,,,,,,,,,,,,,,,,,,,,,,,,,,,,,,,,,,,,,,,,,,,,,,,,,,,,,,,,
,,,,,,,,,,1537036,2020-10-29_19h57.49.248,swahili,2020.2.4,Win32,60,,,,,,,,,,0.50937515,-0.005555571,1,0,0,1.665185,test_pile,15,0,15,0,1,CORN - NAFAKA,,,,,,,,,,,,,,,,,,,,,,,,,,,,,,,,,,,,,,,,,,,,,,,,,,,,,,,,,,,,,,,,,,,,,,,,,,,,,,,,
,,,,,,,,,,1537036,2020-10-29_19h57.49.248,swahili,2020.2.4,Win32,60,,,,,,,,,,-0.165624988,-0.012962978,1,0,0,0.608555,unsorted_card,16,0,16,0,1,,,,,,,,,,,,,,,,,,,,,,,,,,,,,,,,,,,,,,,,,,,,,,,,,,,,,,,,,,,,,,,,,,,,,,,,,,,,,,,,,
,,,,,,,,,,1537036,2020-10-29_19h57.49.248,swahili,2020.2.4,Win32,60,,,,,,,,,,0.514583483,-0.085185201,1,0,0,0.93587,test_pile,17,0,17,0,1,POEM - UTENZI,,,,,,,,,,,,,,,,,,,,,,,,,,,,,,,,,,,,,,,,,,,,,,,,,,,,,,,,,,,,,,,,,,,,,,,,,,,,,,,,
,,,,,,,,,,1537036,2020-10-29_19h57.49.248,swahili,2020.2.4,Win32,60,,,,,,,,,,-0.208333322,-0.007407422,1,0,0,0.48525,unsorted_card,18,0,18,0,1,,,,,,,,,,,,,,,,,,,,,,,,,,,,,,,,,,,,,,,,,,,,,,,,,,,,,,,,,,,,,,,,,,,,,,,,,,,,,,,,,
,,,,,,,,,,1537036,2020-10-29_19h57.49.248,swahili,2020.2.4,Win32,60,,,,,,,,,,0.491666689,-0.031481497,1,0,0,1.63591,test_pile,19,0,19,0,1,TAILOR - MSHONI,,,,,,,,,,,,,,,,,,,,,,,,,,,,,,,,,,,,,,,,,,,,,,,,,,,,,,,,,,,,,,,,,,,,,,,,,,,,,,,,
,,,,,,,,,,1537036,2020-10-29_19h57.49.248,swahili,2020.2.4,Win32,60,,,,,,,,,,-0.228124988,-0.138888906,1,0,0,0.490735,unsorted_card,20,0,20,0,1,,,,,,,,,,,,,,,,,,,,,,,,,,,,,,,,,,,,,,,,,,,,,,,,,,,,,,,,,,,,,,,,,,,,,,,,,,,,,,,,,
,,,,,,,,,,1537036,2020-10-29_19h57.49.248,swahili,2020.2.4,Win32,60,,,,,,,,,,0.592708484,0.046296282,1,0,0,1.234225,test_pile,21,0,21,0,1,CHEESE - JIBINI,,,,,,,,,,,,,,,,,,,,,,,,,,,,,,,,,,,,,,,,,,,,,,,,,,,,,,,,,,,,,,,,,,,,,,,,,,,,,,,,
,,,,,,,,,,1537036,2020-10-29_19h57.49.248,swahili,2020.2.4,Win32,60,,,,,,,,,,-0.218749988,-0.164814832,1,0,0,0.50473,unsorted_card,22,0,22,0,1,,,,,,,,,,,,,,,,,,,,,,,,,,,,,,,,,,,,,,,,,,,,,,,,,,,,,,,,,,,,,,,,,,,,,,,,,,,,,,,,,
,,,,,,,,,,1537036,2020-10-29_19h57.49.248,swahili,2020.2.4,Win32,60,,,,,,,,,,0.56979169,-0.003703719,1,0,0,1.23414,test_pile,23,0,23,0,1,GRAPES - ZABIBU,,,,,,,,,,,,,,,,,,,,,,,,,,,,,,,,,,,,,,,,,,,,,,,,,,,,,,,,,,,,,,,,,,,,,,,,,,,,,,,,
,,,,,,,,,,1537036,2020-10-29_19h57.49.248,swahili,2020.2.4,Win32,60,,,,,,,,,,-0.124999987,-0.027777793,1,0,0,0.546565,unsorted_card,24,0,24,0,1,,,,,,,,,,,,,,,,,,,,,,,,,,,,,,,,,,,,,,,,,,,,,,,,,,,,,,,,,,,,,,,,,,,,,,,,,,,,,,,,,
,,,,,,,,,,1537036,2020-10-29_19h57.49.248,swahili,2020.2.4,Win32,60,,,,,,,,,,0.537500023,-0.022222237,1,0,0,2.511815,test_pile,25,0,25,0,1,GRAVE - KABURI,,,,,,,,,,,,,,,,,,,,,,,,,,,,,,,,,,,,,,,,,,,,,,,,,,,,,,,,,,,,,,,,,,,,,,,,,,,,,,,,
,,,,,,,,,,1537036,2020-10-29_19h57.49.248,swahili,2020.2.4,Win32,60,,,,,,,,,,-0.259374989,-0.057407423,1,0,0,0.47589,unsorted_card,26,0,26,0,1,,,,,,,,,,,,,,,,,,,,,,,,,,,,,,,,,,,,,,,,,,,,,,,,,,,,,,,,,,,,,,,,,,,,,,,,,,,,,,,,,
,,,,,,,,,,1537036,2020-10-29_19h57.49.248,swahili,2020.2.4,Win32,60,,,,,,,,,,0.55729169,0.049999986,1,0,0,1.289965,test_pile,27,0,27,0,1,MANURE - SAMADI,,,,,,,,,,,,,,,,,,,,,,,,,,,,,,,,,,,,,,,,,,,,,,,,,,,,,,,,,,,,,,,,,,,,,,,,,,,,,,,,
,,,,,,,,,,1537036,2020-10-29_19h57.49.248,swahili,2020.2.4,Win32,60,,,,,,,,,,-0.177083321,0.061111097,1,0,0,0.45607,unsorted_card,28,0,28,0,1,,,,,,,,,,,,,,,,,,,,,,,,,,,,,,,,,,,,,,,,,,,,,,,,,,,,,,,,,,,,,,,,,,,,,,,,,,,,,,,,,
,,,,,,,,,,1537036,2020-10-29_19h57.49.248,swahili,2020.2.4,Win32,60,,,,,,,,,,0.476041689,-0.053703719,1,0,0,1.346245,test_pile,29,0,29,0,1,AGENT - WAKILI,,,,,,,,,,,,,,,,,,,,,,,,,,,,,,,,,,,,,,,,,,,,,,,,,,,,,,,,,,,,,,,,,,,,,,,,,,,,,,,,
,,,,,,,,,,1537036,2020-10-29_19h57.49.248,swahili,2020.2.4,Win32,60,,,,,,,,,,-0.151041654,-0.059259275,1,0,0,0.511365,unsorted_card,30,0,30,0,1,,,,,,,,,,,,,,,,,,,,,,,,,,,,,,,,,,,,,,,,,,,,,,,,,,,,,,,,,,,,,,,,,,,,,,,,,,,,,,,,,
,,,,,,,,,,1537036,2020-10-29_19h57.49.248,swahili,2020.2.4,Win32,60,,,,,,,,,,0.453125022,-0.072222238,1,0,0,1.33818,test_pile,31,0,31,0,1,BRIBE - RUSHWA,,,,,,,,,,,,,,,,,,,,,,,,,,,,,,,,,,,,,,,,,,,,,,,,,,,,,,,,,,,,,,,,,,,,,,,,,,,,,,,,
,,,,,,,,,,1537036,2020-10-29_19h57.49.248,swahili,2020.2.4,Win32,60,,,,,,,,,,-0.279166592,-0.100000016,1,0,0,0.53007,unsorted_card,32,0,32,0,1,,,,,,,,,,,,,,,,,,,,,,,,,,,,,,,,,,,,,,,,,,,,,,,,,,,,,,,,,,,,,,,,,,,,,,,,,,,,,,,,,
,,,,,,,,,,1537036,2020-10-29_19h57.49.248,swahili,2020.2.4,Win32,60,,,,,,,,,,0.415625148,-0.012962978,1,0,0,1.209145,test_pile,33,0,33,0,1,ORPHAN - YATIMA,,,,,,,,,,,,,,,,,,,,,,,,,,,,,,,,,,,,,,,,,,,,,,,,,,,,,,,,,,,,,,,,,,,,,,,,,,,,,,,,
,,,,,,,,,,1537036,2020-10-29_19h57.49.248,swahili,2020.2.4,Win32,60,,,,,,,,,,-0.285416656,-0.007407422,1,0,0,1.053255,unsorted_card,34,0,34,0,1,,,,,,,,,,,,,,,,,,,,,,,,,,,,,,,,,,,,,,,,,,,,,,,,,,,,,,,,,,,,,,,,,,,,,,,,,,,,,,,,,
,,,,,,,,,,1537036,2020-10-29_19h57.49.248,swahili,2020.2.4,Win32,60,,,,,,,,,,0.478125149,-0.04444446,1,0,0,1.31777,test_pile,35,0,35,0,1,DIVORCE - TALAKA,,,,,,,,,,,,,,,,,,,,,,,,,,,,,,,,,,,,,,,,,,,,,,,,,,,,,,,,,,,,,,,,,,,,,,,,,,,,,,,,
,,,,,,,,,,1537036,2020-10-29_19h57.49.248,swahili,2020.2.4,Win32,60,,,,,,,,,,-0.336458323,-0.164814832,1,0,0,0.462775,unsorted_card,36,0,36,0,1,,,,,,,,,,,,,,,,,,,,,,,,,,,,,,,,,,,,,,,,,,,,,,,,,,,,,,,,,,,,,,,,,,,,,,,,,,,,,,,,,
,,,,,,,,,,1537036,2020-10-29_19h57.49.248,swahili,2020.2.4,Win32,60,,,,,,,,,,0.53854169,-0.07407409,1,0,0,1.47165,test_pile,37,0,37,0,1,BOAT - MASHUA,,,,,,,,,,,,,,,,,,,,,,,,,,,,,,,,,,,,,,,,,,,,,,,,,,,,,,,,,,,,,,,,,,,,,,,,,,,,,,,,
,,,,,,,,,,1537036,2020-10-29_19h57.49.248,swahili,2020.2.4,Win32,60,,,,,,,,,,-0.221874925,-0.13333335,1,0,0,0.463275,unsorted_card,38,0,38,0,1,,,,,,,,,,,,,,,,,,,,,,,,,,,,,,,,,,,,,,,,,,,,,,,,,,,,,,,,,,,,,,,,,,,,,,,,,,,,,,,,,
,,,,,,,,,,1537036,2020-10-29_19h57.49.248,swahili,2020.2.4,Win32,60,,,,,,,,,,0.467708482,-0.051851868,1,0,0,1.143755,test_pile,39,0,39,0,1,TREASURE - DAFINA,,,,,,,,,,,,,,,,,,,,,,,,,,,,,,,,,,,,,,,,,,,,,,,,,,,,,,,,,,,,,,,,,,,,,,,,,,,,,,,,
,,,,,,,,,,1537036,2020-10-29_19h57.49.248,swahili,2020.2.4,Win32,60,,,,,,,,,,,,,,,,,,,,,,,,,,,,,,,,,,0,0,0,0,1,,,,,,,,,,,,,,,,,,,,,,,,,,,,,,,,,,,,,,,,,,,,,,,,,,,,,,,,,,,,,,,,
,,,,,,,,,,1537036,2020-10-29_19h57.49.248,swahili,2020.2.4,Win32,60,,,,,,,,,,,,,,,,,,,,,,,,,,,,,,,,,,,,,,,return,,,,,,,,,,,2.8427,6.630135,0.347916814,-0.031481497,1,0,0,0.65048,yes,MANURE,TAHILI,incorrect,0,0,0,0,1,,,,,,,,,,,,,,,,,,,,,,,,,,,,,,,,,,,,
,,,,,,,,,,1537036,2020-10-29_19h57.49.248,swahili,2020.2.4,Win32,60,,,,,,,,,,,,,,,,,,,,,,,,,,,,,,,,,,,,,,,,,,,,,,,,,,,5.00348,0.405208481,-0.064814831,1,0,0,0.959035,yes,MERCHANT,TAHIJI,incorrect,1,0,1,0,1,,,,,,,,,,,,,,,,,,,,,,,,,,,,,,,,,,,,
,,,,,,,,,,1537036,2020-10-29_19h57.49.248,swahili,2020.2.4,Win32,60,,,,,,,,,,,,,,,,,,,,,,,,,,,,,,,,,,,,,,,,,,,,,,,,,,,5.708725,0.418750021,-0.050000016,1,0,0,0.95873,yes,TREASURE,DAFINA,incorrect,2,0,2,0,1,,,,,,,,,,,,,,,,,,,,,,,,,,,,,,,,,,,,
,,,,,,,,,,1537036,2020-10-29_19h57.49.248,swahili,2020.2.4,Win32,60,,,,,,,,,,,,,,,,,,,,,,,,,,,,,,,,,,,,,,,,,,,,,,,,,,,17.38075,0.441666815,-0.035185201,1,0,0,0.97913,yes,TAILOR,MSHONI,incorrect,3,0,3,0,1,,,,,,,,,,,,,,,,,,,,,,,,,,,,,,,,,,,,
,,,,,,,,,,1537036,2020-10-29_19h57.49.248,swahili,2020.2.4,Win32,60,,,,,,,,,,,,,,,,,,,,,,,,,,,,,,,,,,,,,,,,,,,,,,,,,,,5.76728,0.32812502,-0.181481499,1,0,0,1.01444,yes,GRAPES,ZABIBU,incorrect,4,0,4,0,1,,,,,,,,,,,,,,,,,,,,,,,,,,,,,,,,,,,,
,,,,,,,,,,1537036,2020-10-29_19h57.49.248,swahili,2020.2.4,Win32,60,,,,,,,,,,,,,,,,,,,,,,,,,,,,,,,,,,,,,,,,,,,,,,,,,,,3.128285,0.363541814,-0.109259276,1,0,0,0.921395,yes,YEAST,HAMURI,incorrect,5,0,5,0,1,,,,,,,,,,,,,,,,,,,,,,,,,,,,,,,,,,,,
,,,,,,,,,,1537036,2020-10-29_19h57.49.248,swahili,2020.2.4,Win32,60,,,,,,,,,,,,,,,,,,,,,,,,,,,,,,,,,,,,,,,,,,,,,,,,,,,12.83747,0.395833354,-0.107407424,1,0,0,1.15305,yes,CORN,DAFAKA,incorrect,6,0,6,0,1,,,,,,,,,,,,,,,,,,,,,,,,,,,,,,,,,,,,
,,,,,,,,,,1537036,2020-10-29_19h57.49.248,swahili,2020.2.4,Win32,60,,,,,,,,,,,,,,,,,,,,,,,,,,,,,,,,,,,,,,,,,,,,,,,,,,,13.448005,0.423958355,-0.111111128,1,0,0,0.92365,yes,ORPHAN,FAHILI,incorrect,7,0,7,0,1,,,,,,,,,,,,,,,,,,,,,,,,,,,,,,,,,,,,
,,,,,,,,,,1537036,2020-10-29_19h57.49.248,swahili,2020.2.4,Win32,60,,,,,,,,,,,,,,,,,,,,,,,,,,,,,,,,,,,,,,,,,,,,,,,,,,,8.420255,0.438541688,-0.114814831,1,0,0,0.891125,yes,OATH,YAMINI,incorrect,8,0,8,0,1,,,,,,,,,,,,,,,,,,,,,,,,,,,,,,,,,,,,
,,,,,,,,,,1537036,2020-10-29_19h57.49.248,swahili,2020.2.4,Win32,60,,,,,,,,,,,,,,,,,,,,,,,,,,,,,,,,,,,,,,,,,,,,,,,,,,,36.33703,0.476041689,-0.012962978,1,0,0,1.23659,yes,PARROT,F,incorrect,9,0,9,0,1,,,,,,,,,,,,,,,,,,,,,,,,,,,,,,,,,,,,
,,,,,,,,,,1537036,2020-10-29_19h57.49.248,swahili,2020.2.4,Win32,60,,,,,,,,,,,,,,,,,,,,,,,,,,,,,,,,,,,,,,,,,,,,,,,,,,,33.662985,0.378125021,-0.062962979,1,0,0,0.90019,yes,GRAVE,KABUKO,incorrect,10,0,10,0,1,,,,,,,,,,,,,,,,,,,,,,,,,,,,,,,,,,,,
,,,,,,,,,,1537036,2020-10-29_19h57.49.248,swahili,2020.2.4,Win32,60,,,,,,,,,,,,,,,,,,,,,,,,,,,,,,,,,,,,,,,,,,,,,,,,,,,4.88846,0.395833354,-0.185185203,1,0,0,0.92473,yes,POEM,UTENZI,incorrect,11,0,11,0,1,,,,,,,,,,,,,,,,,,,,,,,,,,,,,,,,,,,,
,,,,,,,,,,1537036,2020-10-29_19h57.49.248,swahili,2020.2.4,Win32,60,,,,,,,,,,,,,,,,,,,,,,,,,,,,,,,,,,,,,,,,,,,,,,,,,,,4.90651,0.211458351,-0.303703723,1,0,0,0.659895,yes,BOAT,L,incorrect,12,0,12,0,1,,,,,,,,,,,,,,,,,,,,,,,,,,,,,,,,,,,,
,,,,,,,,,,1537036,2020-10-29_19h57.49.248,swahili,2020.2.4,Win32,60,,,,,,,,,,,,,,,,,,,,,,,,,,,,,,,,,,,,,,,,,,,,,,,,,,,6.753985,0.415625148,0.029629615,1,0,0,0.80313,yes,BRIBE,RUSHWA,incorrect,13,0,13,0,1,,,,,,,,,,,,,,,,,,,,,,,,,,,,,,,,,,,,
,,,,,,,,,,1537036,2020-10-29_19h57.49.248,swahili,2020.2.4,Win32,60,,,,,,,,,,,,,,,,,,,,,,,,,,,,,,,,,,,,,,,,,,,,,,,,,,,5.64203,0.402083354,-0.118518535,1,0,0,0.87518,yes,PLATE,TAHIRI,incorrect,14,0,14,0,1,,,,,,,,,,,,,,,,,,,,,,,,,,,,,,,,,,,,
,,,,,,,,,,1537036,2020-10-29_19h57.49.248,swahili,2020.2.4,Win32,60,,,,,,,,,,,,,,,,,,,,,,,,,,,,,,,,,,,,,,,,,,,,,,,,,,,5.246825,0.436458482,-0.011111126,1,0,0,0.983695,yes,BLAME,TALAKA,incorrect,15,0,15,0,1,,,,,,,,,,,,,,,,,,,,,,,,,,,,,,,,,,,,
,,,,,,,,,,1537036,2020-10-29_19h57.49.248,swahili,2020.2.4,Win32,60,,,,,,,,,,,,,,,,,,,,,,,,,,,,,,,,,,,,,,,,,,,,,,,,,,,3.95532,0.259375019,-0.218518537,1,0,0,0.75714,yes,BULL,Z,incorrect,16,0,16,0,1,,,,,,,,,,,,,,,,,,,,,,,,,,,,,,,,,,,,
,,,,,,,,,,1537036,2020-10-29_19h57.49.248,swahili,2020.2.4,Win32,60,,,,,,,,,,,,,,,,,,,,,,,,,,,,,,,,,,,,,,,,,,,,,,,,,,,15.788505,0.466666689,-0.077777794,1,0,0,0.98601,yes,AGENT,SAWAMA,incorrect,17,0,17,0,1,,,,,,,,,,,,,,,,,,,,,,,,,,,,,,,,,,,,
,,,,,,,,,,1537036,2020-10-29_19h57.49.248,swahili,2020.2.4,Win32,60,,,,,,,,,,,,,,,,,,,,,,,,,,,,,,,,,,,,,,,,,,,,,,,,,,,4.76083,0.679166692,0.079629616,1,0,0,1.16706,yes,CHEESE,JIBILI,incorrect,18,0,18,0,1,,,,,,,,,,,,,,,,,,,,,,,,,,,,,,,,,,,,
,,,,,,,,,,1537036,2020-10-29_19h57.49.248,swahili,2020.2.4,Win32,60,,,,,,,,,,,,,,,,,,,,,,,,,,,,,,,,,,,,,,,,,,,,,,,,,,,3.816255,0.408333354,-0.159259277,1,0,0,0.9519,yes,DIVORCE,TALAKA,incorrect,19,0,19,0,1,,,,,,,,,,,,,,,,,,,,,,,,,,,,,,,,,,,,
,,,,,,,,,,1537036,2020-10-29_19h57.49.248,swahili,2020.2.4,Win32,60,,,,,,,,,,,,,,,,,,,,,,,,,,,,,,,,,,,,,,,,0,0,0,0,1,,,,,,,,,,,,,,,,,,,,,,,,,,,,,,,,,,,,,,,,,,,,,,,,,,,,,,,,,,
,,,,,,,,,,1537036,2020-10-29_19h57.49.248,swahili,2020.2.4,Win32,60,,,,,,,,,,,,,,,,,,,,,,,,,,,,,,,,,,,,,,,,1,0,1,0,1,,,,,,,,,,,,,,,,,,,,,,,,,,,,,,,,,,,,,,,,,,,,,,,,,,,,,,,,,,
,,,,,,,,,,1537036,2020-10-29_19h57.49.248,swahili,2020.2.4,Win32,60,,,,,,,,,,,,,,,,,,,,,,,,,,,,,,,,,,,,,,,,,,,,,3,0,3,0,1,,,,,,,,,,,,,,,,,,,,,,,,,,,,,,,,,,,,,,,,,,,,,,,,,,,,,
,,,,,,,,,,1537036,2020-10-29_19h57.49.248,swahili,2020.2.4,Win32,60,,,,,,,,,,-0.184374988,-0.144444461,1,0,0,1.283165,unsorted_card,0,0,0,0,1,,,,,,,,,,,,,,,,,,,,,,,,,,,,,,,,,,,,,,,,,,,,,,,,,,,,,,,,,,,,,,,,,,,,,,,,,,,,,,,,,
,,,,,,,,,,1537036,2020-10-29_19h57.49.248,swahili,2020.2.4,Win32,60,,,,,,,,,,0.415625148,-0.012962978,1,0,0,2.023375,test_pile,1,0,1,0,1,MERCHANT - TAJIRI,,,,,,,,,,,,,,,,,,,,,,,,,,,,,,,,,,,,,,,,,,,,,,,,,,,,,,,,,,,,,,,,,,,,,,,,,,,,,,,,
,,,,,,,,,,1537036,2020-10-29_19h57.49.248,swahili,2020.2.4,Win32,60,,,,,,,,,,-0.167708321,-0.159259277,1,0,0,0.65014,unsorted_card,2,0,2,0,1,,,,,,,,,,,,,,,,,,,,,,,,,,,,,,,,,,,,,,,,,,,,,,,,,,,,,,,,,,,,,,,,,,,,,,,,,,,,,,,,,
,,,,,,,,,,1537036,2020-10-29_19h57.49.248,swahili,2020.2.4,Win32,60,,,,,,,,,,0.493750149,0.059259245,1,0,0,1.55587,test_pile,3,0,3,0,1,PARROT - KASUKU,,,,,,,,,,,,,,,,,,,,,,,,,,,,,,,,,,,,,,,,,,,,,,,,,,,,,,,,,,,,,,,,,,,,,,,,,,,,,,,,
,,,,,,,,,,1537036,2020-10-29_19h57.49.248,swahili,2020.2.4,Win32,60,,,,,,,,,,-0.12708332,-0.105555572,1,0,0,0.504435,unsorted_card,4,0,4,0,1,,,,,,,,,,,,,,,,,,,,,,,,,,,,,,,,,,,,,,,,,,,,,,,,,,,,,,,,,,,,,,,,,,,,,,,,,,,,,,,,,
,,,,,,,,,,1537036,2020-10-29_19h57.49.248,swahili,2020.2.4,Win32,60,,,,,,,,,,0.472916816,0.055555541,1,0,0,1.17133,test_pile,5,0,5,0,1,BULL - FAHILI,,,,,,,,,,,,,,,,,,,,,,,,,,,,,,,,,,,,,,,,,,,,,,,,,,,,,,,,,,,,,,,,,,,,,,,,,,,,,,,,
,,,,,,,,,,1537036,2020-10-29_19h57.49.248,swahili,2020.2.4,Win32,60,,,,,,,,,,-0.129166654,-0.037037052,1,0,0,0.753905,unsorted_card,6,0,6,0,1,,,,,,,,,,,,,,,,,,,,,,,,,,,,,,,,,,,,,,,,,,,,,,,,,,,,,,,,,,,,,,,,,,,,,,,,,,,,,,,,,
,,,,,,,,,,1537036,2020-10-29_19h57.49.248,swahili,2020.2.4,Win32,60,,,,,,,,,,0.426041815,0.001851837,1,0,0,1.866305,test_pile,7,0,7,0,1,PLATE - SAHANI,,,,,,,,,,,,,,,,,,,,,,,,,,,,,,,,,,,,,,,,,,,,,,,,,,,,,,,,,,,,,,,,,,,,,,,,,,,,,,,,
,,,,,,,,,,1537036,2020-10-29_19h57.49.248,swahili,2020.2.4,Win32,60,,,,,,,,,,-0.11458332,0.033333319,1,0,0,0.51564,unsorted_card,8,0,8,0,1,,,,,,,,,,,,,,,,,,,,,,,,,,,,,,,,,,,,,,,,,,,,,,,,,,,,,,,,,,,,,,,,,,,,,,,,,,,,,,,,,
,,,,,,,,,,1537036,2020-10-29_19h57.49.248,swahili,2020.2.4,Win32,60,,,,,,,,,,0.426041815,-0.009259274,1,0,0,1.46047,test_pile,9,0,9,0,1,YEAST - HAMIRA,,,,,,,,,,,,,,,,,,,,,,,,,,,,,,,,,,,,,,,,,,,,,,,,,,,,,,,,,,,,,,,,,,,,,,,,,,,,,,,,
,,,,,,,,,,1537036,2020-10-29_19h57.49.248,swahili,2020.2.4,Win32,60,,,,,,,,,,-0.260416656,-0.007407422,1,0,0,0.41311,unsorted_card,10,0,10,0,1,,,,,,,,,,,,,,,,,,,,,,,,,,,,,,,,,,,,,,,,,,,,,,,,,,,,,,,,,,,,,,,,,,,,,,,,,,,,,,,,,
,,,,,,,,,,1537036,2020-10-29_19h57.49.248,swahili,2020.2.4,Win32,60,,,,,,,,,,0.461458355,0.003703689,1,0,0,2.30472,test_pile,11,0,11,0,1,BLAME - LAWAMA,,,,,,,,,,,,,,,,,,,,,,,,,,,,,,,,,,,,,,,,,,,,,,,,,,,,,,,,,,,,,,,,,,,,,,,,,,,,,,,,
,,,,,,,,,,1537036,2020-10-29_19h57.49.248,swahili,2020.2.4,Win32,60,,,,,,,,,,-0.133333257,-0.007407422,1,0,0,0.734135,unsorted_card,12,0,12,0,1,,,,,,,,,,,,,,,,,,,,,,,,,,,,,,,,,,,,,,,,,,,,,,,,,,,,,,,,,,,,,,,,,,,,,,,,,,,,,,,,,
,,,,,,,,,,1537036,2020-10-29_19h57.49.248,swahili,2020.2.4,Win32,60,,,,,,,,,,0.403125021,0.048148134,1,0,0,1.3186,test_pile,13,0,13,0,1,OATH - YAMINI,,,,,,,,,,,,,,,,,,,,,,,,,,,,,,,,,,,,,,,,,,,,,,,,,,,,,,,,,,,,,,,,,,,,,,,,,,,,,,,,
,,,,,,,,,,1537036,2020-10-29_19h57.49.248,swahili,2020.2.4,Win32,60,,,,,,,,,,-0.288541656,-0.012962978,1,0,0,0.406875,unsorted_card,14,0,14,0,1,,,,,,,,,,,,,,,,,,,,,,,,,,,,,,,,,,,,,,,,,,,,,,,,,,,,,,,,,,,,,,,,,,,,,,,,,,,,,,,,,
,,,,,,,,,,1537036,2020-10-29_19h57.49.248,swahili,2020.2.4,Win32,60,,,,,,,,,,0.471875022,-0.022222237,1,0,0,1.012845,test_pile,15,0,15,0,1,CORN - NAFAKA,,,,,,,,,,,,,,,,,,,,,,,,,,,,,,,,,,,,,,,,,,,,,,,,,,,,,,,,,,,,,,,,,,,,,,,,,,,,,,,,
,,,,,,,,,,1537036,2020-10-29_19h57.49.248,swahili,2020.2.4,Win32,60,,,,,,,,,,-0.30312499,-0.033333349,1,0,0,0.442855,unsorted_card,16,0,16,0,1,,,,,,,,,,,,,,,,,,,,,,,,,,,,,,,,,,,,,,,,,,,,,,,,,,,,,,,,,,,,,,,,,,,,,,,,,,,,,,,,,
,,,,,,,,,,1537036,2020-10-29_19h57.49.248,swahili,2020.2.4,Win32,60,,,,,,,,,,0.431250148,0.055555541,1,0,0,0.837075,test_pile,17,0,17,0,1,POEM - UTENZI,,,,,,,,,,,,,,,,,,,,,,,,,,,,,,,,,,,,,,,,,,,,,,,,,,,,,,,,,,,,,,,,,,,,,,,,,,,,,,,,
,,,,,,,,,,1537036,2020-10-29_19h57.49.248,swahili,2020.2.4,Win32,60,,,,,,,,,,-0.197916655,-0.053703719,1,0,0,0.431375,unsorted_card,18,0,18,0,1,,,,,,,,,,,,,,,,,,,,,,,,,,,,,,,,,,,,,,,,,,,,,,,,,,,,,,,,,,,,,,,,,,,,,,,,,,,,,,,,,
,,,,,,,,,,1537036,2020-10-29_19h57.49.248,swahili,2020.2.4,Win32,60,,,,,,,,,,0.461458355,-0.035185201,1,0,0,0.887205,test_pile,19,0,19,0,1,TAILOR - MSHONI,,,,,,,,,,,,,,,,,,,,,,,,,,,,,,,,,,,,,,,,,,,,,,,,,,,,,,,,,,,,,,,,,,,,,,,,,,,,,,,,
,,,,,,,,,,1537036,2020-10-29_19h57.49.248,swahili,2020.2.4,Win32,60,,,,,,,,,,-0.179166654,-0.062962979,1,0,0,0.415165,unsorted_card,20,0,20,0,1,,,,,,,,,,,,,,,,,,,,,,,,,,,,,,,,,,,,,,,,,,,,,,,,,,,,,,,,,,,,,,,,,,,,,,,,,,,,,,,,,
,,,,,,,,,,1537036,2020-10-29_19h57.49.248,swahili,2020.2.4,Win32,60,,,,,,,,,,0.470833355,0.020370356,1,0,0,0.901025,test_pile,21,0,21,0,1,CHEESE - JIBINI,,,,,,,,,,,,,,,,,,,,,,,,,,,,,,,,,,,,,,,,,,,,,,,,,,,,,,,,,,,,,,,,,,,,,,,,,,,,,,,,
,,,,,,,,,,1537036,2020-10-29_19h57.49.248,swahili,2020.2.4,Win32,60,,,,,,,,,,-0.197916655,-0.150000017,1,0,0,0.456505,unsorted_card,22,0,22,0,1,,,,,,,,,,,,,,,,,,,,,,,,,,,,,,,,,,,,,,,,,,,,,,,,,,,,,,,,,,,,,,,,,,,,,,,,,,,,,,,,,
,,,,,,,,,,1537036,2020-10-29_19h57.49.248,swahili,2020.2.4,Win32,60,,,,,,,,,,0.447916688,0.018518504,1,0,0,1.5396,test_pile,23,0,23,0,1,GRAPES - ZABIBU,,,,,,,,,,,,,,,,,,,,,,,,,,,,,,,,,,,,,,,,,,,,,,,,,,,,,,,,,,,,,,,,,,,,,,,,,,,,,,,,
,,,,,,,,,,1537036,2020-10-29_19h57.49.248,swahili,2020.2.4,Win32,60,,,,,,,,,,-0.264583322,0.048148134,1,0,0,0.49142,unsorted_card,24,0,24,0,1,,,,,,,,,,,,,,,,,,,,,,,,,,,,,,,,,,,,,,,,,,,,,,,,,,,,,,,,,,,,,,,,,,,,,,,,,,,,,,,,,
,,,,,,,,,,1537036,2020-10-29_19h57.49.248,swahili,2020.2.4,Win32,60,,,,,,,,,,0.444791688,0.003703689,1,0,0,1.48837,test_pile,25,0,25,0,1,GRAVE - KABURI,,,,,,,,,,,,,,,,,,,,,,,,,,,,,,,,,,,,,,,,,,,,,,,,,,,,,,,,,,,,,,,,,,,,,,,,,,,,,,,,
,,,,,,,,,,1537036,2020-10-29_19h57.49.248,swahili,2020.2.4,Win32,60,,,,,,,,,,-0.404166658,0.08333332,1,0,0,0.588375,unsorted_card,26,0,26,0,1,,,,,,,,,,,,,,,,,,,,,,,,,,,,,,,,,,,,,,,,,,,,,,,,,,,,,,,,,,,,,,,,,,,,,,,,,,,,,,,,,
,,,,,,,,,,1537036,2020-10-29_19h57.49.248,swahili,2020.2.4,Win32,60,,,,,,,,,,0.427083355,0.018518504,1,0,0,6.68255,test_pile,27,0,27,0,1,MANURE - SAMADI,,,,,,,,,,,,,,,,,,,,,,,,,,,,,,,,,,,,,,,,,,,,,,,,,,,,,,,,,,,,,,,,,,,,,,,,,,,,,,,,
,,,,,,,,,,1537036,2020-10-29_19h57.49.248,swahili,2020.2.4,Win32,60,,,,,,,,,,-0.30937499,0.081481411,1,0,0,0.533335,unsorted_card,28,0,28,0,1,,,,,,,,,,,,,,,,,,,,,,,,,,,,,,,,,,,,,,,,,,,,,,,,,,,,,,,,,,,,,,,,,,,,,,,,,,,,,,,,,
,,,,,,,,,,1537036,2020-10-29_19h57.49.248,swahili,2020.2.4,Win32,60,,,,,,,,,,0.453125022,0.025925911,1,0,0,4.31601,test_pile,29,0,29,0,1,AGENT - WAKILI,,,,,,,,,,,,,,,,,,,,,,,,,,,,,,,,,,,,,,,,,,,,,,,,,,,,,,,,,,,,,,,,,,,,,,,,,,,,,,,,
,,,,,,,,,,1537036,2020-10-29_19h57.49.248,swahili,2020.2.4,Win32,60,,,,,,,,,,-0.361458324,0.224074063,1,0,0,0.60004,unsorted_card,30,0,30,0,1,,,,,,,,,,,,,,,,,,,,,,,,,,,,,,,,,,,,,,,,,,,,,,,,,,,,,,,,,,,,,,,,,,,,,,,,,,,,,,,,,
,,,,,,,,,,1537036,2020-10-29_19h57.49.248,swahili,2020.2.4,Win32,60,,,,,,,,,,0.36562502,0.016666652,1,0,0,1.025885,test_pile,31,0,31,0,1,BRIBE - RUSHWA,,,,,,,,,,,,,,,,,,,,,,,,,,,,,,,,,,,,,,,,,,,,,,,,,,,,,,,,,,,,,,,,,,,,,,,,,,,,,,,,
,,,,,,,,,,1537036,2020-10-29_19h57.49.248,swahili,2020.2.4,Win32,60,,,,,,,,,,-0.263541592,0.033333319,1,0,0,1.876235,unsorted_card,32,0,32,0,1,,,,,,,,,,,,,,,,,,,,,,,,,,,,,,,,,,,,,,,,,,,,,,,,,,,,,,,,,,,,,,,,,,,,,,,,,,,,,,,,,
,,,,,,,,,,1537036,2020-10-29_19h57.49.248,swahili,2020.2.4,Win32,60,,,,,,,,,,0.367708354,-0.016666682,1,0,0,9.05881,test_pile,33,0,33,0,1,ORPHAN - YATIMA,,,,,,,,,,,,,,,,,,,,,,,,,,,,,,,,,,,,,,,,,,,,,,,,,,,,,,,,,,,,,,,,,,,,,,,,,,,,,,,,
,,,,,,,,,,1537036,2020-10-29_19h57.49.248,swahili,2020.2.4,Win32,60,,,,,,,,,,-0.315624926,-0.01481483,1,0,0,0.49882,unsorted_card,34,0,34,0,1,,,,,,,,,,,,,,,,,,,,,,,,,,,,,,,,,,,,,,,,,,,,,,,,,,,,,,,,,,,,,,,,,,,,,,,,,,,,,,,,,
,,,,,,,,,,1537036,2020-10-29_19h57.49.248,swahili,2020.2.4,Win32,60,,,,,,,,,,0.421875021,0.057407393,1,0,0,1.13791,test_pile,35,0,35,0,1,DIVORCE - TALAKA,,,,,,,,,,,,,,,,,,,,,,,,,,,,,,,,,,,,,,,,,,,,,,,,,,,,,,,,,,,,,,,,,,,,,,,,,,,,,,,,
,,,,,,,,,,1537036,2020-10-29_19h57.49.248,swahili,2020.2.4,Win32,60,,,,,,,,,,-0.483333294,-0.022222237,1,0,0,0.41069,unsorted_card,36,0,36,0,1,,,,,,,,,,,,,,,,,,,,,,,,,,,,,,,,,,,,,,,,,,,,,,,,,,,,,,,,,,,,,,,,,,,,,,,,,,,,,,,,,
,,,,,,,,,,1537036,2020-10-29_19h57.49.248,swahili,2020.2.4,Win32,60,,,,,,,,,,0.659375025,-0.062962979,1,0,0,8.17869,test_pile,37,0,37,0,1,BOAT - MASHUA,,,,,,,,,,,,,,,,,,,,,,,,,,,,,,,,,,,,,,,,,,,,,,,,,,,,,,,,,,,,,,,,,,,,,,,,,,,,,,,,
,,,,,,,,,,1537036,2020-10-29_19h57.49.248,swahili,2020.2.4,Win32,60,,,,,,,,,,-0.182291654,-0.088888905,1,0,0,0.460325,unsorted_card,38,0,38,0,1,,,,,,,,,,,,,,,,,,,,,,,,,,,,,,,,,,,,,,,,,,,,,,,,,,,,,,,,,,,,,,,,,,,,,,,,,,,,,,,,,
,,,,,,,,,,1537036,2020-10-29_19h57.49.248,swahili,2020.2.4,Win32,60,,,,,,,,,,0.473958355,-0.011111126,1,0,0,1.561265,test_pile,39,0,39,0,1,TREASURE - DAFINA,,,,,,,,,,,,,,,,,,,,,,,,,,,,,,,,,,,,,,,,,,,,,,,,,,,,,,,,,,,,,,,,,,,,,,,,,,,,,,,,
,,,,,,,,,,1537036,2020-10-29_19h57.49.248,swahili,2020.2.4,Win32,60,,,,,,,,,,,,,,,,,,,,,,,,,,,,,,,,,,0,0,0,0,1,,,,,,,,,,,,,,,,,,,,,,,,,,,,,,,,,,,,,,,,,,,,,,,,,,,,,,,,,,,,,,,,
,,,,,,,,,,1537036,2020-10-29_19h57.49.248,swahili,2020.2.4,Win32,60,,,,,,,,,,,,,,,,,,,,,,,,,,,,,,,,,,,,,,,return,,,,,,,,,,,1.61481,9.581855,0.386458354,-0.116666683,1,0,0,0.89794,yes,MANURE,SAMADI,incorrect,0,0,0,0,1,,,,,,,,,,,,,,,,,,,,,,,,,,,,,,,,,,,,
,,,,,,,,,,1537036,2020-10-29_19h57.49.248,swahili,2020.2.4,Win32,60,,,,,,,,,,,,,,,,,,,,,,,,,,,,,,,,,,,,,,,,,,,,,,,,,,,10.100995,0.461458355,-0.094444461,1,0,0,0.89599,yes,BLAME,HI,incorrect,1,0,1,0,1,,,,,,,,,,,,,,,,,,,,,,,,,,,,,,,,,,,,
,,,,,,,,,,1537036,2020-10-29_19h57.49.248,swahili,2020.2.4,Win32,60,,,,,,,,,,,,,,,,,,,,,,,,,,,,,,,,,,,,,,,,,,,,,,,,,,,10.191535,0.370833354,-0.148148165,1,0,0,0.88299,yes,MERCHANT,TAJIRI,incorrect,2,0,2,0,1,,,,,,,,,,,,,,,,,,,,,,,,,,,,,,,,,,,,
,,,,,,,,,,1537036,2020-10-29_19h57.49.248,swahili,2020.2.4,Win32,60,,,,,,,,,,,,,,,,,,,,,,,,,,,,,,,,,,,,,,,,,,,,,,,,,,,25.934415,0.602083357,0.08333332,1,0,0,1.03516,yes,PARROT,IFORGOT,incorrect,3,0,3,0,1,,,,,,,,,,,,,,,,,,,,,,,,,,,,,,,,,,,,
,,,,,,,,,,1537036,2020-10-29_19h57.49.248,swahili,2020.2.4,Win32,60,,,,,,,,,,,,,,,,,,,,,,,,,,,,,,,,,,,,,,,,,,,,,,,,,,,8.819495,0.368750148,-0.166666684,1,0,0,1.12642,yes,TREASURE,DAFINA,incorrect,4,0,4,0,1,,,,,,,,,,,,,,,,,,,,,,,,,,,,,,,,,,,,
,,,,,,,,,,1537036,2020-10-29_19h57.49.248,swahili,2020.2.4,Win32,60,,,,,,,,,,,,,,,,,,,,,,,,,,,,,,,,,,,,,,,,,,,,,,,,,,,6.520895,0.214583351,-0.281481614,1,0,0,0.72197,yes,ORPHAN,YATIMA,incorrect,5,0,5,0,1,,,,,,,,,,,,,,,,,,,,,,,,,,,,,,,,,,,,
,,,,,,,,,,1537036,2020-10-29_19h57.49.248,swahili,2020.2.4,Win32,60,,,,,,,,,,,,,,,,,,,,,,,,,,,,,,,,,,,,,,,,,,,,,,,,,,,8.587305,0.330208353,-0.122222239,1,0,0,0.88673,yes,CORN,DAFAKA,incorrect,6,0,6,0,1,,,,,,,,,,,,,,,,,,,,,,,,,,,,,,,,,,,,
,,,,,,,,,,1537036,2020-10-29_19h57.49.248,swahili,2020.2.4,Win32,60,,,,,,,,,,,,,,,,,,,,,,,,,,,,,,,,,,,,,,,,,,,,,,,,,,,15.301925,0.400000148,-0.094444461,1,0,0,0.82708,yes,BRIBE,MALI,incorrect,7,0,7,0,1,,,,,,,,,,,,,,,,,,,,,,,,,,,,,,,,,,,,
,,,,,,,,,,1537036,2020-10-29_19h57.49.248,swahili,2020.2.4,Win32,60,,,,,,,,,,,,,,,,,,,,,,,,,,,,,,,,,,,,,,,,,,,,,,,,,,,2.469155,0.473958355,-0.088888905,1,0,0,1.041985,yes,POEM,UTENZI,incorrect,8,0,8,0,1,,,,,,,,,,,,,,,,,,,,,,,,,,,,,,,,,,,,
,,,,,,,,,,1537036,2020-10-29_19h57.49.248,swahili,2020.2.4,Win32,60,,,,,,,,,,,,,,,,,,,,,,,,,,,,,,,,,,,,,,,,,,,,,,,,,,,17.605865,0.385416687,-0.150000017,1,0,0,1.05562,yes,GRAPES,ZABIBU,incorrect,9,0,9,0,1,,,,,,,,,,,,,,,,,,,,,,,,,,,,,,,,,,,,
,,,,,,,,,,1537036,2020-10-29_19h57.49.248,swahili,2020.2.4,Win32,60,,,,,,,,,,,,,,,,,,,,,,,,,,,,,,,,,,,,,,,,,,,,,,,,,,,8.622965,0.379166814,-0.048148164,1,0,0,0.900325,yes,OATH,YAMINI,incorrect,10,0,10,0,1,,,,,,,,,,,,,,,,,,,,,,,,,,,,,,,,,,,,
,,,,,,,,,,1537036,2020-10-29_19h57.49.248,swahili,2020.2.4,Win32,60,,,,,,,,,,,,,,,,,,,,,,,,,,,,,,,,,,,,,,,,,,,,,,,,,,,11.75374,0.353125147,-0.070370386,1,0,0,0.910165,yes,PLATE,SADAMI,incorrect,11,0,11,0,1,,,,,,,,,,,,,,,,,,,,,,,,,,,,,,,,,,,,
,,,,,,,,,,1537036,2020-10-29_19h57.49.248,swahili,2020.2.4,Win32,60,,,,,,,,,,,,,,,,,,,,,,,,,,,,,,,,,,,,,,,,,,,,,,,,,,,29.17954,0.360416687,-0.131481498,1,0,0,0.89588,yes,GRAVE,KABURI,incorrect,12,0,12,0,1,,,,,,,,,,,,,,,,,,,,,,,,,,,,,,,,,,,,
,,,,,,,,,,1537036,2020-10-29_19h57.49.248,swahili,2020.2.4,Win32,60,,,,,,,,,,,,,,,,,,,,,,,,,,,,,,,,,,,,,,,,,,,,,,,,,,,34.906495,0.477083355,0.037037023,1,0,0,0.924105,yes,AGENT,A,incorrect,13,0,13,0,1,,,,,,,,,,,,,,,,,,,,,,,,,,,,,,,,,,,,
,,,,,,,,,,1537036,2020-10-29_19h57.49.248,swahili,2020.2.4,Win32,60,,,,,,,,,,,,,,,,,,,,,,,,,,,,,,,,,,,,,,,,,,,,,,,,,,,7.51779,0.347916814,-0.10370372,1,0,0,0.865985,yes,YEAST,HI,incorrect,14,0,14,0,1,,,,,,,,,,,,,,,,,,,,,,,,,,,,,,,,,,,,
,,,,,,,,,,1537036,2020-10-29_19h57.49.248,swahili,2020.2.4,Win32,60,,,,,,,,,,,,,,,,,,,,,,,,,,,,,,,,,,,,,,,,,,,,,,,,,,,6.330265,0.462500149,-0.101851868,1,0,0,0.909555,yes,TAILOR,MSHONI,incorrect,15,0,15,0,1,,,,,,,,,,,,,,,,,,,,,,,,,,,,,,,,,,,,
,,,,,,,,,,1537036,2020-10-29_19h57.49.248,swahili,2020.2.4,Win32,60,,,,,,,,,,,,,,,,,,,,,,,,,,,,,,,,,,,,,,,,,,,,,,,,,,,2.766995,0.457291816,-0.153703721,1,0,0,0.921605,yes,CHEESE,JIBILI,incorrect,16,0,16,0,1,,,,,,,,,,,,,,,,,,,,,,,,,,,,,,,,,,,,
,,,,,,,,,,1537036,2020-10-29_19h57.49.248,swahili,2020.2.4,Win32,60,,,,,,,,,,,,,,,,,,,,,,,,,,,,,,,,,,,,,,,,,,,,,,,,,,,7.642805,0.389583481,-0.098148165,1,0,0,0.85015,yes,BULL,ZIBUBU,incorrect,17,0,17,0,1,,,,,,,,,,,,,,,,,,,,,,,,,,,,,,,,,,,,
,,,,,,,,,,1537036,2020-10-29_19h57.49.248,swahili,2020.2.4,Win32,60,,,,,,,,,,,,,,,,,,,,,,,,,,,,,,,,,,,,,,,,,,,,,,,,,,,17.14251,0.351041687,-0.16296298,1,0,0,0.92426,yes,BOAT,MASHUA,incorrect,18,0,18,0,1,,,,,,,,,,,,,,,,,,,,,,,,,,,,,,,,,,,,
,,,,,,,,,,1537036,2020-10-29_19h57.49.248,swahili,2020.2.4,Win32,60,,,,,,,,,,,,,,,,,,,,,,,,,,,,,,,,,,,,,,,,,,,,,,,,,,,2.5526,0.341666687,-0.155555573,1,0,0,0.84066,yes,DIVORCE,TALAKA,incorrect,19,0,19,0,1,,,,,,,,,,,,,,,,,,,,,,,,,,,,,,,,,,,,
,,,,,,,,,,1537036,2020-10-29_19h57.49.248,swahili,2020.2.4,Win32,60,,,,,,,,,,,,,,,,,,,,,,,,,,,,,,,,,,,,,,,,0,0,0,0,1,,,,,,,,,,,,,,,,,,,,,,,,,,,,,,,,,,,,,,,,,,,,,,,,,,,,,,,,,,
,,,,,,,,,,1537036,2020-10-29_19h57.49.248,swahili,2020.2.4,Win32,60,,,,,,,,,,,,,,,,,,,,,,,,,,,,,,,,,,,,,,,,1,0,1,0,1,,,,,,,,,,,,,,,,,,,,,,,,,,,,,,,,,,,,,,,,,,,,,,,,,,,,,,,,,,
,,,,,,,,,,1537036,2020-10-29_19h57.49.248,swahili,2020.2.4,Win32,60,,,,,,,,,,,,,,,,,,,,,,,,,,,,,,,,,,,,,,,,,,,,,4,0,4,0,1,,,,,,,,,,,,,,,,,,,,,,,,,,,,,,,,,,,,,,,,,,,,,,,,,,,,,
,,,,,,,,,,1537036,2020-10-29_19h57.49.248,swahili,2020.2.4,Win32,60,,,,,,,,,,-0.212499988,0.079629616,1,0,0,1.254095,unsorted_card,0,0,0,0,1,,,,,,,,,,,,,,,,,,,,,,,,,,,,,,,,,,,,,,,,,,,,,,,,,,,,,,,,,,,,,,,,,,,,,,,,,,,,,,,,,
,,,,,,,,,,1537036,2020-10-29_19h57.49.248,swahili,2020.2.4,Win32,60,,,,,,,,,,0.479166689,0.122222209,1,0,0,4.425595,test_pile,1,0,1,0,1,MERCHANT - TAJIRI,,,,,,,,,,,,,,,,,,,,,,,,,,,,,,,,,,,,,,,,,,,,,,,,,,,,,,,,,,,,,,,,,,,,,,,,,,,,,,,,
,,,,,,,,,,1537036,2020-10-29_19h57.49.248,swahili,2020.2.4,Win32,60,,,,,,,,,,-0.054166653,-0.051851868,1,0,0,0.387295,unsorted_card,2,0,2,0,1,,,,,,,,,,,,,,,,,,,,,,,,,,,,,,,,,,,,,,,,,,,,,,,,,,,,,,,,,,,,,,,,,,,,,,,,,,,,,,,,,
,,,,,,,,,,1537036,2020-10-29_19h57.49.248,swahili,2020.2.4,Win32,60,,,,,,,,,,0.364583354,0.049999986,1,0,0,2.94975,test_pile,3,0,3,0,1,PARROT - KASUKU,,,,,,,,,,,,,,,,,,,,,,,,,,,,,,,,,,,,,,,,,,,,,,,,,,,,,,,,,,,,,,,,,,,,,,,,,,,,,,,,
,,,,,,,,,,1537036,2020-10-29_19h57.49.248,swahili,2020.2.4,Win32,60,,,,,,,,,,-0.459374992,0.051851838,1,0,0,0.438895,unsorted_card,4,0,4,0,1,,,,,,,,,,,,,,,,,,,,,,,,,,,,,,,,,,,,,,,,,,,,,,,,,,,,,,,,,,,,,,,,,,,,,,,,,,,,,,,,,
,,,,,,,,,,1537036,2020-10-29_19h57.49.248,swahili,2020.2.4,Win32,60,,,,,,,,,,0.611458357,0.048148134,1,0,0,11.63994,test_pile,5,0,5,0,1,BULL - FAHILI,,,,,,,,,,,,,,,,,,,,,,,,,,,,,,,,,,,,,,,,,,,,,,,,,,,,,,,,,,,,,,,,,,,,,,,,,,,,,,,,
,,,,,,,,,,1537036,2020-10-29_19h57.49.248,swahili,2020.2.4,Win32,60,,,,,,,,,,-0.143749924,-0.098148165,1,0,0,0.47062,unsorted_card,6,0,6,0,1,,,,,,,,,,,,,,,,,,,,,,,,,,,,,,,,,,,,,,,,,,,,,,,,,,,,,,,,,,,,,,,,,,,,,,,,,,,,,,,,,
,,,,,,,,,,1537036,2020-10-29_19h57.49.248,swahili,2020.2.4,Win32,60,,,,,,,,,,0.648958358,0.04444443,1,0,0,2.003335,test_pile,7,0,7,0,1,PLATE - SAHANI,,,,,,,,,,,,,,,,,,,,,,,,,,,,,,,,,,,,,,,,,,,,,,,,,,,,,,,,,,,,,,,,,,,,,,,,,,,,,,,,
,,,,,,,,,,1537036,2020-10-29_19h57.49.248,swahili,2020.2.4,Win32,60,,,,,,,,,,-0.169791591,-0.087037053,1,0,0,1.77562,unsorted_card,8,0,8,0,1,,,,,,,,,,,,,,,,,,,,,,,,,,,,,,,,,,,,,,,,,,,,,,,,,,,,,,,,,,,,,,,,,,,,,,,,,,,,,,,,,
,,,,,,,,,,1537036,2020-10-29_19h57.49.248,swahili,2020.2.4,Win32,60,,,,,,,,,,0.469791689,0.018518504,1,0,0,7.97782,test_pile,9,0,9,0,1,YEAST - HAMIRA,,,,,,,,,,,,,,,,,,,,,,,,,,,,,,,,,,,,,,,,,,,,,,,,,,,,,,,,,,,,,,,,,,,,,,,,,,,,,,,,
,,,,,,,,,,1537036,2020-10-29_19h57.49.248,swahili,2020.2.4,Win32,60,,,,,,,,,,-0.159374924,-0.079629646,1,0,0,0.475495,unsorted_card,10,0,10,0,1,,,,,,,,,,,,,,,,,,,,,,,,,,,,,,,,,,,,,,,,,,,,,,,,,,,,,,,,,,,,,,,,,,,,,,,,,,,,,,,,,
,,,,,,,,,,1537036,2020-10-29_19h57.49.248,swahili,2020.2.4,Win32,60,,,,,,,,,,0.522916689,-0.009259274,1,0,0,1.83167,test_pile,11,0,11,0,1,BLAME - LAWAMA,,,,,,,,,,,,,,,,,,,,,,,,,,,,,,,,,,,,,,,,,,,,,,,,,,,,,,,,,,,,,,,,,,,,,,,,,,,,,,,,
,,,,,,,,,,1537036,2020-10-29_19h57.49.248,swahili,2020.2.4,Win32,60,,,,,,,,,,-0.445833325,-0.001851867,1,0,0,0.377405,unsorted_card,12,0,12,0,1,,,,,,,,,,,,,,,,,,,,,,,,,,,,,,,,,,,,,,,,,,,,,,,,,,,,,,,,,,,,,,,,,,,,,,,,,,,,,,,,,
,,,,,,,,,,1537036,2020-10-29_19h57.49.248,swahili,2020.2.4,Win32,60,,,,,,,,,,0.416666688,-0.005555571,1,0,0,0.898045,test_pile,13,0,13,0,1,OATH - YAMINI,,,,,,,,,,,,,,,,,,,,,,,,,,,,,,,,,,,,,,,,,,,,,,,,,,,,,,,,,,,,,,,,,,,,,,,,,,,,,,,,
,,,,,,,,,,1537036,2020-10-29_19h57.49.248,swahili,2020.2.4,Win32,60,,,,,,,,,,-0.286458323,-0.042592608,1,0,0,0.34442,unsorted_card,14,0,14,0,1,,,,,,,,,,,,,,,,,,,,,,,,,,,,,,,,,,,,,,,,,,,,,,,,,,,,,,,,,,,,,,,,,,,,,,,,,,,,,,,,,
,,,,,,,,,,1537036,2020-10-29_19h57.49.248,swahili,2020.2.4,Win32,60,,,,,,,,,,0.479166689,0.007407393,1,0,0,1.20025,test_pile,15,0,15,0,1,CORN - NAFAKA,,,,,,,,,,,,,,,,,,,,,,,,,,,,,,,,,,,,,,,,,,,,,,,,,,,,,,,,,,,,,,,,,,,,,,,,,,,,,,,,
,,,,,,,,,,1537036,2020-10-29_19h57.49.248,swahili,2020.2.4,Win32,60,,,,,,,,,,-0.280208323,-0.04444446,1,0,0,0.37913,unsorted_card,16,0,16,0,1,,,,,,,,,,,,,,,,,,,,,,,,,,,,,,,,,,,,,,,,,,,,,,,,,,,,,,,,,,,,,,,,,,,,,,,,,,,,,,,,,
,,,,,,,,,,1537036,2020-10-29_19h57.49.248,swahili,2020.2.4,Win32,60,,,,,,,,,,0.55729169,0.003703689,1,0,0,0.9561,test_pile,17,0,17,0,1,POEM - UTENZI,,,,,,,,,,,,,,,,,,,,,,,,,,,,,,,,,,,,,,,,,,,,,,,,,,,,,,,,,,,,,,,,,,,,,,,,,,,,,,,,
,,,,,,,,,,1537036,2020-10-29_19h57.49.248,swahili,2020.2.4,Win32,60,,,,,,,,,,-0.129166654,-0.005555571,1,0,0,0.365165,unsorted_card,18,0,18,0,1,,,,,,,,,,,,,,,,,,,,,,,,,,,,,,,,,,,,,,,,,,,,,,,,,,,,,,,,,,,,,,,,,,,,,,,,,,,,,,,,,
,,,,,,,,,,1537036,2020-10-29_19h57.49.248,swahili,2020.2.4,Win32,60,,,,,,,,,,0.458333355,-0.01481483,1,0,0,1.80666,test_pile,19,0,19,0,1,TAILOR - MSHONI,,,,,,,,,,,,,,,,,,,,,,,,,,,,,,,,,,,,,,,,,,,,,,,,,,,,,,,,,,,,,,,,,,,,,,,,,,,,,,,,
,,,,,,,,,,1537036,2020-10-29_19h57.49.248,swahili,2020.2.4,Win32,60,,,,,,,,,,-0.263541592,-0.04444446,1,0,0,0.33134,unsorted_card,20,0,20,0,1,,,,,,,,,,,,,,,,,,,,,,,,,,,,,,,,,,,,,,,,,,,,,,,,,,,,,,,,,,,,,,,,,,,,,,,,,,,,,,,,,
,,,,,,,,,,1537036,2020-10-29_19h57.49.248,swahili,2020.2.4,Win32,60,,,,,,,,,,0.470833355,-0.035185201,1,0,0,1.20676,test_pile,21,0,21,0,1,CHEESE - JIBINI,,,,,,,,,,,,,,,,,,,,,,,,,,,,,,,,,,,,,,,,,,,,,,,,,,,,,,,,,,,,,,,,,,,,,,,,,,,,,,,,
,,,,,,,,,,1537036,2020-10-29_19h57.49.248,swahili,2020.2.4,Win32,60,,,,,,,,,,-0.30937499,-0.018518534,1,0,0,0.352235,unsorted_card,22,0,22,0,1,,,,,,,,,,,,,,,,,,,,,,,,,,,,,,,,,,,,,,,,,,,,,,,,,,,,,,,,,,,,,,,,,,,,,,,,,,,,,,,,,
,,,,,,,,,,1537036,2020-10-29_19h57.49.248,swahili,2020.2.4,Win32,60,,,,,,,,,,0.471875022,0.018518504,1,0,0,0.78746,test_pile,23,0,23,0,1,GRAPES - ZABIBU,,,,,,,,,,,,,,,,,,,,,,,,,,,,,,,,,,,,,,,,,,,,,,,,,,,,,,,,,,,,,,,,,,,,,,,,,,,,,,,,
,,,,,,,,,,1537036,2020-10-29_19h57.49.248,swahili,2020.2.4,Win32,60,,,,,,,,,,-0.217708322,-0.048148164,1,0,0,0.3481,unsorted_card,24,0,24,0,1,,,,,,,,,,,,,,,,,,,,,,,,,,,,,,,,,,,,,,,,,,,,,,,,,,,,,,,,,,,,,,,,,,,,,,,,,,,,,,,,,
,,,,,,,,,,1537036,2020-10-29_19h57.49.248,swahili,2020.2.4,Win32,60,,,,,,,,,,0.425000021,0.025925911,1,0,0,1.068045,test_pile,25,0,25,0,1,GRAVE - KABURI,,,,,,,,,,,,,,,,,,,,,,,,,,,,,,,,,,,,,,,,,,,,,,,,,,,,,,,,,,,,,,,,,,,,,,,,,,,,,,,,
,,,,,,,,,,1537036,2020-10-29_19h57.49.248,swahili,2020.2.4,Win32,60,,,,,,,,,,-0.255208322,-0.016666682,1,0,0,0.359065,unsorted_card,26,0,26,0,1,,,,,,,,,,,,,,,,,,,,,,,,,,,,,,,,,,,,,,,,,,,,,,,,,,,,,,,,,,,,,,,,,,,,,,,,,,,,,,,,,
,,,,,,,,,,1537036,2020-10-29_19h57.49.248,swahili,2020.2.4,Win32,60,,,,,,,,,,0.479166689,0.049999986,1,0,0,0.970635,test_pile,27,0,27,0,1,MANURE - SAMADI,,,,,,,,,,,,,,,,,,,,,,,,,,,,,,,,,,,,,,,,,,,,,,,,,,,,,,,,,,,,,,,,,,,,,,,,,,,,,,,,
,,,,,,,,,,1537036,2020-10-29_19h57.49.248,swahili,2020.2.4,Win32,60,,,,,,,,,,-0.146874987,-0.022222237,1,0,0,3.586085,unsorted_card,28,0,28,0,1,,,,,,,,,,,,,,,,,,,,,,,,,,,,,,,,,,,,,,,,,,,,,,,,,,,,,,,,,,,,,,,,,,,,,,,,,,,,,,,,,
,,,,,,,,,,1537036,2020-10-29_19h57.49.248,swahili,2020.2.4,Win32,60,,,,,,,,,,0.496875022,0.012962948,1,0,0,5.5771,test_pile,29,0,29,0,1,AGENT - WAKILI,,,,,,,,,,,,,,,,,,,,,,,,,,,,,,,,,,,,,,,,,,,,,,,,,,,,,,,,,,,,,,,,,,,,,,,,,,,,,,,,
,,,,,,,,,,1537036,2020-10-29_19h57.49.248,swahili,2020.2.4,Win32,60,,,,,,,,,,-0.432291658,-0.075925942,1,0,0,0.467155,unsorted_card,30,0,30,0,1,,,,,,,,,,,,,,,,,,,,,,,,,,,,,,,,,,,,,,,,,,,,,,,,,,,,,,,,,,,,,,,,,,,,,,,,,,,,,,,,,
,,,,,,,,,,1537036,2020-10-29_19h57.49.248,swahili,2020.2.4,Win32,60,,,,,,,,,,0.481250022,0.081481411,1,0,0,2.394095,test_pile,31,0,31,0,1,BRIBE - RUSHWA,,,,,,,,,,,,,,,,,,,,,,,,,,,,,,,,,,,,,,,,,,,,,,,,,,,,,,,,,,,,,,,,,,,,,,,,,,,,,,,,
,,,,,,,,,,1537036,2020-10-29_19h57.49.248,swahili,2020.2.4,Win32,60,,,,,,,,,,-0.214583322,0.111111098,1,0,0,0.371865,unsorted_card,32,0,32,0,1,,,,,,,,,,,,,,,,,,,,,,,,,,,,,,,,,,,,,,,,,,,,,,,,,,,,,,,,,,,,,,,,,,,,,,,,,,,,,,,,,
,,,,,,,,,,1537036,2020-10-29_19h57.49.248,swahili,2020.2.4,Win32,60,,,,,,,,,,0.383333354,-0.037037052,1,0,0,1.137295,test_pile,33,0,33,0,1,ORPHAN - YATIMA,,,,,,,,,,,,,,,,,,,,,,,,,,,,,,,,,,,,,,,,,,,,,,,,,,,,,,,,,,,,,,,,,,,,,,,,,,,,,,,,
,,,,,,,,,,1537036,2020-10-29_19h57.49.248,swahili,2020.2.4,Win32,60,,,,,,,,,,-0.145833321,-0.072222238,1,0,0,0.32835,unsorted_card,34,0,34,0,1,,,,,,,,,,,,,,,,,,,,,,,,,,,,,,,,,,,,,,,,,,,,,,,,,,,,,,,,,,,,,,,,,,,,,,,,,,,,,,,,,
,,,,,,,,,,1537036,2020-10-29_19h57.49.248,swahili,2020.2.4,Win32,60,,,,,,,,,,0.429166688,0.053703633,1,0,0,0.817755,test_pile,35,0,35,0,1,DIVORCE - TALAKA,,,,,,,,,,,,,,,,,,,,,,,,,,,,,,,,,,,,,,,,,,,,,,,,,,,,,,,,,,,,,,,,,,,,,,,,,,,,,,,,
,,,,,,,,,,1537036,2020-10-29_19h57.49.248,swahili,2020.2.4,Win32,60,,,,,,,,,,-0.190624924,-0.081481498,1,0,0,0.32449,unsorted_card,36,0,36,0,1,,,,,,,,,,,,,,,,,,,,,,,,,,,,,,,,,,,,,,,,,,,,,,,,,,,,,,,,,,,,,,,,,,,,,,,,,,,,,,,,,
,,,,,,,,,,1537036,2020-10-29_19h57.49.248,swahili,2020.2.4,Win32,60,,,,,,,,,,0.448958355,0.064814801,1,0,0,1.443975,test_pile,37,0,37,0,1,BOAT - MASHUA,,,,,,,,,,,,,,,,,,,,,,,,,,,,,,,,,,,,,,,,,,,,,,,,,,,,,,,,,,,,,,,,,,,,,,,,,,,,,,,,
,,,,,,,,,,1537036,2020-10-29_19h57.49.248,swahili,2020.2.4,Win32,60,,,,,,,,,,-0.335416657,0.020370356,1,0,0,0.371995,unsorted_card,38,0,38,0,1,,,,,,,,,,,,,,,,,,,,,,,,,,,,,,,,,,,,,,,,,,,,,,,,,,,,,,,,,,,,,,,,,,,,,,,,,,,,,,,,,
,,,,,,,,,,1537036,2020-10-29_19h57.49.248,swahili,2020.2.4,Win32,60,,,,,,,,,,0.482291689,0.025925911,1,0,0,1.44293,test_pile,39,0,39,0,1,TREASURE - DAFINA,,,,,,,,,,,,,,,,,,,,,,,,,,,,,,,,,,,,,,,,,,,,,,,,,,,,,,,,,,,,,,,,,,,,,,,,,,,,,,,,
,,,,,,,,,,1537036,2020-10-29_19h57.49.248,swahili,2020.2.4,Win32,60,,,,,,,,,,,,,,,,,,,,,,,,,,,,,,,,,,0,0,0,0,1,,,,,,,,,,,,,,,,,,,,,,,,,,,,,,,,,,,,,,,,,,,,,,,,,,,,,,,,,,,,,,,,
,,,,,,,,,,1537036,2020-10-29_19h57.49.248,swahili,2020.2.4,Win32,60,,,,,,,,,,,,,,,,,,,,,,,,,,,,,,,,,,,,,,,return,,,,,,,,,,,3.412845,2.65819,0.440625021,-0.016666682,1,0,0,1.028045,yes,BRIBE,RUSHWA,incorrect,0,0,0,0,1,,,,,,,,,,,,,,,,,,,,,,,,,,,,,,,,,,,,
,,,,,,,,,,1537036,2020-10-29_19h57.49.248,swahili,2020.2.4,Win32,60,,,,,,,,,,,,,,,,,,,,,,,,,,,,,,,,,,,,,,,,,,,,,,,,,,,5.673855,0.518750023,0.064814801,1,0,0,1.00714,yes,CORN,NAFAKA,incorrect,1,0,1,0,1,,,,,,,,,,,,,,,,,,,,,,,,,,,,,,,,,,,,
,,,,,,,,,,1537036,2020-10-29_19h57.49.248,swahili,2020.2.4,Win32,60,,,,,,,,,,,,,,,,,,,,,,,,,,,,,,,,,,,,,,,,,,,,,,,,,,,24.21577,0.661458358,0.146296227,1,0,0,1.21258,yes,BLAME,HI,incorrect,2,0,2,0,1,,,,,,,,,,,,,,,,,,,,,,,,,,,,,,,,,,,,
,,,,,,,,,,1537036,2020-10-29_19h57.49.248,swahili,2020.2.4,Win32,60,,,,,,,,,,,,,,,,,,,,,,,,,,,,,,,,,,,,,,,,,,,,,,,,,,,19.4481,0.201041685,-0.214814833,1,0,0,0.81956,yes,BULL,F,incorrect,3,0,3,0,1,,,,,,,,,,,,,,,,,,,,,,,,,,,,,,,,,,,,
,,,,,,,,,,1537036,2020-10-29_19h57.49.248,swahili,2020.2.4,Win32,60,,,,,,,,,,,,,,,,,,,,,,,,,,,,,,,,,,,,,,,,,,,,,,,,,,,8.935775,0.33125002,-0.168518536,1,0,0,1.44439,yes,ORPHAN,YATIMA,incorrect,4,0,4,0,1,,,,,,,,,,,,,,,,,,,,,,,,,,,,,,,,,,,,
,,,,,,,,,,1537036,2020-10-29_19h57.49.248,swahili,2020.2.4,Win32,60,,,,,,,,,,,,,,,,,,,,,,,,,,,,,,,,,,,,,,,,,,,,,,,,,,,4.114915,0.391666687,-0.170370388,1,0,0,0.840705,yes,DIVORCE,TALAKA,incorrect,5,0,5,0,1,,,,,,,,,,,,,,,,,,,,,,,,,,,,,,,,,,,,
,,,,,,,,,,1537036,2020-10-29_19h57.49.248,swahili,2020.2.4,Win32,60,,,,,,,,,,,,,,,,,,,,,,,,,,,,,,,,,,,,,,,,,,,,,,,,,,,7.53795,0.442708355,-0.144444461,1,0,0,0.840345,yes,GRAPES,ZABIBU,incorrect,6,0,6,0,1,,,,,,,,,,,,,,,,,,,,,,,,,,,,,,,,,,,,
,,,,,,,,,,1537036,2020-10-29_19h57.49.248,swahili,2020.2.4,Win32,60,,,,,,,,,,,,,,,,,,,,,,,,,,,,,,,,,,,,,,,,,,,,,,,,,,,10.149355,0.378125021,-0.17222224,1,0,0,1.034945,yes,PLATE,FAHINI,incorrect,7,0,7,0,1,,,,,,,,,,,,,,,,,,,,,,,,,,,,,,,,,,,,
,,,,,,,,,,1537036,2020-10-29_19h57.49.248,swahili,2020.2.4,Win32,60,,,,,,,,,,,,,,,,,,,,,,,,,,,,,,,,,,,,,,,,,,,,,,,,,,,16.309605,0.416666688,-0.16296298,1,0,0,0.868295,yes,AGENT,WAKAZU,incorrect,8,0,8,0,1,,,,,,,,,,,,,,,,,,,,,,,,,,,,,,,,,,,,
,,,,,,,,,,1537036,2020-10-29_19h57.49.248,swahili,2020.2.4,Win32,60,,,,,,,,,,,,,,,,,,,,,,,,,,,,,,,,,,,,,,,,,,,,,,,,,,,48.577885,0.377083354,-0.150000017,1,0,0,0.89715,yes,YEAST,TAMIRI,incorrect,9,0,9,0,1,,,,,,,,,,,,,,,,,,,,,,,,,,,,,,,,,,,,
,,,,,,,,,,1537036,2020-10-29_19h57.49.248,swahili,2020.2.4,Win32,60,,,,,,,,,,,,,,,,,,,,,,,,,,,,,,,,,,,,,,,,,,,,,,,,,,,11.0107,0.360416687,-0.227777796,1,0,0,0.889335,yes,PARROT,KASUKU,incorrect,10,0,10,0,1,,,,,,,,,,,,,,,,,,,,,,,,,,,,,,,,,,,,
,,,,,,,,,,1537036,2020-10-29_19h57.49.248,swahili,2020.2.4,Win32,60,,,,,,,,,,,,,,,,,,,,,,,,,,,,,,,,,,,,,,,,,,,,,,,,,,,3.506645,0.37500002,-0.098148165,1,0,0,0.954205,yes,CHEESE,JIBINI,incorrect,11,0,11,0,1,,,,,,,,,,,,,,,,,,,,,,,,,,,,,,,,,,,,
,,,,,,,,,,1537036,2020-10-29_19h57.49.248,swahili,2020.2.4,Win32,60,,,,,,,,,,,,,,,,,,,,,,,,,,,,,,,,,,,,,,,,,,,,,,,,,,,4.95541,0.452083482,0.003703689,1,0,0,0.987295,yes,MANURE,SAMADI,incorrect,12,0,12,0,1,,,,,,,,,,,,,,,,,,,,,,,,,,,,,,,,,,,,
,,,,,,,,,,1537036,2020-10-29_19h57.49.248,swahili,2020.2.4,Win32,60,,,,,,,,,,,,,,,,,,,,,,,,,,,,,,,,,,,,,,,,,,,,,,,,,,,4.587475,0.434375021,-0.077777794,1,0,0,0.86104,yes,TAILOR,MSHONI,incorrect,13,0,13,0,1,,,,,,,,,,,,,,,,,,,,,,,,,,,,,,,,,,,,
,,,,,,,,,,1537036,2020-10-29_19h57.49.248,swahili,2020.2.4,Win32,60,,,,,,,,,,,,,,,,,,,,,,,,,,,,,,,,,,,,,,,,,,,,,,,,,,,3.80876,0.56354169,0.025925911,1,0,0,0.86375,yes,POEM,UTENZI,incorrect,14,0,14,0,1,,,,,,,,,,,,,,,,,,,,,,,,,,,,,,,,,,,,
,,,,,,,,,,1537036,2020-10-29_19h57.49.248,swahili,2020.2.4,Win32,60,,,,,,,,,,,,,,,,,,,,,,,,,,,,,,,,,,,,,,,,,,,,,,,,,,,4.677635,0.452083482,-0.203703722,1,0,0,0.92863,yes,BOAT,MASHUA,incorrect,15,0,15,0,1,,,,,,,,,,,,,,,,,,,,,,,,,,,,,,,,,,,,
,,,,,,,,,,1537036,2020-10-29_19h57.49.248,swahili,2020.2.4,Win32,60,,,,,,,,,,,,,,,,,,,,,,,,,,,,,,,,,,,,,,,,,,,,,,,,,,,10.239975,0.442708355,-0.092592609,1,0,0,0.854615,yes,GRAVE,KABURI,incorrect,16,0,16,0,1,,,,,,,,,,,,,,,,,,,,,,,,,,,,,,,,,,,,
,,,,,,,,,,1537036,2020-10-29_19h57.49.248,swahili,2020.2.4,Win32,60,,,,,,,,,,,,,,,,,,,,,,,,,,,,,,,,,,,,,,,,,,,,,,,,,,,4.00402,0.417708354,-0.179629647,1,0,0,0.868155,yes,MERCHANT,TAJIRI,incorrect,17,0,17,0,1,,,,,,,,,,,,,,,,,,,,,,,,,,,,,,,,,,,,
,,,,,,,,,,1537036,2020-10-29_19h57.49.248,swahili,2020.2.4,Win32,60,,,,,,,,,,,,,,,,,,,,,,,,,,,,,,,,,,,,,,,,,,,,,,,,,,,7.02442,0.493750149,-0.11296298,1,0,0,0.82675,yes,TREASURE,DAFINA,incorrect,18,0,18,0,1,,,,,,,,,,,,,,,,,,,,,,,,,,,,,,,,,,,,
,,,,,,,,,,1537036,2020-10-29_19h57.49.248,swahili,2020.2.4,Win32,60,,,,,,,,,,,,,,,,,,,,,,,,,,,,,,,,,,,,,,,,,,,,,,,,,,,3.74068,0.383333354,-0.190740758,1,0,0,0.895795,yes,OATH,YAMINI,incorrect,19,0,19,0,1,,,,,,,,,,,,,,,,,,,,,,,,,,,,,,,,,,,,
,,,,,,,,,,1537036,2020-10-29_19h57.49.248,swahili,2020.2.4,Win32,60,,,,,,,,,,,,,,,,,,,,,,,,,,,,,,,,,,,,,,,,0,0,0,0,1,,,,,,,,,,,,,,,,,,,,,,,,,,,,,,,,,,,,,,,,,,,,,,,,,,,,,,,,,,
,,,,,,,,,,1537036,2020-10-29_19h57.49.248,swahili,2020.2.4,Win32,60,,,,,,,,,,,,,,,,,,,,,,,,,,,,,,,,,,,,,,,,1,0,1,0,1,,,,,,,,,,,,,,,,,,,,,,,,,,,,,,,,,,,,,,,,,,,,,,,,,,,,,,,,,,
,,,,,,,,,,1537036,2020-10-29_19h57.49.248,swahili,2020.2.4,Win32,60,,,,,,,,,,,,,,,,,,,,,,,,,,,,,,,,,,,,,,,,,,,,,5,0,5,0,1,,,,,,,,,,,,,,,,,,,,,,,,,,,,,,,,,,,,,,,,,,,,,,,,,,,,,
,,,,,,,,,,1537036,2020-10-29_19h57.49.248,swahili,2020.2.4,Win32,60,,,,,,,,,,-0.271874989,-0.159259277,1,0,0,0.818925,unsorted_card,0,0,0,0,1,,,,,,,,,,,,,,,,,,,,,,,,,,,,,,,,,,,,,,,,,,,,,,,,,,,,,,,,,,,,,,,,,,,,,,,,,,,,,,,,,
,,,,,,,,,,1537036,2020-10-29_19h57.49.248,swahili,2020.2.4,Win32,60,,,,,,,,,,0.469791689,-0.129629646,1,0,0,1.075475,test_pile,1,0,1,0,1,MERCHANT - TAJIRI,,,,,,,,,,,,,,,,,,,,,,,,,,,,,,,,,,,,,,,,,,,,,,,,,,,,,,,,,,,,,,,,,,,,,,,,,,,,,,,,
,,,,,,,,,,1537036,2020-10-29_19h57.49.248,swahili,2020.2.4,Win32,60,,,,,,,,,,-0.269791656,0.0148148,1,0,0,0.484055,unsorted_card,2,0,2,0,1,,,,,,,,,,,,,,,,,,,,,,,,,,,,,,,,,,,,,,,,,,,,,,,,,,,,,,,,,,,,,,,,,,,,,,,,,,,,,,,,,
,,,,,,,,,,1537036,2020-10-29_19h57.49.248,swahili,2020.2.4,Win32,60,,,,,,,,,,0.476041689,0.003703689,1,0,0,3.408105,test_pile,3,0,3,0,1,PARROT - KASUKU,,,,,,,,,,,,,,,,,,,,,,,,,,,,,,,,,,,,,,,,,,,,,,,,,,,,,,,,,,,,,,,,,,,,,,,,,,,,,,,,
,,,,,,,,,,1537036,2020-10-29_19h57.49.248,swahili,2020.2.4,Win32,60,,,,,,,,,,-0.35937499,-0.105555572,1,0,0,0.389835,unsorted_card,4,0,4,0,1,,,,,,,,,,,,,,,,,,,,,,,,,,,,,,,,,,,,,,,,,,,,,,,,,,,,,,,,,,,,,,,,,,,,,,,,,,,,,,,,,
,,,,,,,,,,1537036,2020-10-29_19h57.49.248,swahili,2020.2.4,Win32,60,,,,,,,,,,0.683333358,0.003703689,1,0,0,13.501405,test_pile,5,0,5,0,1,BULL - FAHILI,,,,,,,,,,,,,,,,,,,,,,,,,,,,,,,,,,,,,,,,,,,,,,,,,,,,,,,,,,,,,,,,,,,,,,,,,,,,,,,,
,,,,,,,,,,1537036,2020-10-29_19h57.49.248,swahili,2020.2.4,Win32,60,,,,,,,,,,-0.097916653,-0.057407423,1,0,0,0.449025,unsorted_card,6,0,6,0,1,,,,,,,,,,,,,,,,,,,,,,,,,,,,,,,,,,,,,,,,,,,,,,,,,,,,,,,,,,,,,,,,,,,,,,,,,,,,,,,,,
,,,,,,,,,,1537036,2020-10-29_19h57.49.248,swahili,2020.2.4,Win32,60,,,,,,,,,,0.488541816,-0.025925941,1,0,0,1.310875,test_pile,7,0,7,0,1,PLATE - SAHANI,,,,,,,,,,,,,,,,,,,,,,,,,,,,,,,,,,,,,,,,,,,,,,,,,,,,,,,,,,,,,,,,,,,,,,,,,,,,,,,,
,,,,,,,,,,1537036,2020-10-29_19h57.49.248,swahili,2020.2.4,Win32,60,,,,,,,,,,-0.214583322,-0.064814831,1,0,0,0.53965,unsorted_card,8,0,8,0,1,,,,,,,,,,,,,,,,,,,,,,,,,,,,,,,,,,,,,,,,,,,,,,,,,,,,,,,,,,,,,,,,,,,,,,,,,,,,,,,,,
,,,,,,,,,,1537036,2020-10-29_19h57.49.248,swahili,2020.2.4,Win32,60,,,,,,,,,,0.380208354,-0.029629645,1,0,0,5.450495,test_pile,9,0,9,0,1,YEAST - HAMIRA,,,,,,,,,,,,,,,,,,,,,,,,,,,,,,,,,,,,,,,,,,,,,,,,,,,,,,,,,,,,,,,,,,,,,,,,,,,,,,,,
,,,,,,,,,,1537036,2020-10-29_19h57.49.248,swahili,2020.2.4,Win32,60,,,,,,,,,,-0.186458321,0.025925911,1,0,0,0.60679,unsorted_card,10,0,10,0,1,,,,,,,,,,,,,,,,,,,,,,,,,,,,,,,,,,,,,,,,,,,,,,,,,,,,,,,,,,,,,,,,,,,,,,,,,,,,,,,,,
,,,,,,,,,,1537036,2020-10-29_19h57.49.248,swahili,2020.2.4,Win32,60,,,,,,,,,,0.55729169,-0.062962979,1,0,0,1.304435,test_pile,11,0,11,0,1,BLAME - LAWAMA,,,,,,,,,,,,,,,,,,,,,,,,,,,,,,,,,,,,,,,,,,,,,,,,,,,,,,,,,,,,,,,,,,,,,,,,,,,,,,,,
,,,,,,,,,,1537036,2020-10-29_19h57.49.248,swahili,2020.2.4,Win32,60,,,,,,,,,,-0.137499987,-1.4912E-08,1,0,0,0.53222,unsorted_card,12,0,12,0,1,,,,,,,,,,,,,,,,,,,,,,,,,,,,,,,,,,,,,,,,,,,,,,,,,,,,,,,,,,,,,,,,,,,,,,,,,,,,,,,,,
,,,,,,,,,,1537036,2020-10-29_19h57.49.248,swahili,2020.2.4,Win32,60,,,,,,,,,,0.507291689,0.007407393,1,0,0,0.766025,test_pile,13,0,13,0,1,OATH - YAMINI,,,,,,,,,,,,,,,,,,,,,,,,,,,,,,,,,,,,,,,,,,,,,,,,,,,,,,,,,,,,,,,,,,,,,,,,,,,,,,,,
,,,,,,,,,,1537036,2020-10-29_19h57.49.248,swahili,2020.2.4,Win32,60,,,,,,,,,,-0.163541654,-0.059259275,1,0,0,0.415575,unsorted_card,14,0,14,0,1,,,,,,,,,,,,,,,,,,,,,,,,,,,,,,,,,,,,,,,,,,,,,,,,,,,,,,,,,,,,,,,,,,,,,,,,,,,,,,,,,
,,,,,,,,,,1537036,2020-10-29_19h57.49.248,swahili,2020.2.4,Win32,60,,,,,,,,,,0.452083482,-0.025925941,1,0,0,0.764475,test_pile,15,0,15,0,1,CORN - NAFAKA,,,,,,,,,,,,,,,,,,,,,,,,,,,,,,,,,,,,,,,,,,,,,,,,,,,,,,,,,,,,,,,,,,,,,,,,,,,,,,,,
,,,,,,,,,,1537036,2020-10-29_19h57.49.248,swahili,2020.2.4,Win32,60,,,,,,,,,,-0.13645832,-0.057407423,1,0,0,0.39726,unsorted_card,16,0,16,0,1,,,,,,,,,,,,,,,,,,,,,,,,,,,,,,,,,,,,,,,,,,,,,,,,,,,,,,,,,,,,,,,,,,,,,,,,,,,,,,,,,
,,,,,,,,,,1537036,2020-10-29_19h57.49.248,swahili,2020.2.4,Win32,60,,,,,,,,,,0.469791689,-0.122222239,1,0,0,0.58994,test_pile,17,0,17,0,1,POEM - UTENZI,,,,,,,,,,,,,,,,,,,,,,,,,,,,,,,,,,,,,,,,,,,,,,,,,,,,,,,,,,,,,,,,,,,,,,,,,,,,,,,,
,,,,,,,,,,1537036,2020-10-29_19h57.49.248,swahili,2020.2.4,Win32,60,,,,,,,,,,-0.195833258,-0.062962979,1,0,0,0.38723,unsorted_card,18,0,18,0,1,,,,,,,,,,,,,,,,,,,,,,,,,,,,,,,,,,,,,,,,,,,,,,,,,,,,,,,,,,,,,,,,,,,,,,,,,,,,,,,,,
,,,,,,,,,,1537036,2020-10-29_19h57.49.248,swahili,2020.2.4,Win32,60,,,,,,,,,,0.441666815,-0.005555571,1,0,0,1.38022,test_pile,19,0,19,0,1,TAILOR - MSHONI,,,,,,,,,,,,,,,,,,,,,,,,,,,,,,,,,,,,,,,,,,,,,,,,,,,,,,,,,,,,,,,,,,,,,,,,,,,,,,,,
,,,,,,,,,,1537036,2020-10-29_19h57.49.248,swahili,2020.2.4,Win32,60,,,,,,,,,,-0.351041657,-0.061111127,1,0,0,0.421395,unsorted_card,20,0,20,0,1,,,,,,,,,,,,,,,,,,,,,,,,,,,,,,,,,,,,,,,,,,,,,,,,,,,,,,,,,,,,,,,,,,,,,,,,,,,,,,,,,
,,,,,,,,,,1537036,2020-10-29_19h57.49.248,swahili,2020.2.4,Win32,60,,,,,,,,,,0.422916688,-0.003703719,1,0,0,0.65578,test_pile,21,0,21,0,1,CHEESE - JIBINI,,,,,,,,,,,,,,,,,,,,,,,,,,,,,,,,,,,,,,,,,,,,,,,,,,,,,,,,,,,,,,,,,,,,,,,,,,,,,,,,
,,,,,,,,,,1537036,2020-10-29_19h57.49.248,swahili,2020.2.4,Win32,60,,,,,,,,,,-0.249999989,0.007407393,1,0,0,0.364005,unsorted_card,22,0,22,0,1,,,,,,,,,,,,,,,,,,,,,,,,,,,,,,,,,,,,,,,,,,,,,,,,,,,,,,,,,,,,,,,,,,,,,,,,,,,,,,,,,
,,,,,,,,,,1537036,2020-10-29_19h57.49.248,swahili,2020.2.4,Win32,60,,,,,,,,,,0.355208354,-0.024074089,1,0,0,2.087055,test_pile,23,0,23,0,1,GRAPES - ZABIBU,,,,,,,,,,,,,,,,,,,,,,,,,,,,,,,,,,,,,,,,,,,,,,,,,,,,,,,,,,,,,,,,,,,,,,,,,,,,,,,,
,,,,,,,,,,1537036,2020-10-29_19h57.49.248,swahili,2020.2.4,Win32,60,,,,,,,,,,-0.240624989,-0.131481498,1,0,0,0.35176,unsorted_card,24,0,24,0,1,,,,,,,,,,,,,,,,,,,,,,,,,,,,,,,,,,,,,,,,,,,,,,,,,,,,,,,,,,,,,,,,,,,,,,,,,,,,,,,,,
,,,,,,,,,,1537036,2020-10-29_19h57.49.248,swahili,2020.2.4,Win32,60,,,,,,,,,,0.391666687,-0.020370386,1,0,0,1.345875,test_pile,25,0,25,0,1,GRAVE - KABURI,,,,,,,,,,,,,,,,,,,,,,,,,,,,,,,,,,,,,,,,,,,,,,,,,,,,,,,,,,,,,,,,,,,,,,,,,,,,,,,,
,,,,,,,,,,1537036,2020-10-29_19h57.49.248,swahili,2020.2.4,Win32,60,,,,,,,,,,-0.198958321,-0.090740757,1,0,0,0.573935,unsorted_card,26,0,26,0,1,,,,,,,,,,,,,,,,,,,,,,,,,,,,,,,,,,,,,,,,,,,,,,,,,,,,,,,,,,,,,,,,,,,,,,,,,,,,,,,,,
,,,,,,,,,,1537036,2020-10-29_19h57.49.248,swahili,2020.2.4,Win32,60,,,,,,,,,,0.353125147,0.037037023,1,0,0,1.935795,test_pile,27,0,27,0,1,MANURE - SAMADI,,,,,,,,,,,,,,,,,,,,,,,,,,,,,,,,,,,,,,,,,,,,,,,,,,,,,,,,,,,,,,,,,,,,,,,,,,,,,,,,
,,,,,,,,,,1537036,2020-10-29_19h57.49.248,swahili,2020.2.4,Win32,60,,,,,,,,,,-0.255208322,-0.075925942,1,0,0,0.31735,unsorted_card,28,0,28,0,1,,,,,,,,,,,,,,,,,,,,,,,,,,,,,,,,,,,,,,,,,,,,,,,,,,,,,,,,,,,,,,,,,,,,,,,,,,,,,,,,,
,,,,,,,,,,1537036,2020-10-29_19h57.49.248,swahili,2020.2.4,Win32,60,,,,,,,,,,0.398958354,-0.051851868,1,0,0,1.22747,test_pile,29,0,29,0,1,AGENT - WAKILI,,,,,,,,,,,,,,,,,,,,,,,,,,,,,,,,,,,,,,,,,,,,,,,,,,,,,,,,,,,,,,,,,,,,,,,,,,,,,,,,
,,,,,,,,,,1537036,2020-10-29_19h57.49.248,swahili,2020.2.4,Win32,60,,,,,,,,,,-0.216666591,0.029629615,1,0,0,0.42831,unsorted_card,30,0,30,0,1,,,,,,,,,,,,,,,,,,,,,,,,,,,,,,,,,,,,,,,,,,,,,,,,,,,,,,,,,,,,,,,,,,,,,,,,,,,,,,,,,
,,,,,,,,,,1537036,2020-10-29_19h57.49.248,swahili,2020.2.4,Win32,60,,,,,,,,,,0.403125021,-0.040740756,1,0,0,1.3245,test_pile,31,0,31,0,1,BRIBE - RUSHWA,,,,,,,,,,,,,,,,,,,,,,,,,,,,,,,,,,,,,,,,,,,,,,,,,,,,,,,,,,,,,,,,,,,,,,,,,,,,,,,,
,,,,,,,,,,1537036,2020-10-29_19h57.49.248,swahili,2020.2.4,Win32,60,,,,,,,,,,-0.262499989,-0.025925941,1,0,0,0.359215,unsorted_card,32,0,32,0,1,,,,,,,,,,,,,,,,,,,,,,,,,,,,,,,,,,,,,,,,,,,,,,,,,,,,,,,,,,,,,,,,,,,,,,,,,,,,,,,,,
,,,,,,,,,,1537036,2020-10-29_19h57.49.248,swahili,2020.2.4,Win32,60,,,,,,,,,,0.336458353,-0.012962978,1,0,0,0.66529,test_pile,33,0,33,0,1,ORPHAN - YATIMA,,,,,,,,,,,,,,,,,,,,,,,,,,,,,,,,,,,,,,,,,,,,,,,,,,,,,,,,,,,,,,,,,,,,,,,,,,,,,,,,
