condition,consent_key.keys,consent_key.rt,done_with_instructions.keys,done_with_instructions.rt,instr_loop.thisRepN,instr_loop.thisTrialN,instr_loop.thisN,instr_loop.thisIndex,instr_loop.ran,Student ID #,date,expName,psychopyVersion,OS,frameRate,instr_learning_key.keys,instr_learning_key.rt,card_gen_loop.thisRepN,card_gen_loop.thisTrialN,card_gen_loop.thisN,card_gen_loop.thisIndex,card_gen_loop.ran,swa,eng,choose_pile.x,choose_pile.y,choose_pile.leftButton,choose_pile.midButton,choose_pile.rightButton,choose_pile.time,choose_pile.clicked_name,choices.thisRepN,choices.thisTrialN,choices.thisN,choices.thisIndex,choices.ran,card_to_show,mouse_pick.x,mouse_pick.y,mouse_pick.leftButton,mouse_pick.midButton,mouse_pick.rightButton,mouse_pick.time,mouse_pick.clicked_name,key_instr_study.keys,key_instr_study.rt,next_study.keys,next_study.rt,study_loop.thisRepN,study_loop.thisTrialN,study_loop.thisN,study_loop.thisIndex,study_loop.ran,key_instr_test.keys,learn_loop.thisRepN,learn_loop.thisTrialN,learn_loop.thisN,learn_loop.thisIndex,learn_loop.ran,trials.thisRepN,trials.thisTrialN,trials.thisN,trials.thisIndex,trials.ran,key_instr_test.rt,duration,yes_or_no.x,yes_or_no.y,yes_or_no.leftButton,yes_or_no.midButton,yes_or_no.rightButton,yes_or_no.time,yes_or_no.clicked_name,test_response.stim,test_response.resp,test_response.eval,test_loop.thisRepN,test_loop.thisTrialN,test_loop.thisN,test_loop.thisIndex,test_loop.ran,instr_movie_key.keys,instr_movie_key.rt,return_to_exp.keys,return_to_exp.rt,instr_assess_key.keys,instr_assess_key.rt,assess_loop.thisRepN,assess_loop.thisTrialN,assess_loop.thisN,assess_loop.thisIndex,assess_loop.ran,ans_gen_loop.thisRepN,ans_gen_loop.thisTrialN,ans_gen_loop.thisN,ans_gen_loop.thisIndex,ans_gen_loop.ran,sen,ans,instr_transfer_key.keys,instr_transfer_key.rt,transfer_response.resp,transfer_response.eval,select_word.x,select_word.y,select_word.leftButton,select_word.midButton,select_word.rightButton,select_word.time,select_word.clicked_name,transfers.thisRepN,transfers.thisTrialN,transfers.thisN,transfers.thisIndex,transfers.ran,end_experiment.keys,end_experiment.rt
2,return,27.425685,return,13.347975,0,0,0,0,1,00001449182,2020-10-16_19h37.40.975,swahili,2020.2.4,Win32,60,,,,,,,,,,,,,,,,,,,,,,,,,,,,,,,,,,,,,,,,,,,,,,,,,,,,,,,,,,,,,,,,,,,,,,,,,,,,,,,,,,,,,,,,,,,,,,,,,,,,,,
,,,return,24.019155,1,0,1,0,1,00001449182,2020-10-16_19h37.40.975,swahili,2020.2.4,Win32,60,,,,,,,,,,,,,,,,,,,,,,,,,,,,,,,,,,,,,,,,,,,,,,,,,,,,,,,,,,,,,,,,,,,,,,,,,,,,,,,,,,,,,,,,,,,,,,,,,,,,,,
,,,,,,,,,,00001449182,2020-10-16_19h37.40.975,swahili,2020.2.4,Win32,60,return,16.78446,0,0,0,0,1,TAJIRI,MERCHANT,,,,,,,,,,,,,,,,,,,,,,,,,,,,,,,,,,,,,,,,,,,,,,,,,,,,,,,,,,,,,,,,,,,,,,,,,,,,,,,,,,,,,,,,,,,,,
,,,,,,,,,,00001449182,2020-10-16_19h37.40.975,swahili,2020.2.4,Win32,60,,,0,1,1,1,1,KASUKU,PARROT,,,,,,,,,,,,,,,,,,,,,,,,,,,,,,,,,,,,,,,,,,,,,,,,,,,,,,,,,,,,,,,,,,,,,,,,,,,,,,,,,,,,,,,,,,,,,
,,,,,,,,,,00001449182,2020-10-16_19h37.40.975,swahili,2020.2.4,Win32,60,,,0,2,2,2,1,FAHILI,BULL,,,,,,,,,,,,,,,,,,,,,,,,,,,,,,,,,,,,,,,,,,,,,,,,,,,,,,,,,,,,,,,,,,,,,,,,,,,,,,,,,,,,,,,,,,,,,
,,,,,,,,,,00001449182,2020-10-16_19h37.40.975,swahili,2020.2.4,Win32,60,,,0,3,3,3,1,SAHANI,PLATE,,,,,,,,,,,,,,,,,,,,,,,,,,,,,,,,,,,,,,,,,,,,,,,,,,,,,,,,,,,,,,,,,,,,,,,,,,,,,,,,,,,,,,,,,,,,,
,,,,,,,,,,00001449182,2020-10-16_19h37.40.975,swahili,2020.2.4,Win32,60,,,0,4,4,4,1,HAMIRA,YEAST,,,,,,,,,,,,,,,,,,,,,,,,,,,,,,,,,,,,,,,,,,,,,,,,,,,,,,,,,,,,,,,,,,,,,,,,,,,,,,,,,,,,,,,,,,,,,
,,,,,,,,,,00001449182,2020-10-16_19h37.40.975,swahili,2020.2.4,Win32,60,,,0,5,5,5,1,LAWAMA,BLAME,,,,,,,,,,,,,,,,,,,,,,,,,,,,,,,,,,,,,,,,,,,,,,,,,,,,,,,,,,,,,,,,,,,,,,,,,,,,,,,,,,,,,,,,,,,,,
,,,,,,,,,,00001449182,2020-10-16_19h37.40.975,swahili,2020.2.4,Win32,60,,,0,6,6,6,1,YAMINI,OATH,,,,,,,,,,,,,,,,,,,,,,,,,,,,,,,,,,,,,,,,,,,,,,,,,,,,,,,,,,,,,,,,,,,,,,,,,,,,,,,,,,,,,,,,,,,,,
,,,,,,,,,,00001449182,2020-10-16_19h37.40.975,swahili,2020.2.4,Win32,60,,,0,7,7,7,1,NAFAKA,CORN,,,,,,,,,,,,,,,,,,,,,,,,,,,,,,,,,,,,,,,,,,,,,,,,,,,,,,,,,,,,,,,,,,,,,,,,,,,,,,,,,,,,,,,,,,,,,
,,,,,,,,,,00001449182,2020-10-16_19h37.40.975,swahili,2020.2.4,Win32,60,,,0,8,8,8,1,UTENZI,POEM,,,,,,,,,,,,,,,,,,,,,,,,,,,,,,,,,,,,,,,,,,,,,,,,,,,,,,,,,,,,,,,,,,,,,,,,,,,,,,,,,,,,,,,,,,,,,
,,,,,,,,,,00001449182,2020-10-16_19h37.40.975,swahili,2020.2.4,Win32,60,,,0,9,9,9,1,MSHONI,TAILOR,,,,,,,,,,,,,,,,,,,,,,,,,,,,,,,,,,,,,,,,,,,,,,,,,,,,,,,,,,,,,,,,,,,,,,,,,,,,,,,,,,,,,,,,,,,,,
,,,,,,,,,,00001449182,2020-10-16_19h37.40.975,swahili,2020.2.4,Win32,60,,,0,10,10,10,1,JIBINI,CHEESE,,,,,,,,,,,,,,,,,,,,,,,,,,,,,,,,,,,,,,,,,,,,,,,,,,,,,,,,,,,,,,,,,,,,,,,,,,,,,,,,,,,,,,,,,,,,,
,,,,,,,,,,00001449182,2020-10-16_19h37.40.975,swahili,2020.2.4,Win32,60,,,0,11,11,11,1,ZABIBU,GRAPES,,,,,,,,,,,,,,,,,,,,,,,,,,,,,,,,,,,,,,,,,,,,,,,,,,,,,,,,,,,,,,,,,,,,,,,,,,,,,,,,,,,,,,,,,,,,,
,,,,,,,,,,00001449182,2020-10-16_19h37.40.975,swahili,2020.2.4,Win32,60,,,0,12,12,12,1,KABURI,GRAVE,,,,,,,,,,,,,,,,,,,,,,,,,,,,,,,,,,,,,,,,,,,,,,,,,,,,,,,,,,,,,,,,,,,,,,,,,,,,,,,,,,,,,,,,,,,,,
,,,,,,,,,,00001449182,2020-10-16_19h37.40.975,swahili,2020.2.4,Win32,60,,,0,13,13,13,1,SAMADI,MANURE,,,,,,,,,,,,,,,,,,,,,,,,,,,,,,,,,,,,,,,,,,,,,,,,,,,,,,,,,,,,,,,,,,,,,,,,,,,,,,,,,,,,,,,,,,,,,
,,,,,,,,,,00001449182,2020-10-16_19h37.40.975,swahili,2020.2.4,Win32,60,,,0,14,14,14,1,WAKILI,AGENT,,,,,,,,,,,,,,,,,,,,,,,,,,,,,,,,,,,,,,,,,,,,,,,,,,,,,,,,,,,,,,,,,,,,,,,,,,,,,,,,,,,,,,,,,,,,,
,,,,,,,,,,00001449182,2020-10-16_19h37.40.975,swahili,2020.2.4,Win32,60,,,0,15,15,15,1,RUSHWA,BRIBE,,,,,,,,,,,,,,,,,,,,,,,,,,,,,,,,,,,,,,,,,,,,,,,,,,,,,,,,,,,,,,,,,,,,,,,,,,,,,,,,,,,,,,,,,,,,,
,,,,,,,,,,00001449182,2020-10-16_19h37.40.975,swahili,2020.2.4,Win32,60,,,0,16,16,16,1,YATIMA,ORPHAN,,,,,,,,,,,,,,,,,,,,,,,,,,,,,,,,,,,,,,,,,,,,,,,,,,,,,,,,,,,,,,,,,,,,,,,,,,,,,,,,,,,,,,,,,,,,,
,,,,,,,,,,00001449182,2020-10-16_19h37.40.975,swahili,2020.2.4,Win32,60,,,0,17,17,17,1,TALAKA,DIVORCE,,,,,,,,,,,,,,,,,,,,,,,,,,,,,,,,,,,,,,,,,,,,,,,,,,,,,,,,,,,,,,,,,,,,,,,,,,,,,,,,,,,,,,,,,,,,,
,,,,,,,,,,00001449182,2020-10-16_19h37.40.975,swahili,2020.2.4,Win32,60,,,0,18,18,18,1,MASHUA,BOAT,,,,,,,,,,,,,,,,,,,,,,,,,,,,,,,,,,,,,,,,,,,,,,,,,,,,,,,,,,,,,,,,,,,,,,,,,,,,,,,,,,,,,,,,,,,,,
,,,,,,,,,,00001449182,2020-10-16_19h37.40.975,swahili,2020.2.4,Win32,60,,,0,19,19,19,1,DAFINA,TREASURE,,,,,,,,,,,,,,,,,,,,,,,,,,,,,,,,,,,,,,,,,,,,,,,,,,,,,,,,,,,,,,,,,,,,,,,,,,,,,,,,,,,,,,,,,,,,,
,,,,,,,,,,00001449182,2020-10-16_19h37.40.975,swahili,2020.2.4,Win32,60,,,,,,,,,,-0.31625183,0.0703125,1,0,0,8.12776,unsorted_card,0,0,0,0,1,,,,,,,,,,,,,,,,,,,,,,,,,,,,,,,,,,,,,,,,,,,,,,,,,,,,,,,,,,,,,,,,,,,,,,,,,,,,,,,,,
,,,,,,,,,,00001449182,2020-10-16_19h37.40.975,swahili,2020.2.4,Win32,60,,,,,,,,,,0.568081991,0.463541667,1,0,0,6.23847,study_pile,1,0,1,0,1,MERCHANT - TAJIRI,,,,,,,,,,,,,,,,,,,,,,,,,,,,,,,,,,,,,,,,,,,,,,,,,,,,,,,,,,,,,,,,,,,,,,,,,,,,,,,,
,,,,,,,,,,00001449182,2020-10-16_19h37.40.975,swahili,2020.2.4,Win32,60,,,,,,,,,,-0.327964861,-0.065104167,1,0,0,1.545515,unsorted_card,2,0,2,0,1,,,,,,,,,,,,,,,,,,,,,,,,,,,,,,,,,,,,,,,,,,,,,,,,,,,,,,,,,,,,,,,,,,,,,,,,,,,,,,,,,
,,,,,,,,,,00001449182,2020-10-16_19h37.40.975,swahili,2020.2.4,Win32,60,,,,,,,,,,0.547584187,0.450520833,1,0,0,2.07922,study_pile,3,0,3,0,1,PARROT - KASUKU,,,,,,,,,,,,,,,,,,,,,,,,,,,,,,,,,,,,,,,,,,,,,,,,,,,,,,,,,,,,,,,,,,,,,,,,,,,,,,,,
,,,,,,,,,,00001449182,2020-10-16_19h37.40.975,swahili,2020.2.4,Win32,60,,,,,,,,,,-0.282576867,-0.0390625,1,0,0,0.846225,unsorted_card,4,0,4,0,1,,,,,,,,,,,,,,,,,,,,,,,,,,,,,,,,,,,,,,,,,,,,,,,,,,,,,,,,,,,,,,,,,,,,,,,,,,,,,,,,,
,,,,,,,,,,00001449182,2020-10-16_19h37.40.975,swahili,2020.2.4,Win32,60,,,,,,,,,,0.471449488,0.557291667,1,0,0,2.61227,study_pile,5,0,5,0,1,BULL - FAHILI,,,,,,,,,,,,,,,,,,,,,,,,,,,,,,,,,,,,,,,,,,,,,,,,,,,,,,,,,,,,,,,,,,,,,,,,,,,,,,,,
,,,,,,,,,,00001449182,2020-10-16_19h37.40.975,swahili,2020.2.4,Win32,60,,,,,,,,,,-0.619326501,-0.114583333,1,0,0,1.76268,unsorted_card,6,0,6,0,1,,,,,,,,,,,,,,,,,,,,,,,,,,,,,,,,,,,,,,,,,,,,,,,,,,,,,,,,,,,,,,,,,,,,,,,,,,,,,,,,,
,,,,,,,,,,00001449182,2020-10-16_19h37.40.975,swahili,2020.2.4,Win32,60,,,,,,,,,,0.434846266,0.546875,1,0,0,1.64706,study_pile,7,0,7,0,1,PLATE - SAHANI,,,,,,,,,,,,,,,,,,,,,,,,,,,,,,,,,,,,,,,,,,,,,,,,,,,,,,,,,,,,,,,,,,,,,,,,,,,,,,,,
,,,,,,,,,,00001449182,2020-10-16_19h37.40.975,swahili,2020.2.4,Win32,60,,,,,,,,,,-0.35431918,-0.033854167,1,0,0,0.5471,unsorted_card,8,0,8,0,1,,,,,,,,,,,,,,,,,,,,,,,,,,,,,,,,,,,,,,,,,,,,,,,,,,,,,,,,,,,,,,,,,,,,,,,,,,,,,,,,,
,,,,,,,,,,00001449182,2020-10-16_19h37.40.975,swahili,2020.2.4,Win32,60,,,,,,,,,,0.407027818,0.486979167,1,0,0,1.663085,study_pile,9,0,9,0,1,YEAST - HAMIRA,,,,,,,,,,,,,,,,,,,,,,,,,,,,,,,,,,,,,,,,,,,,,,,,,,,,,,,,,,,,,,,,,,,,,,,,,,,,,,,,
,,,,,,,,,,00001449182,2020-10-16_19h37.40.975,swahili,2020.2.4,Win32,60,,,,,,,,,,-0.339677892,-0.026041667,1,0,0,0.94755,unsorted_card,10,0,10,0,1,,,,,,,,,,,,,,,,,,,,,,,,,,,,,,,,,,,,,,,,,,,,,,,,,,,,,,,,,,,,,,,,,,,,,,,,,,,,,,,,,
,,,,,,,,,,00001449182,2020-10-16_19h37.40.975,swahili,2020.2.4,Win32,60,,,,,,,,,,0.458272328,0.5390625,1,0,0,2.14634,study_pile,11,0,11,0,1,BLAME - LAWAMA,,,,,,,,,,,,,,,,,,,,,,,,,,,,,,,,,,,,,,,,,,,,,,,,,,,,,,,,,,,,,,,,,,,,,,,,,,,,,,,,
,,,,,,,,,,00001449182,2020-10-16_19h37.40.975,swahili,2020.2.4,Win32,60,,,,,,,,,,-0.456808199,-0.013020833,1,0,0,0.564195,unsorted_card,12,0,12,0,1,,,,,,,,,,,,,,,,,,,,,,,,,,,,,,,,,,,,,,,,,,,,,,,,,,,,,,,,,,,,,,,,,,,,,,,,,,,,,,,,,
,,,,,,,,,,00001449182,2020-10-16_19h37.40.975,swahili,2020.2.4,Win32,60,,,,,,,,,,0.414348463,0.552083333,1,0,0,3.378455,study_pile,13,0,13,0,1,OATH - YAMINI,,,,,,,,,,,,,,,,,,,,,,,,,,,,,,,,,,,,,,,,,,,,,,,,,,,,,,,,,,,,,,,,,,,,,,,,,,,,,,,,
,,,,,,,,,,00001449182,2020-10-16_19h37.40.975,swahili,2020.2.4,Win32,60,,,,,,,,,,-0.320644217,-0.0625,1,0,0,0.48033,unsorted_card,14,0,14,0,1,,,,,,,,,,,,,,,,,,,,,,,,,,,,,,,,,,,,,,,,,,,,,,,,,,,,,,,,,,,,,,,,,,,,,,,,,,,,,,,,,
,,,,,,,,,,00001449182,2020-10-16_19h37.40.975,swahili,2020.2.4,Win32,60,,,,,,,,,,0.483162518,0.46875,1,0,0,1.93035,study_pile,15,0,15,0,1,CORN - NAFAKA,,,,,,,,,,,,,,,,,,,,,,,,,,,,,,,,,,,,,,,,,,,,,,,,,,,,,,,,,,,,,,,,,,,,,,,,,,,,,,,,
,,,,,,,,,,00001449182,2020-10-16_19h37.40.975,swahili,2020.2.4,Win32,60,,,,,,,,,,-0.273792094,0.122395833,1,0,0,0.89648,unsorted_card,16,0,16,0,1,,,,,,,,,,,,,,,,,,,,,,,,,,,,,,,,,,,,,,,,,,,,,,,,,,,,,,,,,,,,,,,,,,,,,,,,,,,,,,,,,
,,,,,,,,,,00001449182,2020-10-16_19h37.40.975,swahili,2020.2.4,Win32,60,,,,,,,,,,0.530014641,0.557291667,1,0,0,1.846485,study_pile,17,0,17,0,1,POEM - UTENZI,,,,,,,,,,,,,,,,,,,,,,,,,,,,,,,,,,,,,,,,,,,,,,,,,,,,,,,,,,,,,,,,,,,,,,,,,,,,,,,,
,,,,,,,,,,00001449182,2020-10-16_19h37.40.975,swahili,2020.2.4,Win32,60,,,,,,,,,,-0.36749634,0.088541667,1,0,0,0.91413,unsorted_card,18,0,18,0,1,,,,,,,,,,,,,,,,,,,,,,,,,,,,,,,,,,,,,,,,,,,,,,,,,,,,,,,,,,,,,,,,,,,,,,,,,,,,,,,,,
,,,,,,,,,,00001449182,2020-10-16_19h37.40.975,swahili,2020.2.4,Win32,60,,,,,,,,,,0.510980966,0.497395833,1,0,0,2.279635,study_pile,19,0,19,0,1,TAILOR - MSHONI,,,,,,,,,,,,,,,,,,,,,,,,,,,,,,,,,,,,,,,,,,,,,,,,,,,,,,,,,,,,,,,,,,,,,,,,,,,,,,,,
,,,,,,,,,,00001449182,2020-10-16_19h37.40.975,swahili,2020.2.4,Win32,60,,,,,,,,,,-0.251830161,0.03125,1,0,0,0.764335,unsorted_card,20,0,20,0,1,,,,,,,,,,,,,,,,,,,,,,,,,,,,,,,,,,,,,,,,,,,,,,,,,,,,,,,,,,,,,,,,,,,,,,,,,,,,,,,,,
,,,,,,,,,,00001449182,2020-10-16_19h37.40.975,swahili,2020.2.4,Win32,60,,,,,,,,,,0.541727672,0.536458333,1,0,0,1.497105,study_pile,21,0,21,0,1,CHEESE - JIBINI,,,,,,,,,,,,,,,,,,,,,,,,,,,,,,,,,,,,,,,,,,,,,,,,,,,,,,,,,,,,,,,,,,,,,,,,,,,,,,,,
,,,,,,,,,,00001449182,2020-10-16_19h37.40.975,swahili,2020.2.4,Win32,60,,,,,,,,,,-0.238653001,0.065104167,1,0,0,0.897685,unsorted_card,22,0,22,0,1,,,,,,,,,,,,,,,,,,,,,,,,,,,,,,,,,,,,,,,,,,,,,,,,,,,,,,,,,,,,,,,,,,,,,,,,,,,,,,,,,
,,,,,,,,,,00001449182,2020-10-16_19h37.40.975,swahili,2020.2.4,Win32,60,,,,,,,,,,0.509516837,0.557291667,1,0,0,1.96275,study_pile,23,0,23,0,1,GRAPES - ZABIBU,,,,,,,,,,,,,,,,,,,,,,,,,,,,,,,,,,,,,,,,,,,,,,,,,,,,,,,,,,,,,,,,,,,,,,,,,,,,,,,,
,,,,,,,,,,00001449182,2020-10-16_19h37.40.975,swahili,2020.2.4,Win32,60,,,,,,,,,,-0.231332357,-0.018229167,1,0,0,0.83129,unsorted_card,24,0,24,0,1,,,,,,,,,,,,,,,,,,,,,,,,,,,,,,,,,,,,,,,,,,,,,,,,,,,,,,,,,,,,,,,,,,,,,,,,,,,,,,,,,
,,,,,,,,,,00001449182,2020-10-16_19h37.40.975,swahili,2020.2.4,Win32,60,,,,,,,,,,0.540263543,0.533854167,1,0,0,1.61327,study_pile,25,0,25,0,1,GRAVE - KABURI,,,,,,,,,,,,,,,,,,,,,,,,,,,,,,,,,,,,,,,,,,,,,,,,,,,,,,,,,,,,,,,,,,,,,,,,,,,,,,,,
,,,,,,,,,,00001449182,2020-10-16_19h37.40.975,swahili,2020.2.4,Win32,60,,,,,,,,,,-0.232796486,0.044270833,1,0,0,0.9311,unsorted_card,26,0,26,0,1,,,,,,,,,,,,,,,,,,,,,,,,,,,,,,,,,,,,,,,,,,,,,,,,,,,,,,,,,,,,,,,,,,,,,,,,,,,,,,,,,
,,,,,,,,,,00001449182,2020-10-16_19h37.40.975,swahili,2020.2.4,Win32,60,,,,,,,,,,0.512445095,0.609375,1,0,0,3.27916,study_pile,27,0,27,0,1,MANURE - SAMADI,,,,,,,,,,,,,,,,,,,,,,,,,,,,,,,,,,,,,,,,,,,,,,,,,,,,,,,,,,,,,,,,,,,,,,,,,,,,,,,,
,,,,,,,,,,00001449182,2020-10-16_19h37.40.975,swahili,2020.2.4,Win32,60,,,,,,,,,,-0.184480234,-0.065104167,1,0,0,0.829975,unsorted_card,28,0,28,0,1,,,,,,,,,,,,,,,,,,,,,,,,,,,,,,,,,,,,,,,,,,,,,,,,,,,,,,,,,,,,,,,,,,,,,,,,,,,,,,,,,
,,,,,,,,,,00001449182,2020-10-16_19h37.40.975,swahili,2020.2.4,Win32,60,,,,,,,,,,0.499267936,0.505208333,1,0,0,3.31226,study_pile,29,0,29,0,1,AGENT - WAKILI,,,,,,,,,,,,,,,,,,,,,,,,,,,,,,,,,,,,,,,,,,,,,,,,,,,,,,,,,,,,,,,,,,,,,,,,,,,,,,,,
,,,,,,,,,,00001449182,2020-10-16_19h37.40.975,swahili,2020.2.4,Win32,60,,,,,,,,,,-0.269399707,-0.109375,1,0,0,0.39679,unsorted_card,30,0,30,0,1,,,,,,,,,,,,,,,,,,,,,,,,,,,,,,,,,,,,,,,,,,,,,,,,,,,,,,,,,,,,,,,,,,,,,,,,,,,,,,,,,
,,,,,,,,,,00001449182,2020-10-16_19h37.40.975,swahili,2020.2.4,Win32,60,,,,,,,,,,0.475841874,0.591145833,1,0,0,1.580205,study_pile,31,0,31,0,1,BRIBE - RUSHWA,,,,,,,,,,,,,,,,,,,,,,,,,,,,,,,,,,,,,,,,,,,,,,,,,,,,,,,,,,,,,,,,,,,,,,,,,,,,,,,,
,,,,,,,,,,00001449182,2020-10-16_19h37.40.975,swahili,2020.2.4,Win32,60,,,,,,,,,,-0.281112738,-0.0234375,1,0,0,0.364565,unsorted_card,32,0,32,0,1,,,,,,,,,,,,,,,,,,,,,,,,,,,,,,,,,,,,,,,,,,,,,,,,,,,,,,,,,,,,,,,,,,,,,,,,,,,,,,,,,
,,,,,,,,,,00001449182,2020-10-16_19h37.40.975,swahili,2020.2.4,Win32,60,,,,,,,,,,0.490483163,0.588541667,1,0,0,1.4636,study_pile,33,0,33,0,1,ORPHAN - YATIMA,,,,,,,,,,,,,,,,,,,,,,,,,,,,,,,,,,,,,,,,,,,,,,,,,,,,,,,,,,,,,,,,,,,,,,,,,,,,,,,,
,,,,,,,,,,00001449182,2020-10-16_19h37.40.975,swahili,2020.2.4,Win32,60,,,,,,,,,,-0.355783309,-0.052083333,1,0,0,0.44827,unsorted_card,34,0,34,0,1,,,,,,,,,,,,,,,,,,,,,,,,,,,,,,,,,,,,,,,,,,,,,,,,,,,,,,,,,,,,,,,,,,,,,,,,,,,,,,,,,
,,,,,,,,,,00001449182,2020-10-16_19h37.40.975,swahili,2020.2.4,Win32,60,,,,,,,,,,0.45534407,0.557291667,1,0,0,1.497155,study_pile,35,0,35,0,1,DIVORCE - TALAKA,,,,,,,,,,,,,,,,,,,,,,,,,,,,,,,,,,,,,,,,,,,,,,,,,,,,,,,,,,,,,,,,,,,,,,,,,,,,,,,,
,,,,,,,,,,00001449182,2020-10-16_19h37.40.975,swahili,2020.2.4,Win32,60,,,,,,,,,,-0.216691069,-0.119791667,1,0,0,0.63123,unsorted_card,36,0,36,0,1,,,,,,,,,,,,,,,,,,,,,,,,,,,,,,,,,,,,,,,,,,,,,,,,,,,,,,,,,,,,,,,,,,,,,,,,,,,,,,,,,
,,,,,,,,,,00001449182,2020-10-16_19h37.40.975,swahili,2020.2.4,Win32,60,,,,,,,,,,0.623718887,0.3828125,1,0,0,1.66405,study_pile,37,0,37,0,1,BOAT - MASHUA,,,,,,,,,,,,,,,,,,,,,,,,,,,,,,,,,,,,,,,,,,,,,,,,,,,,,,,,,,,,,,,,,,,,,,,,,,,,,,,,
,,,,,,,,,,00001449182,2020-10-16_19h37.40.975,swahili,2020.2.4,Win32,60,,,,,,,,,,-0.308931186,-0.0859375,1,0,0,0.9292,unsorted_card,38,0,38,0,1,,,,,,,,,,,,,,,,,,,,,,,,,,,,,,,,,,,,,,,,,,,,,,,,,,,,,,,,,,,,,,,,,,,,,,,,,,,,,,,,,
,,,,,,,,,,00001449182,2020-10-16_19h37.40.975,swahili,2020.2.4,Win32,60,,,,,,,,,,0.480234261,0.549479167,1,0,0,1.52956,study_pile,39,0,39,0,1,TREASURE - DAFINA,,,,,,,,,,,,,,,,,,,,,,,,,,,,,,,,,,,,,,,,,,,,,,,,,,,,,,,,,,,,,,,,,,,,,,,,,,,,,,,,
,,,,,,,,,,00001449182,2020-10-16_19h37.40.975,swahili,2020.2.4,Win32,60,,,,,,,,,,,,,,,,,,,,,,CORN - NAFAKA,,,,,,,,return,12.978045,return,9.4313,0,0,0,0,1,,,,,,,,,,,,,,,,,,,,,,,,,,,,,,,,,,,,,,,,,,,,,,,,,,,,,,,,,,,,,,,,
,,,,,,,,,,00001449182,2020-10-16_19h37.40.975,swahili,2020.2.4,Win32,60,,,,,,,,,,,,,,,,,,,,,,MERCHANT - TAJIRI,,,,,,,,,,return,3.733015,1,0,1,0,1,,,,,,,,,,,,,,,,,,,,,,,,,,,,,,,,,,,,,,,,,,,,,,,,,,,,,,,,,,,,,,,,
,,,,,,,,,,00001449182,2020-10-16_19h37.40.975,swahili,2020.2.4,Win32,60,,,,,,,,,,,,,,,,,,,,,,CHEESE - JIBINI,,,,,,,,,,return,1.60558,2,0,2,0,1,,,,,,,,,,,,,,,,,,,,,,,,,,,,,,,,,,,,,,,,,,,,,,,,,,,,,,,,,,,,,,,,
,,,,,,,,,,00001449182,2020-10-16_19h37.40.975,swahili,2020.2.4,Win32,60,,,,,,,,,,,,,,,,,,,,,,GRAPES - ZABIBU,,,,,,,,,,return,1.15168,3,0,3,0,1,,,,,,,,,,,,,,,,,,,,,,,,,,,,,,,,,,,,,,,,,,,,,,,,,,,,,,,,,,,,,,,,
,,,,,,,,,,00001449182,2020-10-16_19h37.40.975,swahili,2020.2.4,Win32,60,,,,,,,,,,,,,,,,,,,,,,POEM - UTENZI,,,,,,,,,,return,1.26744,4,0,4,0,1,,,,,,,,,,,,,,,,,,,,,,,,,,,,,,,,,,,,,,,,,,,,,,,,,,,,,,,,,,,,,,,,
,,,,,,,,,,00001449182,2020-10-16_19h37.40.975,swahili,2020.2.4,Win32,60,,,,,,,,,,,,,,,,,,,,,,MANURE - SAMADI,,,,,,,,,,return,2.479225,5,0,5,0,1,,,,,,,,,,,,,,,,,,,,,,,,,,,,,,,,,,,,,,,,,,,,,,,,,,,,,,,,,,,,,,,,
,,,,,,,,,,00001449182,2020-10-16_19h37.40.975,swahili,2020.2.4,Win32,60,,,,,,,,,,,,,,,,,,,,,,YEAST - HAMIRA,,,,,,,,,,return,2.149345,6,0,6,0,1,,,,,,,,,,,,,,,,,,,,,,,,,,,,,,,,,,,,,,,,,,,,,,,,,,,,,,,,,,,,,,,,
,,,,,,,,,,00001449182,2020-10-16_19h37.40.975,swahili,2020.2.4,Win32,60,,,,,,,,,,,,,,,,,,,,,,BRIBE - RUSHWA,,,,,,,,,,return,1.71991,7,0,7,0,1,,,,,,,,,,,,,,,,,,,,,,,,,,,,,,,,,,,,,,,,,,,,,,,,,,,,,,,,,,,,,,,,
,,,,,,,,,,00001449182,2020-10-16_19h37.40.975,swahili,2020.2.4,Win32,60,,,,,,,,,,,,,,,,,,,,,,DIVORCE - TALAKA,,,,,,,,,,return,1.28647,8,0,8,0,1,,,,,,,,,,,,,,,,,,,,,,,,,,,,,,,,,,,,,,,,,,,,,,,,,,,,,,,,,,,,,,,,
,,,,,,,,,,00001449182,2020-10-16_19h37.40.975,swahili,2020.2.4,Win32,60,,,,,,,,,,,,,,,,,,,,,,ORPHAN - YATIMA,,,,,,,,,,return,1.22073,9,0,9,0,1,,,,,,,,,,,,,,,,,,,,,,,,,,,,,,,,,,,,,,,,,,,,,,,,,,,,,,,,,,,,,,,,
,,,,,,,,,,00001449182,2020-10-16_19h37.40.975,swahili,2020.2.4,Win32,60,,,,,,,,,,,,,,,,,,,,,,AGENT - WAKILI,,,,,,,,,,return,1.203585,10,0,10,0,1,,,,,,,,,,,,,,,,,,,,,,,,,,,,,,,,,,,,,,,,,,,,,,,,,,,,,,,,,,,,,,,,
,,,,,,,,,,00001449182,2020-10-16_19h37.40.975,swahili,2020.2.4,Win32,60,,,,,,,,,,,,,,,,,,,,,,TREASURE - DAFINA,,,,,,,,,,return,1.15164,11,0,11,0,1,,,,,,,,,,,,,,,,,,,,,,,,,,,,,,,,,,,,,,,,,,,,,,,,,,,,,,,,,,,,,,,,
,,,,,,,,,,00001449182,2020-10-16_19h37.40.975,swahili,2020.2.4,Win32,60,,,,,,,,,,,,,,,,,,,,,,PLATE - SAHANI,,,,,,,,,,return,1.41694,12,0,12,0,1,,,,,,,,,,,,,,,,,,,,,,,,,,,,,,,,,,,,,,,,,,,,,,,,,,,,,,,,,,,,,,,,
,,,,,,,,,,00001449182,2020-10-16_19h37.40.975,swahili,2020.2.4,Win32,60,,,,,,,,,,,,,,,,,,,,,,TAILOR - MSHONI,,,,,,,,,,return,1.32182,13,0,13,0,1,,,,,,,,,,,,,,,,,,,,,,,,,,,,,,,,,,,,,,,,,,,,,,,,,,,,,,,,,,,,,,,,
,,,,,,,,,,00001449182,2020-10-16_19h37.40.975,swahili,2020.2.4,Win32,60,,,,,,,,,,,,,,,,,,,,,,GRAVE - KABURI,,,,,,,,,,return,2.033115,14,0,14,0,1,,,,,,,,,,,,,,,,,,,,,,,,,,,,,,,,,,,,,,,,,,,,,,,,,,,,,,,,,,,,,,,,
,,,,,,,,,,00001449182,2020-10-16_19h37.40.975,swahili,2020.2.4,Win32,60,,,,,,,,,,,,,,,,,,,,,,PARROT - KASUKU,,,,,,,,,,return,1.12247,15,0,15,0,1,,,,,,,,,,,,,,,,,,,,,,,,,,,,,,,,,,,,,,,,,,,,,,,,,,,,,,,,,,,,,,,,
,,,,,,,,,,00001449182,2020-10-16_19h37.40.975,swahili,2020.2.4,Win32,60,,,,,,,,,,,,,,,,,,,,,,BULL - FAHILI,,,,,,,,,,return,1.119515,16,0,16,0,1,,,,,,,,,,,,,,,,,,,,,,,,,,,,,,,,,,,,,,,,,,,,,,,,,,,,,,,,,,,,,,,,
,,,,,,,,,,00001449182,2020-10-16_19h37.40.975,swahili,2020.2.4,Win32,60,,,,,,,,,,,,,,,,,,,,,,BLAME - LAWAMA,,,,,,,,,,return,1.333505,17,0,17,0,1,,,,,,,,,,,,,,,,,,,,,,,,,,,,,,,,,,,,,,,,,,,,,,,,,,,,,,,,,,,,,,,,
,,,,,,,,,,00001449182,2020-10-16_19h37.40.975,swahili,2020.2.4,Win32,60,,,,,,,,,,,,,,,,,,,,,,BOAT - MASHUA,,,,,,,,,,return,1.10148,18,0,18,0,1,,,,,,,,,,,,,,,,,,,,,,,,,,,,,,,,,,,,,,,,,,,,,,,,,,,,,,,,,,,,,,,,
,,,,,,,,,,00001449182,2020-10-16_19h37.40.975,swahili,2020.2.4,Win32,60,,,,,,,,,,,,,,,,,,,,,,OATH - YAMINI,,,,,,,,,,return,1.285465,19,0,19,0,1,,,,,,,,,,,,,,,,,,,,,,,,,,,,,,,,,,,,,,,,,,,,,,,,,,,,,,,,,,,,,,,,
,,,,,,,,,,00001449182,2020-10-16_19h37.40.975,swahili,2020.2.4,Win32,60,,,,,,,,,,,,,,,,,,,,,,,,,,,,,,,,,,,,,,,,0,0,0,0,1,,,,,,,,,,,,,,,,,,,,,,,,,,,,,,,,,,,,,,,,,,,,,,,,,,,,,,,,,,
,,,,,,,,,,00001449182,2020-10-16_19h37.40.975,swahili,2020.2.4,Win32,60,,,,,,,,,,,,,,,,,,,,,,,,,,,,,,,,,,,,,,,,1,0,1,0,1,,,,,,,,,,,,,,,,,,,,,,,,,,,,,,,,,,,,,,,,,,,,,,,,,,,,,,,,,,
,,,,,,,,,,00001449182,2020-10-16_19h37.40.975,swahili,2020.2.4,Win32,60,,,,,,,,,,,,,,,,,,,,,,,,,,,,,,,,,,,,,,,,,,,,,0,0,0,0,1,,,,,,,,,,,,,,,,,,,,,,,,,,,,,,,,,,,,,,,,,,,,,,,,,,,,,
,,,,,,,,,,00001449182,2020-10-16_19h37.40.975,swahili,2020.2.4,Win32,60,,,,,,,,,,-0.448023426,-0.317708333,1,0,0,2.61667,unsorted_card,0,0,0,0,1,,,,,,,,,,,,,,,,,,,,,,,,,,,,,,,,,,,,,,,,,,,,,,,,,,,,,,,,,,,,,,,,,,,,,,,,,,,,,,,,,
,,,,,,,,,,00001449182,2020-10-16_19h37.40.975,swahili,2020.2.4,Win32,60,,,,,,,,,,0.521229868,-0.026041667,1,0,0,1.025375,test_pile,1,0,1,0,1,MERCHANT - TAJIRI,,,,,,,,,,,,,,,,,,,,,,,,,,,,,,,,,,,,,,,,,,,,,,,,,,,,,,,,,,,,,,,,,,,,,,,,,,,,,,,,
,,,,,,,,,,00001449182,2020-10-16_19h37.40.975,swahili,2020.2.4,Win32,60,,,,,,,,,,-0.165446559,-0.018229167,1,0,0,1.162565,unsorted_card,2,0,2,0,1,,,,,,,,,,,,,,,,,,,,,,,,,,,,,,,,,,,,,,,,,,,,,,,,,,,,,,,,,,,,,,,,,,,,,,,,,,,,,,,,,
,,,,,,,,,,00001449182,2020-10-16_19h37.40.975,swahili,2020.2.4,Win32,60,,,,,,,,,,0.449487555,0,1,0,0,0.73056,test_pile,3,0,3,0,1,PARROT - KASUKU,,,,,,,,,,,,,,,,,,,,,,,,,,,,,,,,,,,,,,,,,,,,,,,,,,,,,,,,,,,,,,,,,,,,,,,,,,,,,,,,
,,,,,,,,,,00001449182,2020-10-16_19h37.40.975,swahili,2020.2.4,Win32,60,,,,,,,,,,-0.336749634,0.0625,1,0,0,0.663,unsorted_card,4,0,4,0,1,,,,,,,,,,,,,,,,,,,,,,,,,,,,,,,,,,,,,,,,,,,,,,,,,,,,,,,,,,,,,,,,,,,,,,,,,,,,,,,,,
,,,,,,,,,,00001449182,2020-10-16_19h37.40.975,swahili,2020.2.4,Win32,60,,,,,,,,,,0.508052709,0.088541667,1,0,0,0.814075,test_pile,5,0,5,0,1,BULL - FAHILI,,,,,,,,,,,,,,,,,,,,,,,,,,,,,,,,,,,,,,,,,,,,,,,,,,,,,,,,,,,,,,,,,,,,,,,,,,,,,,,,
,,,,,,,,,,00001449182,2020-10-16_19h37.40.975,swahili,2020.2.4,Win32,60,,,,,,,,,,-0.317715959,-0.046875,1,0,0,0.779815,unsorted_card,6,0,6,0,1,,,,,,,,,,,,,,,,,,,,,,,,,,,,,,,,,,,,,,,,,,,,,,,,,,,,,,,,,,,,,,,,,,,,,,,,,,,,,,,,,
,,,,,,,,,,00001449182,2020-10-16_19h37.40.975,swahili,2020.2.4,Win32,60,,,,,,,,,,0.415812592,0.005208333,1,0,0,0.781035,test_pile,7,0,7,0,1,PLATE - SAHANI,,,,,,,,,,,,,,,,,,,,,,,,,,,,,,,,,,,,,,,,,,,,,,,,,,,,,,,,,,,,,,,,,,,,,,,,,,,,,,,,
,,,,,,,,,,00001449182,2020-10-16_19h37.40.975,swahili,2020.2.4,Win32,60,,,,,,,,,,-0.178623719,0.065104167,1,0,0,0.712635,unsorted_card,8,0,8,0,1,,,,,,,,,,,,,,,,,,,,,,,,,,,,,,,,,,,,,,,,,,,,,,,,,,,,,,,,,,,,,,,,,,,,,,,,,,,,,,,,,
,,,,,,,,,,00001449182,2020-10-16_19h37.40.975,swahili,2020.2.4,Win32,60,,,,,,,,,,0.480234261,-0.044270833,1,0,0,0.830875,test_pile,9,0,9,0,1,YEAST - HAMIRA,,,,,,,,,,,,,,,,,,,,,,,,,,,,,,,,,,,,,,,,,,,,,,,,,,,,,,,,,,,,,,,,,,,,,,,,,,,,,,,,
,,,,,,,,,,00001449182,2020-10-16_19h37.40.975,swahili,2020.2.4,Win32,60,,,,,,,,,,-0.241581259,-0.041666667,1,0,0,0.84591,unsorted_card,10,0,10,0,1,,,,,,,,,,,,,,,,,,,,,,,,,,,,,,,,,,,,,,,,,,,,,,,,,,,,,,,,,,,,,,,,,,,,,,,,,,,,,,,,,
,,,,,,,,,,00001449182,2020-10-16_19h37.40.975,swahili,2020.2.4,Win32,60,,,,,,,,,,0.513909224,-0.0234375,1,0,0,0.747195,test_pile,11,0,11,0,1,BLAME - LAWAMA,,,,,,,,,,,,,,,,,,,,,,,,,,,,,,,,,,,,,,,,,,,,,,,,,,,,,,,,,,,,,,,,,,,,,,,,,,,,,,,,
,,,,,,,,,,00001449182,2020-10-16_19h37.40.975,swahili,2020.2.4,Win32,60,,,,,,,,,,-0.245973646,-0.049479167,1,0,0,0.779065,unsorted_card,12,0,12,0,1,,,,,,,,,,,,,,,,,,,,,,,,,,,,,,,,,,,,,,,,,,,,,,,,,,,,,,,,,,,,,,,,,,,,,,,,,,,,,,,,,
,,,,,,,,,,00001449182,2020-10-16_19h37.40.975,swahili,2020.2.4,Win32,60,,,,,,,,,,0.550512445,-0.049479167,1,0,0,0.763725,test_pile,13,0,13,0,1,OATH - YAMINI,,,,,,,,,,,,,,,,,,,,,,,,,,,,,,,,,,,,,,,,,,,,,,,,,,,,,,,,,,,,,,,,,,,,,,,,,,,,,,,,
,,,,,,,,,,00001449182,2020-10-16_19h37.40.975,swahili,2020.2.4,Win32,60,,,,,,,,,,0.661786237,0.0390625,1,0,0,1.22936,test_pile,14,0,14,0,1,,,,,,,,,,,,,,,,,,,,,,,,,,,,,,,,,,,,,,,,,,,,,,,,,,,,,,,,,,,,,,,,,,,,,,,,,,,,,,,,,
,,,,,,,,,,00001449182,2020-10-16_19h37.40.975,swahili,2020.2.4,Win32,60,,,,,,,,,,-0.286969253,0.002604167,1,0,0,0.86378,unsorted_card,15,0,15,0,1,,,,,,,,,,,,,,,,,,,,,,,,,,,,,,,,,,,,,,,,,,,,,,,,,,,,,,,,,,,,,,,,,,,,,,,,,,,,,,,,,
,,,,,,,,,,00001449182,2020-10-16_19h37.40.975,swahili,2020.2.4,Win32,60,,,,,,,,,,0.366032211,-0.0390625,1,0,0,0.83015,test_pile,16,0,16,0,1,CORN - NAFAKA,,,,,,,,,,,,,,,,,,,,,,,,,,,,,,,,,,,,,,,,,,,,,,,,,,,,,,,,,,,,,,,,,,,,,,,,,,,,,,,,
,,,,,,,,,,00001449182,2020-10-16_19h37.40.975,swahili,2020.2.4,Win32,60,,,,,,,,,,-0.250366032,0.028645833,1,0,0,0.613215,unsorted_card,17,0,17,0,1,,,,,,,,,,,,,,,,,,,,,,,,,,,,,,,,,,,,,,,,,,,,,,,,,,,,,,,,,,,,,,,,,,,,,,,,,,,,,,,,,
,,,,,,,,,,00001449182,2020-10-16_19h37.40.975,swahili,2020.2.4,Win32,60,,,,,,,,,,0.452415813,-0.091145833,1,0,0,0.68021,test_pile,18,0,18,0,1,POEM - UTENZI,,,,,,,,,,,,,,,,,,,,,,,,,,,,,,,,,,,,,,,,,,,,,,,,,,,,,,,,,,,,,,,,,,,,,,,,,,,,,,,,
,,,,,,,,,,00001449182,2020-10-16_19h37.40.975,swahili,2020.2.4,Win32,60,,,,,,,,,,-0.234260615,-0.091145833,1,0,0,0.89666,unsorted_card,19,0,19,0,1,,,,,,,,,,,,,,,,,,,,,,,,,,,,,,,,,,,,,,,,,,,,,,,,,,,,,,,,,,,,,,,,,,,,,,,,,,,,,,,,,
,,,,,,,,,,00001449182,2020-10-16_19h37.40.975,swahili,2020.2.4,Win32,60,,,,,,,,,,0.448023426,-0.1484375,1,0,0,0.74717,test_pile,20,0,20,0,1,TAILOR - MSHONI,,,,,,,,,,,,,,,,,,,,,,,,,,,,,,,,,,,,,,,,,,,,,,,,,,,,,,,,,,,,,,,,,,,,,,,,,,,,,,,,
,,,,,,,,,,00001449182,2020-10-16_19h37.40.975,swahili,2020.2.4,Win32,60,,,,,,,,,,-0.140556369,-0.106770833,1,0,0,0.662705,unsorted_card,21,0,21,0,1,,,,,,,,,,,,,,,,,,,,,,,,,,,,,,,,,,,,,,,,,,,,,,,,,,,,,,,,,,,,,,,,,,,,,,,,,,,,,,,,,
,,,,,,,,,,00001449182,2020-10-16_19h37.40.975,swahili,2020.2.4,Win32,60,,,,,,,,,,0.472913616,-0.09375,1,0,0,0.69726,test_pile,22,0,22,0,1,CHEESE - JIBINI,,,,,,,,,,,,,,,,,,,,,,,,,,,,,,,,,,,,,,,,,,,,,,,,,,,,,,,,,,,,,,,,,,,,,,,,,,,,,,,,
,,,,,,,,,,00001449182,2020-10-16_19h37.40.975,swahili,2020.2.4,Win32,60,,,,,,,,,,-0.117130307,-0.0625,1,0,0,0.646975,unsorted_card,23,0,23,0,1,,,,,,,,,,,,,,,,,,,,,,,,,,,,,,,,,,,,,,,,,,,,,,,,,,,,,,,,,,,,,,,,,,,,,,,,,,,,,,,,,
,,,,,,,,,,00001449182,2020-10-16_19h37.40.975,swahili,2020.2.4,Win32,60,,,,,,,,,,0.541727672,-0.057291667,1,0,0,0.71435,test_pile,24,0,24,0,1,GRAPES - ZABIBU,,,,,,,,,,,,,,,,,,,,,,,,,,,,,,,,,,,,,,,,,,,,,,,,,,,,,,,,,,,,,,,,,,,,,,,,,,,,,,,,
,,,,,,,,,,00001449182,2020-10-16_19h37.40.975,swahili,2020.2.4,Win32,60,,,,,,,,,,-0.31625183,0.041666667,1,0,0,0.595805,unsorted_card,25,0,25,0,1,,,,,,,,,,,,,,,,,,,,,,,,,,,,,,,,,,,,,,,,,,,,,,,,,,,,,,,,,,,,,,,,,,,,,,,,,,,,,,,,,
,,,,,,,,,,00001449182,2020-10-16_19h37.40.975,swahili,2020.2.4,Win32,60,,,,,,,,,,0.512445095,0.0078125,1,0,0,0.796305,test_pile,26,0,26,0,1,GRAVE - KABURI,,,,,,,,,,,,,,,,,,,,,,,,,,,,,,,,,,,,,,,,,,,,,,,,,,,,,,,,,,,,,,,,,,,,,,,,,,,,,,,,
,,,,,,,,,,00001449182,2020-10-16_19h37.40.975,swahili,2020.2.4,Win32,60,,,,,,,,,,-0.458272328,-0.0546875,1,0,0,0.58054,unsorted_card,27,0,27,0,1,,,,,,,,,,,,,,,,,,,,,,,,,,,,,,,,,,,,,,,,,,,,,,,,,,,,,,,,,,,,,,,,,,,,,,,,,,,,,,,,,
,,,,,,,,,,00001449182,2020-10-16_19h37.40.975,swahili,2020.2.4,Win32,60,,,,,,,,,,0.41727672,-0.036458333,1,0,0,0.79331,test_pile,28,0,28,0,1,MANURE - SAMADI,,,,,,,,,,,,,,,,,,,,,,,,,,,,,,,,,,,,,,,,,,,,,,,,,,,,,,,,,,,,,,,,,,,,,,,,,,,,,,,,
,,,,,,,,,,00001449182,2020-10-16_19h37.40.975,swahili,2020.2.4,Win32,60,,,,,,,,,,-0.147877013,0,1,0,0,0.66334,unsorted_card,29,0,29,0,1,,,,,,,,,,,,,,,,,,,,,,,,,,,,,,,,,,,,,,,,,,,,,,,,,,,,,,,,,,,,,,,,,,,,,,,,,,,,,,,,,
,,,,,,,,,,00001449182,2020-10-16_19h37.40.975,swahili,2020.2.4,Win32,60,,,,,,,,,,0.445095168,-0.072916667,1,0,0,0.697465,test_pile,30,0,30,0,1,AGENT - WAKILI,,,,,,,,,,,,,,,,,,,,,,,,,,,,,,,,,,,,,,,,,,,,,,,,,,,,,,,,,,,,,,,,,,,,,,,,,,,,,,,,
,,,,,,,,,,00001449182,2020-10-16_19h37.40.975,swahili,2020.2.4,Win32,60,,,,,,,,,,-0.125915081,-0.1171875,1,0,0,0.58017,unsorted_card,31,0,31,0,1,,,,,,,,,,,,,,,,,,,,,,,,,,,,,,,,,,,,,,,,,,,,,,,,,,,,,,,,,,,,,,,,,,,,,,,,,,,,,,,,,
,,,,,,,,,,00001449182,2020-10-16_19h37.40.975,swahili,2020.2.4,Win32,60,,,,,,,,,,0.513909224,-0.088541667,1,0,0,0.647575,test_pile,32,0,32,0,1,BRIBE - RUSHWA,,,,,,,,,,,,,,,,,,,,,,,,,,,,,,,,,,,,,,,,,,,,,,,,,,,,,,,,,,,,,,,,,,,,,,,,,,,,,,,,
,,,,,,,,,,00001449182,2020-10-16_19h37.40.975,swahili,2020.2.4,Win32,60,,,,,,,,,,-0.178623719,-0.020833333,1,0,0,0.595925,unsorted_card,33,0,33,0,1,,,,,,,,,,,,,,,,,,,,,,,,,,,,,,,,,,,,,,,,,,,,,,,,,,,,,,,,,,,,,,,,,,,,,,,,,,,,,,,,,
,,,,,,,,,,00001449182,2020-10-16_19h37.40.975,swahili,2020.2.4,Win32,60,,,,,,,,,,0.50658858,0.044270833,1,0,0,0.58122,test_pile,34,0,34,0,1,ORPHAN - YATIMA,,,,,,,,,,,,,,,,,,,,,,,,,,,,,,,,,,,,,,,,,,,,,,,,,,,,,,,,,,,,,,,,,,,,,,,,,,,,,,,,
,,,,,,,,,,00001449182,2020-10-16_19h37.40.975,swahili,2020.2.4,Win32,60,,,,,,,,,,-0.357247438,0.026041667,1,0,0,0.5629,unsorted_card,35,0,35,0,1,,,,,,,,,,,,,,,,,,,,,,,,,,,,,,,,,,,,,,,,,,,,,,,,,,,,,,,,,,,,,,,,,,,,,,,,,,,,,,,,,
,,,,,,,,,,00001449182,2020-10-16_19h37.40.975,swahili,2020.2.4,Win32,60,,,,,,,,,,0.426061493,0.002604167,1,0,0,0.74705,test_pile,36,0,36,0,1,DIVORCE - TALAKA,,,,,,,,,,,,,,,,,,,,,,,,,,,,,,,,,,,,,,,,,,,,,,,,,,,,,,,,,,,,,,,,,,,,,,,,,,,,,,,,
,,,,,,,,,,00001449182,2020-10-16_19h37.40.975,swahili,2020.2.4,Win32,60,,,,,,,,,,-0.303074671,0.0625,1,0,0,0.51359,unsorted_card,37,0,37,0,1,,,,,,,,,,,,,,,,,,,,,,,,,,,,,,,,,,,,,,,,,,,,,,,,,,,,,,,,,,,,,,,,,,,,,,,,,,,,,,,,,
,,,,,,,,,,00001449182,2020-10-16_19h37.40.975,swahili,2020.2.4,Win32,60,,,,,,,,,,0.472913616,0.096354167,1,0,0,0.663415,test_pile,38,0,38,0,1,BOAT - MASHUA,,,,,,,,,,,,,,,,,,,,,,,,,,,,,,,,,,,,,,,,,,,,,,,,,,,,,,,,,,,,,,,,,,,,,,,,,,,,,,,,
,,,,,,,,,,00001449182,2020-10-16_19h37.40.975,swahili,2020.2.4,Win32,60,,,,,,,,,,-0.263543192,0.013020833,1,0,0,0.545965,unsorted_card,39,0,39,0,1,,,,,,,,,,,,,,,,,,,,,,,,,,,,,,,,,,,,,,,,,,,,,,,,,,,,,,,,,,,,,,,,,,,,,,,,,,,,,,,,,
,,,,,,,,,,00001449182,2020-10-16_19h37.40.975,swahili,2020.2.4,Win32,60,,,,,,,,,,0.450951684,-0.0546875,1,0,0,0.84717,test_pile,40,0,40,0,1,TREASURE - DAFINA,,,,,,,,,,,,,,,,,,,,,,,,,,,,,,,,,,,,,,,,,,,,,,,,,,,,,,,,,,,,,,,,,,,,,,,,,,,,,,,,
,,,,,,,,,,00001449182,2020-10-16_19h37.40.975,swahili,2020.2.4,Win32,60,,,,,,,,,,,,,,,,,,,,,,,,,,,,,,,,,,0,0,0,0,1,,,,,,,,,,,,,,,,,,,,,,,,,,,,,,,,,,,,,,,,,,,,,,,,,,,,,,,,,,,,,,,,
,,,,,,,,,,00001449182,2020-10-16_19h37.40.975,swahili,2020.2.4,Win32,60,,,,,,,,,,,,,,,,,,,,,,,,,,,,,,,,,,,,,,,return,,,,,,,,,,,6.38579,22.775445,0.339677892,-0.015625,1,0,0,1.84622,yes,BOAT,MASHUA,incorrect,0,0,0,0,1,,,,,,,,,,,,,,,,,,,,,,,,,,,,,,,,,,,,
,,,,,,,,,,00001449182,2020-10-16_19h37.40.975,swahili,2020.2.4,Win32,60,,,,,,,,,,,,,,,,,,,,,,,,,,,,,,,,,,,,,,,,,,,,,,,,,,,11.218805,0.411420205,-0.028645833,1,0,0,1.04976,yes,OATH,YAMUA,incorrect,1,0,1,0,1,,,,,,,,,,,,,,,,,,,,,,,,,,,,,,,,,,,,
,,,,,,,,,,00001449182,2020-10-16_19h37.40.975,swahili,2020.2.4,Win32,60,,,,,,,,,,,,,,,,,,,,,,,,,,,,,,,,,,,,,,,,,,,,,,,,,,,12.93344,0.537335286,-0.002604167,1,0,0,1.315865,yes,YEAST,IDK,incorrect,2,0,2,0,1,,,,,,,,,,,,,,,,,,,,,,,,,,,,,,,,,,,,
,,,,,,,,,,00001449182,2020-10-16_19h37.40.975,swahili,2020.2.4,Win32,60,,,,,,,,,,,,,,,,,,,,,,,,,,,,,,,,,,,,,,,,,,,,,,,,,,,15.831345,0.696925329,0.111979167,1,0,0,1.482045,yes,TAILOR,IDK,incorrect,3,0,3,0,1,,,,,,,,,,,,,,,,,,,,,,,,,,,,,,,,,,,,
,,,,,,,,,,00001449182,2020-10-16_19h37.40.975,swahili,2020.2.4,Win32,60,,,,,,,,,,,,,,,,,,,,,,,,,,,,,,,,,,,,,,,,,,,,,,,,,,,7.039345,0.489019034,0.041666667,1,0,0,1.049265,yes,ORPHAN,UZUKA,incorrect,4,0,4,0,1,,,,,,,,,,,,,,,,,,,,,,,,,,,,,,,,,,,,
,,,,,,,,,,00001449182,2020-10-16_19h37.40.975,swahili,2020.2.4,Win32,60,,,,,,,,,,,,,,,,,,,,,,,,,,,,,,,,,,,,,,,,,,,,,,,,,,,2.82713,0.773060029,0.083333333,1,0,0,1.282405,yes,AGENT,AGENTE,incorrect,5,0,5,0,1,,,,,,,,,,,,,,,,,,,,,,,,,,,,,,,,,,,,
,,,,,,,,,,00001449182,2020-10-16_19h37.40.975,swahili,2020.2.4,Win32,60,,,,,,,,,,,,,,,,,,,,,,,,,,,,,,,,,,,,,,,,,,,,,,,,,,,8.92145,-0.565153734,-0.083333333,1,0,0,2.230745,no,BRIBE,IDK,incorrect,6,0,6,0,1,,,,,,,,,,,,,,,,,,,,,,,,,,,,,,,,,,,,
,,,,,,,,,,00001449182,2020-10-16_19h37.40.975,swahili,2020.2.4,Win32,60,,,,,,,,,,,,,,,,,,,,,,,,,,,,,,,,,,,,,,,,,,,,,,,,,,,1.79496,-0.619326501,-0.091145833,1,0,0,0.699045,no,CORN,IDK,incorrect,7,0,7,0,1,,,,,,,,,,,,,,,,,,,,,,,,,,,,,,,,,,,,
,,,,,,,,,,00001449182,2020-10-16_19h37.40.975,swahili,2020.2.4,Win32,60,,,,,,,,,,,,,,,,,,,,,,,,,,,,,,,,,,,,,,,,,,,,,,,,,,,1.24706,-0.616398243,-0.03125,1,0,0,1.36507,no,BLAME,IDK,incorrect,8,0,8,0,1,,,,,,,,,,,,,,,,,,,,,,,,,,,,,,,,,,,,
,,,,,,,,,,00001449182,2020-10-16_19h37.40.975,swahili,2020.2.4,Win32,60,,,,,,,,,,,,,,,,,,,,,,,,,,,,,,,,,,,,,,,,,,,,,,,,,,,1.64647,-0.591508053,-0.005208333,1,0,0,0.63257,no,GRAVE,IDK,incorrect,9,0,9,0,1,,,,,,,,,,,,,,,,,,,,,,,,,,,,,,,,,,,,
,,,,,,,,,,00001449182,2020-10-16_19h37.40.975,swahili,2020.2.4,Win32,60,,,,,,,,,,,,,,,,,,,,,,,,,,,,,,,,,,,,,,,,,,,,,,,,,,,3.06111,0.525622255,0.078125,1,0,0,1.115545,yes,PARROT,USHUALI,incorrect,10,0,10,0,1,,,,,,,,,,,,,,,,,,,,,,,,,,,,,,,,,,,,
,,,,,,,,,,00001449182,2020-10-16_19h37.40.975,swahili,2020.2.4,Win32,60,,,,,,,,,,,,,,,,,,,,,,,,,,,,,,,,,,,,,,,,,,,,,,,,,,,4.209055,0.39238653,-0.049479167,1,0,0,6.71287,yes,GRAPES,UVOS,incorrect,11,0,11,0,1,,,,,,,,,,,,,,,,,,,,,,,,,,,,,,,,,,,,
,,,,,,,,,,00001449182,2020-10-16_19h37.40.975,swahili,2020.2.4,Win32,60,,,,,,,,,,,,,,,,,,,,,,,,,,,,,,,,,,,,,,,,,,,,,,,,,,,2.82451,-0.420204978,0.049479167,1,0,0,6.07707,no,BULL,IDK,incorrect,12,0,12,0,1,,,,,,,,,,,,,,,,,,,,,,,,,,,,,,,,,,,,
,,,,,,,,,,00001449182,2020-10-16_19h37.40.975,swahili,2020.2.4,Win32,60,,,,,,,,,,,,,,,,,,,,,,,,,,,,,,,,,,,,,,,,,,,,,,,,,,,3.93955,-0.464128843,0.080729167,1,0,0,0.999395,no,MANURE,IDK,incorrect,13,0,13,0,1,,,,,,,,,,,,,,,,,,,,,,,,,,,,,,,,,,,,
,,,,,,,,,,00001449182,2020-10-16_19h37.40.975,swahili,2020.2.4,Win32,60,,,,,,,,,,,,,,,,,,,,,,,,,,,,,,,,,,,,,,,,,,,,,,,,,,,6.954445,-0.546120059,-0.036458333,1,0,0,1.04886,no,DIVORCE,MYPARENTS,incorrect,14,0,14,0,1,,,,,,,,,,,,,,,,,,,,,,,,,,,,,,,,,,,,
,,,,,,,,,,00001449182,2020-10-16_19h37.40.975,swahili,2020.2.4,Win32,60,,,,,,,,,,,,,,,,,,,,,,,,,,,,,,,,,,,,,,,,,,,,,,,,,,,2.094115,-0.576866764,0.015625,1,0,0,0.66599,no,MERCHANT,IDK,incorrect,15,0,15,0,1,,,,,,,,,,,,,,,,,,,,,,,,,,,,,,,,,,,,
,,,,,,,,,,00001449182,2020-10-16_19h37.40.975,swahili,2020.2.4,Win32,60,,,,,,,,,,,,,,,,,,,,,,,,,,,,,,,,,,,,,,,,,,,,,,,,,,,1.49591,-0.576866764,0.015625,1,0,0,0.665955,no,TREASURE,IDK,incorrect,16,0,16,0,1,,,,,,,,,,,,,,,,,,,,,,,,,,,,,,,,,,,,
,,,,,,,,,,00001449182,2020-10-16_19h37.40.975,swahili,2020.2.4,Win32,60,,,,,,,,,,,,,,,,,,,,,,,,,,,,,,,,,,,,,,,,,,,,,,,,,,,8.82171,-0.521229868,0.020833333,1,0,0,2.414235,no,CHEESE,QUESO,incorrect,17,0,17,0,1,,,,,,,,,,,,,,,,,,,,,,,,,,,,,,,,,,,,
,,,,,,,,,,00001449182,2020-10-16_19h37.40.975,swahili,2020.2.4,Win32,60,,,,,,,,,,,,,,,,,,,,,,,,,,,,,,,,,,,,,,,,,,,,,,,,,,,5.72539,-0.578330893,-0.002604167,1,0,0,0.66346,no,PLATE,PLATO,incorrect,18,0,18,0,1,,,,,,,,,,,,,,,,,,,,,,,,,,,,,,,,,,,,
,,,,,,,,,,00001449182,2020-10-16_19h37.40.975,swahili,2020.2.4,Win32,60,,,,,,,,,,,,,,,,,,,,,,,,,,,,,,,,,,,,,,,,,,,,,,,,,,,2.66061,0.414348463,-0.0390625,1,0,0,0.915785,yes,POEM,UBENZI,incorrect,19,0,19,0,1,,,,,,,,,,,,,,,,,,,,,,,,,,,,,,,,,,,,
,,,,,,,,,,00001449182,2020-10-16_19h37.40.975,swahili,2020.2.4,Win32,60,,,,,,,,,,,,,,,,,,,,,,,,,,,,,,,,,,,,,,,,0,0,0,0,1,,,,,,,,,,,,,,,,,,,,,,,,,,,,,,,,,,,,,,,,,,,,,,,,,,,,,,,,,,
,,,,,,,,,,00001449182,2020-10-16_19h37.40.975,swahili,2020.2.4,Win32,60,,,,,,,,,,,,,,,,,,,,,,,,,,,,,,,,,,,,,,,,1,0,1,0,1,,,,,,,,,,,,,,,,,,,,,,,,,,,,,,,,,,,,,,,,,,,,,,,,,,,,,,,,,,
,,,,,,,,,,00001449182,2020-10-16_19h37.40.975,swahili,2020.2.4,Win32,60,,,,,,,,,,,,,,,,,,,,,,,,,,,,,,,,,,,,,,,,,,,,,1,0,1,0,1,,,,,,,,,,,,,,,,,,,,,,,,,,,,,,,,,,,,,,,,,,,,,,,,,,,,,
,,,,,,,,,,00001449182,2020-10-16_19h37.40.975,swahili,2020.2.4,Win32,60,,,,,,,,,,-0.357247438,-0.046875,1,0,0,3.224175,unsorted_card,0,0,0,0,1,,,,,,,,,,,,,,,,,,,,,,,,,,,,,,,,,,,,,,,,,,,,,,,,,,,,,,,,,,,,,,,,,,,,,,,,,,,,,,,,,
,,,,,,,,,,00001449182,2020-10-16_19h37.40.975,swahili,2020.2.4,Win32,60,,,,,,,,,,0.480234261,0.653645833,1,0,0,24.790865,study_pile,1,0,1,0,1,MERCHANT - TAJIRI,,,,,,,,,,,,,,,,,,,,,,,,,,,,,,,,,,,,,,,,,,,,,,,,,,,,,,,,,,,,,,,,,,,,,,,,,,,,,,,,
,,,,,,,,,,00001449182,2020-10-16_19h37.40.975,swahili,2020.2.4,Win32,60,,,,,,,,,,-0.491947291,-0.247395833,1,0,0,1.17878,unsorted_card,2,0,2,0,1,,,,,,,,,,,,,,,,,,,,,,,,,,,,,,,,,,,,,,,,,,,,,,,,,,,,,,,,,,,,,,,,,,,,,,,,,,,,,,,,,
,,,,,,,,,,00001449182,2020-10-16_19h37.40.975,swahili,2020.2.4,Win32,60,,,,,,,,,,0.374816984,0.434895833,1,0,0,2.129055,study_pile,3,0,3,0,1,PARROT - KASUKU,,,,,,,,,,,,,,,,,,,,,,,,,,,,,,,,,,,,,,,,,,,,,,,,,,,,,,,,,,,,,,,,,,,,,,,,,,,,,,,,
,,,,,,,,,,00001449182,2020-10-16_19h37.40.975,swahili,2020.2.4,Win32,60,,,,,,,,,,-0.518301611,-0.244791667,1,0,0,0.92754,unsorted_card,4,0,4,0,1,,,,,,,,,,,,,,,,,,,,,,,,,,,,,,,,,,,,,,,,,,,,,,,,,,,,,,,,,,,,,,,,,,,,,,,,,,,,,,,,,
,,,,,,,,,,00001449182,2020-10-16_19h37.40.975,swahili,2020.2.4,Win32,60,,,,,,,,,,0.433382138,0.453125,1,0,0,1.679995,study_pile,5,0,5,0,1,BULL - FAHILI,,,,,,,,,,,,,,,,,,,,,,,,,,,,,,,,,,,,,,,,,,,,,,,,,,,,,,,,,,,,,,,,,,,,,,,,,,,,,,,,
,,,,,,,,,,00001449182,2020-10-16_19h37.40.975,swahili,2020.2.4,Win32,60,,,,,,,,,,-0.424597365,-0.111979167,1,0,0,0.846125,unsorted_card,6,0,6,0,1,,,,,,,,,,,,,,,,,,,,,,,,,,,,,,,,,,,,,,,,,,,,,,,,,,,,,,,,,,,,,,,,,,,,,,,,,,,,,,,,,
,,,,,,,,,,00001449182,2020-10-16_19h37.40.975,swahili,2020.2.4,Win32,60,,,,,,,,,,0.407027818,0.536458333,1,0,0,1.57999,study_pile,7,0,7,0,1,PLATE - SAHANI,,,,,,,,,,,,,,,,,,,,,,,,,,,,,,,,,,,,,,,,,,,,,,,,,,,,,,,,,,,,,,,,,,,,,,,,,,,,,,,,
,,,,,,,,,,00001449182,2020-10-16_19h37.40.975,swahili,2020.2.4,Win32,60,,,,,,,,,,-0.342606149,-0.122395833,1,0,0,0.99673,unsorted_card,8,0,8,0,1,,,,,,,,,,,,,,,,,,,,,,,,,,,,,,,,,,,,,,,,,,,,,,,,,,,,,,,,,,,,,,,,,,,,,,,,,,,,,,,,,
,,,,,,,,,,00001449182,2020-10-16_19h37.40.975,swahili,2020.2.4,Win32,60,,,,,,,,,,0.412884334,0.419270833,1,0,0,2.728945,study_pile,9,0,9,0,1,YEAST - HAMIRA,,,,,,,,,,,,,,,,,,,,,,,,,,,,,,,,,,,,,,,,,,,,,,,,,,,,,,,,,,,,,,,,,,,,,,,,,,,,,,,,
,,,,,,,,,,00001449182,2020-10-16_19h37.40.975,swahili,2020.2.4,Win32,60,,,,,,,,,,-0.453879941,-0.109375,1,0,0,0.708185,unsorted_card,10,0,10,0,1,,,,,,,,,,,,,,,,,,,,,,,,,,,,,,,,,,,,,,,,,,,,,,,,,,,,,,,,,,,,,,,,,,,,,,,,,,,,,,,,,
,,,,,,,,,,00001449182,2020-10-16_19h37.40.975,swahili,2020.2.4,Win32,60,,,,,,,,,,0.433382138,0.505208333,1,0,0,1.32955,study_pile,11,0,11,0,1,BLAME - LAWAMA,,,,,,,,,,,,,,,,,,,,,,,,,,,,,,,,,,,,,,,,,,,,,,,,,,,,,,,,,,,,,,,,,,,,,,,,,,,,,,,,
,,,,,,,,,,00001449182,2020-10-16_19h37.40.975,swahili,2020.2.4,Win32,60,,,,,,,,,,-0.35431918,0.059895833,1,0,0,0.746895,unsorted_card,12,0,12,0,1,,,,,,,,,,,,,,,,,,,,,,,,,,,,,,,,,,,,,,,,,,,,,,,,,,,,,,,,,,,,,,,,,,,,,,,,,,,,,,,,,
,,,,,,,,,,00001449182,2020-10-16_19h37.40.975,swahili,2020.2.4,Win32,60,,,,,,,,,,0.614934114,0.638020833,1,0,0,4.51034,study_pile,13,0,13,0,1,OATH - YAMINI,,,,,,,,,,,,,,,,,,,,,,,,,,,,,,,,,,,,,,,,,,,,,,,,,,,,,,,,,,,,,,,,,,,,,,,,,,,,,,,,
,,,,,,,,,,00001449182,2020-10-16_19h37.40.975,swahili,2020.2.4,Win32,60,,,,,,,,,,-0.150805271,0.078125,1,0,0,0.82905,unsorted_card,14,0,14,0,1,,,,,,,,,,,,,,,,,,,,,,,,,,,,,,,,,,,,,,,,,,,,,,,,,,,,,,,,,,,,,,,,,,,,,,,,,,,,,,,,,
,,,,,,,,,,00001449182,2020-10-16_19h37.40.975,swahili,2020.2.4,Win32,60,,,,,,,,,,0.519765739,0.5234375,1,0,0,1.6464,study_pile,15,0,15,0,1,CORN - NAFAKA,,,,,,,,,,,,,,,,,,,,,,,,,,,,,,,,,,,,,,,,,,,,,,,,,,,,,,,,,,,,,,,,,,,,,,,,,,,,,,,,
,,,,,,,,,,00001449182,2020-10-16_19h37.40.975,swahili,2020.2.4,Win32,60,,,,,,,,,,-0.090775988,0.119791667,1,0,0,0.71256,unsorted_card,16,0,16,0,1,,,,,,,,,,,,,,,,,,,,,,,,,,,,,,,,,,,,,,,,,,,,,,,,,,,,,,,,,,,,,,,,,,,,,,,,,,,,,,,,,
,,,,,,,,,,00001449182,2020-10-16_19h37.40.975,swahili,2020.2.4,Win32,60,,,,,,,,,,0.418740849,-0.002604167,1,0,0,1.28022,test_pile,17,0,17,0,1,POEM - UTENZI,,,,,,,,,,,,,,,,,,,,,,,,,,,,,,,,,,,,,,,,,,,,,,,,,,,,,,,,,,,,,,,,,,,,,,,,,,,,,,,,
,,,,,,,,,,00001449182,2020-10-16_19h37.40.975,swahili,2020.2.4,Win32,60,,,,,,,,,,-0.199121523,-0.03125,1,0,0,1.46269,unsorted_card,18,0,18,0,1,,,,,,,,,,,,,,,,,,,,,,,,,,,,,,,,,,,,,,,,,,,,,,,,,,,,,,,,,,,,,,,,,,,,,,,,,,,,,,,,,
,,,,,,,,,,00001449182,2020-10-16_19h37.40.975,swahili,2020.2.4,Win32,60,,,,,,,,,,0.452415813,0.0625,1,0,0,1.879775,test_pile,19,0,19,0,1,TAILOR - MSHONI,,,,,,,,,,,,,,,,,,,,,,,,,,,,,,,,,,,,,,,,,,,,,,,,,,,,,,,,,,,,,,,,,,,,,,,,,,,,,,,,
,,,,,,,,,,00001449182,2020-10-16_19h37.40.975,swahili,2020.2.4,Win32,60,,,,,,,,,,-0.344070278,-0.1015625,1,0,0,0.730585,unsorted_card,20,0,20,0,1,,,,,,,,,,,,,,,,,,,,,,,,,,,,,,,,,,,,,,,,,,,,,,,,,,,,,,,,,,,,,,,,,,,,,,,,,,,,,,,,,
,,,,,,,,,,00001449182,2020-10-16_19h37.40.975,swahili,2020.2.4,Win32,60,,,,,,,,,,0.581259151,0.114583333,1,0,0,1.296825,test_pile,21,0,21,0,1,CHEESE - JIBINI,,,,,,,,,,,,,,,,,,,,,,,,,,,,,,,,,,,,,,,,,,,,,,,,,,,,,,,,,,,,,,,,,,,,,,,,,,,,,,,,
,,,,,,,,,,00001449182,2020-10-16_19h37.40.975,swahili,2020.2.4,Win32,60,,,,,,,,,,-0.254758419,-0.1015625,1,0,0,7.156635,unsorted_card,22,0,22,0,1,,,,,,,,,,,,,,,,,,,,,,,,,,,,,,,,,,,,,,,,,,,,,,,,,,,,,,,,,,,,,,,,,,,,,,,,,,,,,,,,,
,,,,,,,,,,00001449182,2020-10-16_19h37.40.975,swahili,2020.2.4,Win32,60,,,,,,,,,,0.522693997,0.6171875,1,0,0,6.639785,study_pile,23,0,23,0,1,GRAPES - ZABIBU,,,,,,,,,,,,,,,,,,,,,,,,,,,,,,,,,,,,,,,,,,,,,,,,,,,,,,,,,,,,,,,,,,,,,,,,,,,,,,,,
,,,,,,,,,,00001449182,2020-10-16_19h37.40.975,swahili,2020.2.4,Win32,60,,,,,,,,,,-0.241581259,0.002604167,1,0,0,0.81171,unsorted_card,24,0,24,0,1,,,,,,,,,,,,,,,,,,,,,,,,,,,,,,,,,,,,,,,,,,,,,,,,,,,,,,,,,,,,,,,,,,,,,,,,,,,,,,,,,
,,,,,,,,,,00001449182,2020-10-16_19h37.40.975,swahili,2020.2.4,Win32,60,,,,,,,,,,0.39238653,0.533854167,1,0,0,1.13036,study_pile,25,0,25,0,1,GRAVE - KABURI,,,,,,,,,,,,,,,,,,,,,,,,,,,,,,,,,,,,,,,,,,,,,,,,,,,,,,,,,,,,,,,,,,,,,,,,,,,,,,,,
,,,,,,,,,,00001449182,2020-10-16_19h37.40.975,swahili,2020.2.4,Win32,60,,,,,,,,,,-0.265007321,-0.033854167,1,0,0,0.71316,unsorted_card,26,0,26,0,1,,,,,,,,,,,,,,,,,,,,,,,,,,,,,,,,,,,,,,,,,,,,,,,,,,,,,,,,,,,,,,,,,,,,,,,,,,,,,,,,,
,,,,,,,,,,00001449182,2020-10-16_19h37.40.975,swahili,2020.2.4,Win32,60,,,,,,,,,,0.371888726,0.4609375,1,0,0,2.628595,study_pile,27,0,27,0,1,MANURE - SAMADI,,,,,,,,,,,,,,,,,,,,,,,,,,,,,,,,,,,,,,,,,,,,,,,,,,,,,,,,,,,,,,,,,,,,,,,,,,,,,,,,
,,,,,,,,,,00001449182,2020-10-16_19h37.40.975,swahili,2020.2.4,Win32,60,,,,,,,,,,-0.02489019,0.223958333,1,0,0,0.69731,unsorted_card,28,0,28,0,1,,,,,,,,,,,,,,,,,,,,,,,,,,,,,,,,,,,,,,,,,,,,,,,,,,,,,,,,,,,,,,,,,,,,,,,,,,,,,,,,,
,,,,,,,,,,00001449182,2020-10-16_19h37.40.975,swahili,2020.2.4,Win32,60,,,,,,,,,,0.513909224,0.497395833,1,0,0,1.696595,study_pile,29,0,29,0,1,AGENT - WAKILI,,,,,,,,,,,,,,,,,,,,,,,,,,,,,,,,,,,,,,,,,,,,,,,,,,,,,,,,,,,,,,,,,,,,,,,,,,,,,,,,
,,,,,,,,,,00001449182,2020-10-16_19h37.40.975,swahili,2020.2.4,Win32,60,,,,,,,,,,-0.360175695,0.049479167,1,0,0,0.746795,unsorted_card,30,0,30,0,1,,,,,,,,,,,,,,,,,,,,,,,,,,,,,,,,,,,,,,,,,,,,,,,,,,,,,,,,,,,,,,,,,,,,,,,,,,,,,,,,,
,,,,,,,,,,00001449182,2020-10-16_19h37.40.975,swahili,2020.2.4,Win32,60,,,,,,,,,,0.509516837,0.552083333,1,0,0,0.913865,study_pile,31,0,31,0,1,BRIBE - RUSHWA,,,,,,,,,,,,,,,,,,,,,,,,,,,,,,,,,,,,,,,,,,,,,,,,,,,,,,,,,,,,,,,,,,,,,,,,,,,,,,,,
,,,,,,,,,,00001449182,2020-10-16_19h37.40.975,swahili,2020.2.4,Win32,60,,,,,,,,,,-0.285505124,-0.015625,1,0,0,0.68078,unsorted_card,32,0,32,0,1,,,,,,,,,,,,,,,,,,,,,,,,,,,,,,,,,,,,,,,,,,,,,,,,,,,,,,,,,,,,,,,,,,,,,,,,,,,,,,,,,
,,,,,,,,,,00001449182,2020-10-16_19h37.40.975,swahili,2020.2.4,Win32,60,,,,,,,,,,0.338213763,0.434895833,1,0,0,0.896605,study_pile,33,0,33,0,1,ORPHAN - YATIMA,,,,,,,,,,,,,,,,,,,,,,,,,,,,,,,,,,,,,,,,,,,,,,,,,,,,,,,,,,,,,,,,,,,,,,,,,,,,,,,,
,,,,,,,,,,00001449182,2020-10-16_19h37.40.975,swahili,2020.2.4,Win32,60,,,,,,,,,,-0.484626647,-0.098958333,1,0,0,0.68029,unsorted_card,34,0,34,0,1,,,,,,,,,,,,,,,,,,,,,,,,,,,,,,,,,,,,,,,,,,,,,,,,,,,,,,,,,,,,,,,,,,,,,,,,,,,,,,,,,
,,,,,,,,,,00001449182,2020-10-16_19h37.40.975,swahili,2020.2.4,Win32,60,,,,,,,,,,0.41727672,0.533854167,1,0,0,0.930565,study_pile,35,0,35,0,1,DIVORCE - TALAKA,,,,,,,,,,,,,,,,,,,,,,,,,,,,,,,,,,,,,,,,,,,,,,,,,,,,,,,,,,,,,,,,,,,,,,,,,,,,,,,,
,,,,,,,,,,00001449182,2020-10-16_19h37.40.975,swahili,2020.2.4,Win32,60,,,,,,,,,,-0.262079063,0.09375,1,0,0,0.64669,unsorted_card,36,0,36,0,1,,,,,,,,,,,,,,,,,,,,,,,,,,,,,,,,,,,,,,,,,,,,,,,,,,,,,,,,,,,,,,,,,,,,,,,,,,,,,,,,,
,,,,,,,,,,00001449182,2020-10-16_19h37.40.975,swahili,2020.2.4,Win32,60,,,,,,,,,,0.449487555,0.140625,1,0,0,1.796565,test_pile,37,0,37,0,1,BOAT - MASHUA,,,,,,,,,,,,,,,,,,,,,,,,,,,,,,,,,,,,,,,,,,,,,,,,,,,,,,,,,,,,,,,,,,,,,,,,,,,,,,,,
,,,,,,,,,,00001449182,2020-10-16_19h37.40.975,swahili,2020.2.4,Win32,60,,,,,,,,,,-0.399707174,-0.065104167,1,0,0,0.66387,unsorted_card,38,0,38,0,1,,,,,,,,,,,,,,,,,,,,,,,,,,,,,,,,,,,,,,,,,,,,,,,,,,,,,,,,,,,,,,,,,,,,,,,,,,,,,,,,,
,,,,,,,,,,00001449182,2020-10-16_19h37.40.975,swahili,2020.2.4,Win32,60,,,,,,,,,,0.469985359,0.473958333,1,0,0,0.980765,study_pile,39,0,39,0,1,TREASURE - DAFINA,,,,,,,,,,,,,,,,,,,,,,,,,,,,,,,,,,,,,,,,,,,,,,,,,,,,,,,,,,,,,,,,,,,,,,,,,,,,,,,,
,,,,,,,,,,00001449182,2020-10-16_19h37.40.975,swahili,2020.2.4,Win32,60,,,,,,,,,,,,,,,,,,,,,,,0.408491947,0.046875,1,0,0,2.812495,test_first,,,,,0,0,0,0,1,,,,,,,,,,,,,,,,,,,,,,,,,,,,,,,,,,,,,,,,,,,,,,,,,,,,,,,,,,,,,,,,
,,,,,,,,,,00001449182,2020-10-16_19h37.40.975,swahili,2020.2.4,Win32,60,,,,,,,,,,,,,,,,,,,,,,,,,,,,,,,,,,,,,,,return,,,,,,,,,,,2.74088,10.669845,0.579795022,0.0703125,1,0,0,1.099315,yes,BOAT,MSHUA,incorrect,0,0,0,0,1,,,,,,,,,,,,,,,,,,,,,,,,,,,,,,,,,,,,
,,,,,,,,,,00001449182,2020-10-16_19h37.40.975,swahili,2020.2.4,Win32,60,,,,,,,,,,,,,,,,,,,,,,,,,,,,,,,,,,,,,,,,,,,,,,,,,,,5.67371,0.547584187,0.041666667,1,0,0,1.082775,yes,POEM,UTENZI,incorrect,1,0,1,0,1,,,,,,,,,,,,,,,,,,,,,,,,,,,,,,,,,,,,
,,,,,,,,,,00001449182,2020-10-16_19h37.40.975,swahili,2020.2.4,Win32,60,,,,,,,,,,,,,,,,,,,,,,,,,,,,,,,,,,,,,,,,,,,,,,,,,,,2.3108,0.547584187,0.041666667,1,0,0,1.282835,yes,CHEESE,JIBINI,incorrect,2,0,2,0,1,,,,,,,,,,,,,,,,,,,,,,,,,,,,,,,,,,,,
,,,,,,,,,,00001449182,2020-10-16_19h37.40.975,swahili,2020.2.4,Win32,60,,,,,,,,,,,,,,,,,,,,,,,,,,,,,,,,,,,,,,,,,,,,,,,,,,,4.67526,0.349926794,-0.109375,1,0,0,1.0827,yes,TAILOR,MSHONO,incorrect,3,0,3,0,1,,,,,,,,,,,,,,,,,,,,,,,,,,,,,,,,,,,,
,,,,,,,,,,00001449182,2020-10-16_19h37.40.975,swahili,2020.2.4,Win32,60,,,,,,,,,,,,,,,,,,,,,,,,,,,,,,,,,,,,,,,,0,0,0,0,1,,,,,,,,,,,,,,,,,,,,,,,,,,,,,,,,,,,,,,,,,,,,,,,,,,,,,,,,,,
,,,,,,,,,,00001449182,2020-10-16_19h37.40.975,swahili,2020.2.4,Win32,60,,,,,,,,,,,,,,,,,,,,,,BRIBE - RUSHWA,,,,,,,,return,0.84609,return,40.99005,0,0,0,0,1,,,,,,,,,,,,,,,,,,,,,,,,,,,,,,,,,,,,,,,,,,,,,,,,,,,,,,,,,,,,,,,,
,,,,,,,,,,00001449182,2020-10-16_19h37.40.975,swahili,2020.2.4,Win32,60,,,,,,,,,,,,,,,,,,,,,,TREASURE - DAFINA,,,,,,,,,,return,17.990025,1,0,1,0,1,,,,,,,,,,,,,,,,,,,,,,,,,,,,,,,,,,,,,,,,,,,,,,,,,,,,,,,,,,,,,,,,
,,,,,,,,,,00001449182,2020-10-16_19h37.40.975,swahili,2020.2.4,Win32,60,,,,,,,,,,,,,,,,,,,,,,MANURE - SAMADI,,,,,,,,,,return,9.768655,2,0,2,0,1,,,,,,,,,,,,,,,,,,,,,,,,,,,,,,,,,,,,,,,,,,,,,,,,,,,,,,,,,,,,,,,,
,,,,,,,,,,00001449182,2020-10-16_19h37.40.975,swahili,2020.2.4,Win32,60,,,,,,,,,,,,,,,,,,,,,,AGENT - WAKILI,,,,,,,,,,return,0.30165,3,0,3,0,1,,,,,,,,,,,,,,,,,,,,,,,,,,,,,,,,,,,,,,,,,,,,,,,,,,,,,,,,,,,,,,,,
,,,,,,,,,,00001449182,2020-10-16_19h37.40.975,swahili,2020.2.4,Win32,60,,,,,,,,,,,,,,,,,,,,,,MERCHANT - TAJIRI,,,,,,,,,,return,0.254005,4,0,4,0,1,,,,,,,,,,,,,,,,,,,,,,,,,,,,,,,,,,,,,,,,,,,,,,,,,,,,,,,,,,,,,,,,
,,,,,,,,,,00001449182,2020-10-16_19h37.40.975,swahili,2020.2.4,Win32,60,,,,,,,,,,,,,,,,,,,,,,GRAPES - ZABIBU,,,,,,,,,,return,0.12907,5,0,5,0,1,,,,,,,,,,,,,,,,,,,,,,,,,,,,,,,,,,,,,,,,,,,,,,,,,,,,,,,,,,,,,,,,
,,,,,,,,,,00001449182,2020-10-16_19h37.40.975,swahili,2020.2.4,Win32,60,,,,,,,,,,,,,,,,,,,,,,PLATE - SAHANI,,,,,,,,,,return,0.121205,6,0,6,0,1,,,,,,,,,,,,,,,,,,,,,,,,,,,,,,,,,,,,,,,,,,,,,,,,,,,,,,,,,,,,,,,,
,,,,,,,,,,00001449182,2020-10-16_19h37.40.975,swahili,2020.2.4,Win32,60,,,,,,,,,,,,,,,,,,,,,,CORN - NAFAKA,,,,,,,,,,return,0.101585,7,0,7,0,1,,,,,,,,,,,,,,,,,,,,,,,,,,,,,,,,,,,,,,,,,,,,,,,,,,,,,,,,,,,,,,,,
,,,,,,,,,,00001449182,2020-10-16_19h37.40.975,swahili,2020.2.4,Win32,60,,,,,,,,,,,,,,,,,,,,,,BULL - FAHILI,,,,,,,,,,return,0.08495,8,0,8,0,1,,,,,,,,,,,,,,,,,,,,,,,,,,,,,,,,,,,,,,,,,,,,,,,,,,,,,,,,,,,,,,,,
,,,,,,,,,,00001449182,2020-10-16_19h37.40.975,swahili,2020.2.4,Win32,60,,,,,,,,,,,,,,,,,,,,,,ORPHAN - YATIMA,,,,,,,,,,return,0.085705,9,0,9,0,1,,,,,,,,,,,,,,,,,,,,,,,,,,,,,,,,,,,,,,,,,,,,,,,,,,,,,,,,,,,,,,,,
,,,,,,,,,,00001449182,2020-10-16_19h37.40.975,swahili,2020.2.4,Win32,60,,,,,,,,,,,,,,,,,,,,,,GRAVE - KABURI,,,,,,,,,,return,0.085685,10,0,10,0,1,,,,,,,,,,,,,,,,,,,,,,,,,,,,,,,,,,,,,,,,,,,,,,,,,,,,,,,,,,,,,,,,
,,,,,,,,,,00001449182,2020-10-16_19h37.40.975,swahili,2020.2.4,Win32,60,,,,,,,,,,,,,,,,,,,,,,YEAST - HAMIRA,,,,,,,,,,return,0.08053,11,0,11,0,1,,,,,,,,,,,,,,,,,,,,,,,,,,,,,,,,,,,,,,,,,,,,,,,,,,,,,,,,,,,,,,,,
,,,,,,,,,,00001449182,2020-10-16_19h37.40.975,swahili,2020.2.4,Win32,60,,,,,,,,,,,,,,,,,,,,,,BLAME - LAWAMA,,,,,,,,,,return,0.09171,12,0,12,0,1,,,,,,,,,,,,,,,,,,,,,,,,,,,,,,,,,,,,,,,,,,,,,,,,,,,,,,,,,,,,,,,,
,,,,,,,,,,00001449182,2020-10-16_19h37.40.975,swahili,2020.2.4,Win32,60,,,,,,,,,,,,,,,,,,,,,,OATH - YAMINI,,,,,,,,,,return,0.079285,13,0,13,0,1,,,,,,,,,,,,,,,,,,,,,,,,,,,,,,,,,,,,,,,,,,,,,,,,,,,,,,,,,,,,,,,,
,,,,,,,,,,00001449182,2020-10-16_19h37.40.975,swahili,2020.2.4,Win32,60,,,,,,,,,,,,,,,,,,,,,,DIVORCE - TALAKA,,,,,,,,,,return,0.084855,14,0,14,0,1,,,,,,,,,,,,,,,,,,,,,,,,,,,,,,,,,,,,,,,,,,,,,,,,,,,,,,,,,,,,,,,,
,,,,,,,,,,00001449182,2020-10-16_19h37.40.975,swahili,2020.2.4,Win32,60,,,,,,,,,,,,,,,,,,,,,,PARROT - KASUKU,,,,,,,,,,return,0.23868,15,0,15,0,1,,,,,,,,,,,,,,,,,,,,,,,,,,,,,,,,,,,,,,,,,,,,,,,,,,,,,,,,,,,,,,,,
,,,,,,,,,,00001449182,2020-10-16_19h37.40.975,swahili,2020.2.4,Win32,60,,,,,,,,,,,,,,,,,,,,,,,,,,,,,,,,,,,,,,,,1,0,1,0,1,,,,,,,,,,,,,,,,,,,,,,,,,,,,,,,,,,,,,,,,,,,,,,,,,,,,,,,,,,
,,,,,,,,,,00001449182,2020-10-16_19h37.40.975,swahili,2020.2.4,Win32,60,,,,,,,,,,,,,,,,,,,,,,,,,,,,,,,,,,,,,,,,,,,,,2,0,2,0,1,,,,,,,,,,,,,,,,,,,,,,,,,,,,,,,,,,,,,,,,,,,,,,,,,,,,,
,,,,,,,,,,00001449182,2020-10-16_19h37.40.975,swahili,2020.2.4,Win32,60,,,,,,,,,,-0.286969253,-0.1953125,1,0,0,3.07208,unsorted_card,0,0,0,0,1,,,,,,,,,,,,,,,,,,,,,,,,,,,,,,,,,,,,,,,,,,,,,,,,,,,,,,,,,,,,,,,,,,,,,,,,,,,,,,,,,
,,,,,,,,,,00001449182,2020-10-16_19h37.40.975,swahili,2020.2.4,Win32,60,,,,,,,,,,0.467057101,0.59375,1,0,0,2.07915,study_pile,1,0,1,0,1,MERCHANT - TAJIRI,,,,,,,,,,,,,,,,,,,,,,,,,,,,,,,,,,,,,,,,,,,,,,,,,,,,,,,,,,,,,,,,,,,,,,,,,,,,,,,,
,,,,,,,,,,00001449182,2020-10-16_19h37.40.975,swahili,2020.2.4,Win32,60,,,,,,,,,,-0.221083455,0.028645833,1,0,0,1.11221,unsorted_card,2,0,2,0,1,,,,,,,,,,,,,,,,,,,,,,,,,,,,,,,,,,,,,,,,,,,,,,,,,,,,,,,,,,,,,,,,,,,,,,,,,,,,,,,,,
,,,,,,,,,,00001449182,2020-10-16_19h37.40.975,swahili,2020.2.4,Win32,60,,,,,,,,,,0.489019034,0.533854167,1,0,0,1.197065,study_pile,3,0,3,0,1,PARROT - KASUKU,,,,,,,,,,,,,,,,,,,,,,,,,,,,,,,,,,,,,,,,,,,,,,,,,,,,,,,,,,,,,,,,,,,,,,,,,,,,,,,,
,,,,,,,,,,00001449182,2020-10-16_19h37.40.975,swahili,2020.2.4,Win32,60,,,,,,,,,,-0.231332357,-0.0546875,1,0,0,0.64752,unsorted_card,4,0,4,0,1,,,,,,,,,,,,,,,,,,,,,,,,,,,,,,,,,,,,,,,,,,,,,,,,,,,,,,,,,,,,,,,,,,,,,,,,,,,,,,,,,
,,,,,,,,,,00001449182,2020-10-16_19h37.40.975,swahili,2020.2.4,Win32,60,,,,,,,,,,0.537335286,0.588541667,1,0,0,1.180675,study_pile,5,0,5,0,1,BULL - FAHILI,,,,,,,,,,,,,,,,,,,,,,,,,,,,,,,,,,,,,,,,,,,,,,,,,,,,,,,,,,,,,,,,,,,,,,,,,,,,,,,,
,,,,,,,,,,00001449182,2020-10-16_19h37.40.975,swahili,2020.2.4,Win32,60,,,,,,,,,,-0.1522694,0.075520833,1,0,0,0.831365,unsorted_card,6,0,6,0,1,,,,,,,,,,,,,,,,,,,,,,,,,,,,,,,,,,,,,,,,,,,,,,,,,,,,,,,,,,,,,,,,,,,,,,,,,,,,,,,,,
,,,,,,,,,,00001449182,2020-10-16_19h37.40.975,swahili,2020.2.4,Win32,60,,,,,,,,,,0.502196193,0.536458333,1,0,0,1.530805,study_pile,7,0,7,0,1,PLATE - SAHANI,,,,,,,,,,,,,,,,,,,,,,,,,,,,,,,,,,,,,,,,,,,,,,,,,,,,,,,,,,,,,,,,,,,,,,,,,,,,,,,,
,,,,,,,,,,00001449182,2020-10-16_19h37.40.975,swahili,2020.2.4,Win32,60,,,,,,,,,,-0.281112738,0.067708333,1,0,0,0.6658,unsorted_card,8,0,8,0,1,,,,,,,,,,,,,,,,,,,,,,,,,,,,,,,,,,,,,,,,,,,,,,,,,,,,,,,,,,,,,,,,,,,,,,,,,,,,,,,,,
,,,,,,,,,,00001449182,2020-10-16_19h37.40.975,swahili,2020.2.4,Win32,60,,,,,,,,,,0.494875549,0.510416667,1,0,0,2.395895,study_pile,9,0,9,0,1,YEAST - HAMIRA,,,,,,,,,,,,,,,,,,,,,,,,,,,,,,,,,,,,,,,,,,,,,,,,,,,,,,,,,,,,,,,,,,,,,,,,,,,,,,,,
,,,,,,,,,,00001449182,2020-10-16_19h37.40.975,swahili,2020.2.4,Win32,60,,,,,,,,,,-0.339677892,-0.020833333,1,0,0,0.646855,unsorted_card,10,0,10,0,1,,,,,,,,,,,,,,,,,,,,,,,,,,,,,,,,,,,,,,,,,,,,,,,,,,,,,,,,,,,,,,,,,,,,,,,,,,,,,,,,,
,,,,,,,,,,00001449182,2020-10-16_19h37.40.975,swahili,2020.2.4,Win32,60,,,,,,,,,,0.43045388,0.447916667,1,0,0,1.131055,study_pile,11,0,11,0,1,BLAME - LAWAMA,,,,,,,,,,,,,,,,,,,,,,,,,,,,,,,,,,,,,,,,,,,,,,,,,,,,,,,,,,,,,,,,,,,,,,,,,,,,,,,,
,,,,,,,,,,00001449182,2020-10-16_19h37.40.975,swahili,2020.2.4,Win32,60,,,,,,,,,,-0.431918009,-0.111979167,1,0,0,0.580585,unsorted_card,12,0,12,0,1,,,,,,,,,,,,,,,,,,,,,,,,,,,,,,,,,,,,,,,,,,,,,,,,,,,,,,,,,,,,,,,,,,,,,,,,,,,,,,,,,
,,,,,,,,,,00001449182,2020-10-16_19h37.40.975,swahili,2020.2.4,Win32,60,,,,,,,,,,0.592972182,0.651041667,1,0,0,3.76164,study_pile,13,0,13,0,1,OATH - YAMINI,,,,,,,,,,,,,,,,,,,,,,,,,,,,,,,,,,,,,,,,,,,,,,,,,,,,,,,,,,,,,,,,,,,,,,,,,,,,,,,,
,,,,,,,,,,00001449182,2020-10-16_19h37.40.975,swahili,2020.2.4,Win32,60,,,,,,,,,,-0.29136164,-0.0625,1,0,0,0.578635,unsorted_card,14,0,14,0,1,,,,,,,,,,,,,,,,,,,,,,,,,,,,,,,,,,,,,,,,,,,,,,,,,,,,,,,,,,,,,,,,,,,,,,,,,,,,,,,,,
,,,,,,,,,,00001449182,2020-10-16_19h37.40.975,swahili,2020.2.4,Win32,60,,,,,,,,,,0.409956076,0.466145833,1,0,0,0.930255,study_pile,15,0,15,0,1,CORN - NAFAKA,,,,,,,,,,,,,,,,,,,,,,,,,,,,,,,,,,,,,,,,,,,,,,,,,,,,,,,,,,,,,,,,,,,,,,,,,,,,,,,,
,,,,,,,,,,00001449182,2020-10-16_19h37.40.975,swahili,2020.2.4,Win32,60,,,,,,,,,,-0.348462665,-0.0625,1,0,0,0.562375,unsorted_card,16,0,16,0,1,,,,,,,,,,,,,,,,,,,,,,,,,,,,,,,,,,,,,,,,,,,,,,,,,,,,,,,,,,,,,,,,,,,,,,,,,,,,,,,,,
,,,,,,,,,,00001449182,2020-10-16_19h37.40.975,swahili,2020.2.4,Win32,60,,,,,,,,,,0.371888726,0.083333333,1,0,0,1.281215,test_pile,17,0,17,0,1,POEM - UTENZI,,,,,,,,,,,,,,,,,,,,,,,,,,,,,,,,,,,,,,,,,,,,,,,,,,,,,,,,,,,,,,,,,,,,,,,,,,,,,,,,
,,,,,,,,,,00001449182,2020-10-16_19h37.40.975,swahili,2020.2.4,Win32,60,,,,,,,,,,-0.232796486,-0.119791667,1,0,0,0.66179,unsorted_card,18,0,18,0,1,,,,,,,,,,,,,,,,,,,,,,,,,,,,,,,,,,,,,,,,,,,,,,,,,,,,,,,,,,,,,,,,,,,,,,,,,,,,,,,,,
,,,,,,,,,,00001449182,2020-10-16_19h37.40.975,swahili,2020.2.4,Win32,60,,,,,,,,,,0.34114202,-0.052083333,1,0,0,2.862385,test_pile,19,0,19,0,1,TAILOR - MSHONI,,,,,,,,,,,,,,,,,,,,,,,,,,,,,,,,,,,,,,,,,,,,,,,,,,,,,,,,,,,,,,,,,,,,,,,,,,,,,,,,
,,,,,,,,,,00001449182,2020-10-16_19h37.40.975,swahili,2020.2.4,Win32,60,,,,,,,,,,-0.193265007,-0.057291667,1,0,0,1.21255,unsorted_card,20,0,20,0,1,,,,,,,,,,,,,,,,,,,,,,,,,,,,,,,,,,,,,,,,,,,,,,,,,,,,,,,,,,,,,,,,,,,,,,,,,,,,,,,,,
,,,,,,,,,,00001449182,2020-10-16_19h37.40.975,swahili,2020.2.4,Win32,60,,,,,,,,,,0.471449488,0.078125,1,0,0,1.09781,test_pile,21,0,21,0,1,CHEESE - JIBINI,,,,,,,,,,,,,,,,,,,,,,,,,,,,,,,,,,,,,,,,,,,,,,,,,,,,,,,,,,,,,,,,,,,,,,,,,,,,,,,,
,,,,,,,,,,00001449182,2020-10-16_19h37.40.975,swahili,2020.2.4,Win32,60,,,,,,,,,,-0.250366032,-0.0546875,1,0,0,3.47882,unsorted_card,22,0,22,0,1,,,,,,,,,,,,,,,,,,,,,,,,,,,,,,,,,,,,,,,,,,,,,,,,,,,,,,,,,,,,,,,,,,,,,,,,,,,,,,,,,
,,,,,,,,,,00001449182,2020-10-16_19h37.40.975,swahili,2020.2.4,Win32,60,,,,,,,,,,0.437774524,0.53125,1,0,0,2.261325,study_pile,23,0,23,0,1,GRAPES - ZABIBU,,,,,,,,,,,,,,,,,,,,,,,,,,,,,,,,,,,,,,,,,,,,,,,,,,,,,,,,,,,,,,,,,,,,,,,,,,,,,,,,
,,,,,,,,,,00001449182,2020-10-16_19h37.40.975,swahili,2020.2.4,Win32,60,,,,,,,,,,-0.393850659,0.052083333,1,0,0,0.58033,unsorted_card,24,0,24,0,1,,,,,,,,,,,,,,,,,,,,,,,,,,,,,,,,,,,,,,,,,,,,,,,,,,,,,,,,,,,,,,,,,,,,,,,,,,,,,,,,,
,,,,,,,,,,00001449182,2020-10-16_19h37.40.975,swahili,2020.2.4,Win32,60,,,,,,,,,,0.36749634,0.4375,1,0,0,1.663425,study_pile,25,0,25,0,1,GRAVE - KABURI,,,,,,,,,,,,,,,,,,,,,,,,,,,,,,,,,,,,,,,,,,,,,,,,,,,,,,,,,,,,,,,,,,,,,,,,,,,,,,,,
,,,,,,,,,,00001449182,2020-10-16_19h37.40.975,swahili,2020.2.4,Win32,60,,,,,,,,,,-0.361639824,0.013020833,1,0,0,0.66395,unsorted_card,26,0,26,0,1,,,,,,,,,,,,,,,,,,,,,,,,,,,,,,,,,,,,,,,,,,,,,,,,,,,,,,,,,,,,,,,,,,,,,,,,,,,,,,,,,
,,,,,,,,,,00001449182,2020-10-16_19h37.40.975,swahili,2020.2.4,Win32,60,,,,,,,,,,0.298682284,0.416666667,1,0,0,1.42942,study_pile,27,0,27,0,1,MANURE - SAMADI,,,,,,,,,,,,,,,,,,,,,,,,,,,,,,,,,,,,,,,,,,,,,,,,,,,,,,,,,,,,,,,,,,,,,,,,,,,,,,,,
,,,,,,,,,,00001449182,2020-10-16_19h37.40.975,swahili,2020.2.4,Win32,60,,,,,,,,,,0.010248902,0.174479167,1,0,0,0.647805,unsorted_card,28,0,28,0,1,,,,,,,,,,,,,,,,,,,,,,,,,,,,,,,,,,,,,,,,,,,,,,,,,,,,,,,,,,,,,,,,,,,,,,,,,,,,,,,,,
,,,,,,,,,,00001449182,2020-10-16_19h37.40.975,swahili,2020.2.4,Win32,60,,,,,,,,,,0.446559297,0.606770833,1,0,0,1.36433,study_pile,29,0,29,0,1,AGENT - WAKILI,,,,,,,,,,,,,,,,,,,,,,,,,,,,,,,,,,,,,,,,,,,,,,,,,,,,,,,,,,,,,,,,,,,,,,,,,,,,,,,,
,,,,,,,,,,00001449182,2020-10-16_19h37.40.975,swahili,2020.2.4,Win32,60,,,,,,,,,,-0.184480234,0.130208333,1,0,0,0.995905,unsorted_card,30,0,30,0,1,,,,,,,,,,,,,,,,,,,,,,,,,,,,,,,,,,,,,,,,,,,,,,,,,,,,,,,,,,,,,,,,,,,,,,,,,,,,,,,,,
,,,,,,,,,,00001449182,2020-10-16_19h37.40.975,swahili,2020.2.4,Win32,60,,,,,,,,,,0.386530015,0.010416667,1,0,0,1.313475,test_pile,31,0,31,0,1,BRIBE - RUSHWA,,,,,,,,,,,,,,,,,,,,,,,,,,,,,,,,,,,,,,,,,,,,,,,,,,,,,,,,,,,,,,,,,,,,,,,,,,,,,,,,
,,,,,,,,,,00001449182,2020-10-16_19h37.40.975,swahili,2020.2.4,Win32,60,,,,,,,,,,-0.418740849,-0.098958333,1,0,0,0.63045,unsorted_card,32,0,32,0,1,,,,,,,,,,,,,,,,,,,,,,,,,,,,,,,,,,,,,,,,,,,,,,,,,,,,,,,,,,,,,,,,,,,,,,,,,,,,,,,,,
,,,,,,,,,,00001449182,2020-10-16_19h37.40.975,swahili,2020.2.4,Win32,60,,,,,,,,,,0.471449488,0.567708333,1,0,0,1.31332,study_pile,33,0,33,0,1,ORPHAN - YATIMA,,,,,,,,,,,,,,,,,,,,,,,,,,,,,,,,,,,,,,,,,,,,,,,,,,,,,,,,,,,,,,,,,,,,,,,,,,,,,,,,
,,,,,,,,,,00001449182,2020-10-16_19h37.40.975,swahili,2020.2.4,Win32,60,,,,,,,,,,-0.282576867,0.075520833,1,0,0,0.930545,unsorted_card,34,0,34,0,1,,,,,,,,,,,,,,,,,,,,,,,,,,,,,,,,,,,,,,,,,,,,,,,,,,,,,,,,,,,,,,,,,,,,,,,,,,,,,,,,,
,,,,,,,,,,00001449182,2020-10-16_19h37.40.975,swahili,2020.2.4,Win32,60,,,,,,,,,,0.404099561,0.533854167,1,0,0,1.895395,study_pile,35,0,35,0,1,DIVORCE - TALAKA,,,,,,,,,,,,,,,,,,,,,,,,,,,,,,,,,,,,,,,,,,,,,,,,,,,,,,,,,,,,,,,,,,,,,,,,,,,,,,,,
,,,,,,,,,,00001449182,2020-10-16_19h37.40.975,swahili,2020.2.4,Win32,60,,,,,,,,,,-0.197657394,0.065104167,1,0,0,0.863845,unsorted_card,36,0,36,0,1,,,,,,,,,,,,,,,,,,,,,,,,,,,,,,,,,,,,,,,,,,,,,,,,,,,,,,,,,,,,,,,,,,,,,,,,,,,,,,,,,
,,,,,,,,,,00001449182,2020-10-16_19h37.40.975,swahili,2020.2.4,Win32,60,,,,,,,,,,0.465592972,0.013020833,1,0,0,2.14686,test_pile,37,0,37,0,1,BOAT - MASHUA,,,,,,,,,,,,,,,,,,,,,,,,,,,,,,,,,,,,,,,,,,,,,,,,,,,,,,,,,,,,,,,,,,,,,,,,,,,,,,,,
,,,,,,,,,,00001449182,2020-10-16_19h37.40.975,swahili,2020.2.4,Win32,60,,,,,,,,,,-0.433382138,-0.231770833,1,0,0,0.579695,unsorted_card,38,0,38,0,1,,,,,,,,,,,,,,,,,,,,,,,,,,,,,,,,,,,,,,,,,,,,,,,,,,,,,,,,,,,,,,,,,,,,,,,,,,,,,,,,,
,,,,,,,,,,00001449182,2020-10-16_19h37.40.975,swahili,2020.2.4,Win32,60,,,,,,,,,,0.471449488,0.033854167,1,0,0,1.51342,test_pile,39,0,39,0,1,TREASURE - DAFINA,,,,,,,,,,,,,,,,,,,,,,,,,,,,,,,,,,,,,,,,,,,,,,,,,,,,,,,,,,,,,,,,,,,,,,,,,,,,,,,,
,,,,,,,,,,00001449182,2020-10-16_19h37.40.975,swahili,2020.2.4,Win32,60,,,,,,,,,,,,,,,,,,,,,,,0.415812592,-0.005208333,1,0,0,1.930765,test_first,,,,,0,0,0,0,1,,,,,,,,,,,,,,,,,,,,,,,,,,,,,,,,,,,,,,,,,,,,,,,,,,,,,,,,,,,,,,,,
,,,,,,,,,,00001449182,2020-10-16_19h37.40.975,swahili,2020.2.4,Win32,60,,,,,,,,,,,,,,,,,,,,,,,,,,,,,,,,,,,,,,,return,,,,,,,,,,,1.170975,9.439695,0.512445095,0.03125,1,0,0,0.849215,yes,TREASURE,DAFINA,incorrect,0,0,0,0,1,,,,,,,,,,,,,,,,,,,,,,,,,,,,,,,,,,,,
,,,,,,,,,,00001449182,2020-10-16_19h37.40.975,swahili,2020.2.4,Win32,60,,,,,,,,,,,,,,,,,,,,,,,,,,,,,,,,,,,,,,,,,,,,,,,,,,,2.211215,0.483162518,0.197916667,1,0,0,1.39942,yes,CHEESE,JIBINI,incorrect,1,0,1,0,1,,,,,,,,,,,,,,,,,,,,,,,,,,,,,,,,,,,,
,,,,,,,,,,00001449182,2020-10-16_19h37.40.975,swahili,2020.2.4,Win32,60,,,,,,,,,,,,,,,,,,,,,,,,,,,,,,,,,,,,,,,,,,,,,,,,,,,2.394945,0.349926794,-0.184895833,1,0,0,1.01574,yes,POEM,UTENZI,incorrect,2,0,2,0,1,,,,,,,,,,,,,,,,,,,,,,,,,,,,,,,,,,,,
,,,,,,,,,,00001449182,2020-10-16_19h37.40.975,swahili,2020.2.4,Win32,60,,,,,,,,,,,,,,,,,,,,,,,,,,,,,,,,,,,,,,,,,,,,,,,,,,,3.293955,0.524158126,-0.0703125,1,0,0,0.966175,yes,BOAT,MASHUA,incorrect,3,0,3,0,1,,,,,,,,,,,,,,,,,,,,,,,,,,,,,,,,,,,,
,,,,,,,,,,00001449182,2020-10-16_19h37.40.975,swahili,2020.2.4,Win32,60,,,,,,,,,,,,,,,,,,,,,,,,,,,,,,,,,,,,,,,,,,,,,,,,,,,2.861085,0.494875549,-0.015625,1,0,0,0.99961,yes,BRIBE,RUSHWA,incorrect,4,0,4,0,1,,,,,,,,,,,,,,,,,,,,,,,,,,,,,,,,,,,,
,,,,,,,,,,00001449182,2020-10-16_19h37.40.975,swahili,2020.2.4,Win32,60,,,,,,,,,,,,,,,,,,,,,,,,,,,,,,,,,,,,,,,,,,,,,,,,,,,2.89436,0.53147877,-0.1328125,1,0,0,0.982345,yes,TAILOR,MSHONI,incorrect,5,0,5,0,1,,,,,,,,,,,,,,,,,,,,,,,,,,,,,,,,,,,,
,,,,,,,,,,00001449182,2020-10-16_19h37.40.975,swahili,2020.2.4,Win32,60,,,,,,,,,,,,,,,,,,,,,,,,,,,,,,,,,,,,,,,,0,0,0,0,1,,,,,,,,,,,,,,,,,,,,,,,,,,,,,,,,,,,,,,,,,,,,,,,,,,,,,,,,,,
,,,,,,,,,,00001449182,2020-10-16_19h37.40.975,swahili,2020.2.4,Win32,60,,,,,,,,,,,,,,,,,,,,,,GRAVE - KABURI,,,,,,,,return,0.96724,return,5.957345,0,0,0,0,1,,,,,,,,,,,,,,,,,,,,,,,,,,,,,,,,,,,,,,,,,,,,,,,,,,,,,,,,,,,,,,,,
,,,,,,,,,,00001449182,2020-10-16_19h37.40.975,swahili,2020.2.4,Win32,60,,,,,,,,,,,,,,,,,,,,,,YEAST - HAMIRA,,,,,,,,,,return,0.14053,1,0,1,0,1,,,,,,,,,,,,,,,,,,,,,,,,,,,,,,,,,,,,,,,,,,,,,,,,,,,,,,,,,,,,,,,,
,,,,,,,,,,00001449182,2020-10-16_19h37.40.975,swahili,2020.2.4,Win32,60,,,,,,,,,,,,,,,,,,,,,,GRAPES - ZABIBU,,,,,,,,,,return,0.081235,2,0,2,0,1,,,,,,,,,,,,,,,,,,,,,,,,,,,,,,,,,,,,,,,,,,,,,,,,,,,,,,,,,,,,,,,,
,,,,,,,,,,00001449182,2020-10-16_19h37.40.975,swahili,2020.2.4,Win32,60,,,,,,,,,,,,,,,,,,,,,,BLAME - LAWAMA,,,,,,,,,,return,0.112745,3,0,3,0,1,,,,,,,,,,,,,,,,,,,,,,,,,,,,,,,,,,,,,,,,,,,,,,,,,,,,,,,,,,,,,,,,
,,,,,,,,,,00001449182,2020-10-16_19h37.40.975,swahili,2020.2.4,Win32,60,,,,,,,,,,,,,,,,,,,,,,PARROT - KASUKU,,,,,,,,,,return,0.10162,4,0,4,0,1,,,,,,,,,,,,,,,,,,,,,,,,,,,,,,,,,,,,,,,,,,,,,,,,,,,,,,,,,,,,,,,,
,,,,,,,,,,00001449182,2020-10-16_19h37.40.975,swahili,2020.2.4,Win32,60,,,,,,,,,,,,,,,,,,,,,,CORN - NAFAKA,,,,,,,,,,return,0.085425,5,0,5,0,1,,,,,,,,,,,,,,,,,,,,,,,,,,,,,,,,,,,,,,,,,,,,,,,,,,,,,,,,,,,,,,,,
,,,,,,,,,,00001449182,2020-10-16_19h37.40.975,swahili,2020.2.4,Win32,60,,,,,,,,,,,,,,,,,,,,,,BULL - FAHILI,,,,,,,,,,return,0.085935,6,0,6,0,1,,,,,,,,,,,,,,,,,,,,,,,,,,,,,,,,,,,,,,,,,,,,,,,,,,,,,,,,,,,,,,,,
,,,,,,,,,,00001449182,2020-10-16_19h37.40.975,swahili,2020.2.4,Win32,60,,,,,,,,,,,,,,,,,,,,,,PLATE - SAHANI,,,,,,,,,,return,0.093355,7,0,7,0,1,,,,,,,,,,,,,,,,,,,,,,,,,,,,,,,,,,,,,,,,,,,,,,,,,,,,,,,,,,,,,,,,
,,,,,,,,,,00001449182,2020-10-16_19h37.40.975,swahili,2020.2.4,Win32,60,,,,,,,,,,,,,,,,,,,,,,MERCHANT - TAJIRI,,,,,,,,,,return,0.10281,8,0,8,0,1,,,,,,,,,,,,,,,,,,,,,,,,,,,,,,,,,,,,,,,,,,,,,,,,,,,,,,,,,,,,,,,,
,,,,,,,,,,00001449182,2020-10-16_19h37.40.975,swahili,2020.2.4,Win32,60,,,,,,,,,,,,,,,,,,,,,,AGENT - WAKILI,,,,,,,,,,return,0.091975,9,0,9,0,1,,,,,,,,,,,,,,,,,,,,,,,,,,,,,,,,,,,,,,,,,,,,,,,,,,,,,,,,,,,,,,,,
,,,,,,,,,,00001449182,2020-10-16_19h37.40.975,swahili,2020.2.4,Win32,60,,,,,,,,,,,,,,,,,,,,,,DIVORCE - TALAKA,,,,,,,,,,return,0.10986,10,0,10,0,1,,,,,,,,,,,,,,,,,,,,,,,,,,,,,,,,,,,,,,,,,,,,,,,,,,,,,,,,,,,,,,,,
,,,,,,,,,,00001449182,2020-10-16_19h37.40.975,swahili,2020.2.4,Win32,60,,,,,,,,,,,,,,,,,,,,,,MANURE - SAMADI,,,,,,,,,,return,0.118715,11,0,11,0,1,,,,,,,,,,,,,,,,,,,,,,,,,,,,,,,,,,,,,,,,,,,,,,,,,,,,,,,,,,,,,,,,
,,,,,,,,,,00001449182,2020-10-16_19h37.40.975,swahili,2020.2.4,Win32,60,,,,,,,,,,,,,,,,,,,,,,ORPHAN - YATIMA,,,,,,,,,,return,0.101935,12,0,12,0,1,,,,,,,,,,,,,,,,,,,,,,,,,,,,,,,,,,,,,,,,,,,,,,,,,,,,,,,,,,,,,,,,
,,,,,,,,,,00001449182,2020-10-16_19h37.40.975,swahili,2020.2.4,Win32,60,,,,,,,,,,,,,,,,,,,,,,OATH - YAMINI,,,,,,,,,,return,0.106385,13,0,13,0,1,,,,,,,,,,,,,,,,,,,,,,,,,,,,,,,,,,,,,,,,,,,,,,,,,,,,,,,,,,,,,,,,
,,,,,,,,,,00001449182,2020-10-16_19h37.40.975,swahili,2020.2.4,Win32,60,,,,,,,,,,,,,,,,,,,,,,,,,,,,,,,,,,,,,,,,1,0,1,0,1,,,,,,,,,,,,,,,,,,,,,,,,,,,,,,,,,,,,,,,,,,,,,,,,,,,,,,,,,,
,,,,,,,,,,00001449182,2020-10-16_19h37.40.975,swahili,2020.2.4,Win32,60,,,,,,,,,,,,,,,,,,,,,,,,,,,,,,,,,,,,,,,,,,,,,3,0,3,0,1,,,,,,,,,,,,,,,,,,,,,,,,,,,,,,,,,,,,,,,,,,,,,,,,,,,,,
,,,,,,,,,,00001449182,2020-10-16_19h37.40.975,swahili,2020.2.4,Win32,60,,,,,,,,,,-0.188872621,-0.057291667,1,0,0,1.25807,unsorted_card,0,0,0,0,1,,,,,,,,,,,,,,,,,,,,,,,,,,,,,,,,,,,,,,,,,,,,,,,,,,,,,,,,,,,,,,,,,,,,,,,,,,,,,,,,,
,,,,,,,,,,00001449182,2020-10-16_19h37.40.975,swahili,2020.2.4,Win32,60,,,,,,,,,,0.386530015,0.559895833,1,0,0,2.79517,study_pile,1,0,1,0,1,MERCHANT - TAJIRI,,,,,,,,,,,,,,,,,,,,,,,,,,,,,,,,,,,,,,,,,,,,,,,,,,,,,,,,,,,,,,,,,,,,,,,,,,,,,,,,
,,,,,,,,,,00001449182,2020-10-16_19h37.40.975,swahili,2020.2.4,Win32,60,,,,,,,,,,-0.464128843,-0.078125,1,0,0,0.66361,unsorted_card,2,0,2,0,1,,,,,,,,,,,,,,,,,,,,,,,,,,,,,,,,,,,,,,,,,,,,,,,,,,,,,,,,,,,,,,,,,,,,,,,,,,,,,,,,,
,,,,,,,,,,00001449182,2020-10-16_19h37.40.975,swahili,2020.2.4,Win32,60,,,,,,,,,,0.521229868,-0.119791667,1,0,0,18.56308,test_pile,3,0,3,0,1,PARROT - KASUKU,,,,,,,,,,,,,,,,,,,,,,,,,,,,,,,,,,,,,,,,,,,,,,,,,,,,,,,,,,,,,,,,,,,,,,,,,,,,,,,,
,,,,,,,,,,00001449182,2020-10-16_19h37.40.975,swahili,2020.2.4,Win32,60,,,,,,,,,,-0.27818448,-0.200520833,1,0,0,0.745735,unsorted_card,4,0,4,0,1,,,,,,,,,,,,,,,,,,,,,,,,,,,,,,,,,,,,,,,,,,,,,,,,,,,,,,,,,,,,,,,,,,,,,,,,,,,,,,,,,
,,,,,,,,,,00001449182,2020-10-16_19h37.40.975,swahili,2020.2.4,Win32,60,,,,,,,,,,0.448023426,0.026041667,1,0,0,2.245825,test_pile,5,0,5,0,1,BULL - FAHILI,,,,,,,,,,,,,,,,,,,,,,,,,,,,,,,,,,,,,,,,,,,,,,,,,,,,,,,,,,,,,,,,,,,,,,,,,,,,,,,,
,,,,,,,,,,00001449182,2020-10-16_19h37.40.975,swahili,2020.2.4,Win32,60,,,,,,,,,,-0.16398243,0.140625,1,0,0,10.953135,unsorted_card,6,0,6,0,1,,,,,,,,,,,,,,,,,,,,,,,,,,,,,,,,,,,,,,,,,,,,,,,,,,,,,,,,,,,,,,,,,,,,,,,,,,,,,,,,,
,,,,,,,,,,00001449182,2020-10-16_19h37.40.975,swahili,2020.2.4,Win32,60,,,,,,,,,,0.496339678,0.4375,1,0,0,1.3427,study_pile,7,0,7,0,1,PLATE - SAHANI,,,,,,,,,,,,,,,,,,,,,,,,,,,,,,,,,,,,,,,,,,,,,,,,,,,,,,,,,,,,,,,,,,,,,,,,,,,,,,,,
,,,,,,,,,,00001449182,2020-10-16_19h37.40.975,swahili,2020.2.4,Win32,60,,,,,,,,,,-0.276720351,0.109375,1,0,0,1.01322,unsorted_card,8,0,8,0,1,,,,,,,,,,,,,,,,,,,,,,,,,,,,,,,,,,,,,,,,,,,,,,,,,,,,,,,,,,,,,,,,,,,,,,,,,,,,,,,,,
,,,,,,,,,,00001449182,2020-10-16_19h37.40.975,swahili,2020.2.4,Win32,60,,,,,,,,,,0.528550512,0.497395833,1,0,0,2.180255,study_pile,9,0,9,0,1,YEAST - HAMIRA,,,,,,,,,,,,,,,,,,,,,,,,,,,,,,,,,,,,,,,,,,,,,,,,,,,,,,,,,,,,,,,,,,,,,,,,,,,,,,,,
,,,,,,,,,,00001449182,2020-10-16_19h37.40.975,swahili,2020.2.4,Win32,60,,,,,,,,,,0.035139092,0.231770833,1,0,0,0.663555,unsorted_card,10,0,10,0,1,,,,,,,,,,,,,,,,,,,,,,,,,,,,,,,,,,,,,,,,,,,,,,,,,,,,,,,,,,,,,,,,,,,,,,,,,,,,,,,,,
,,,,,,,,,,00001449182,2020-10-16_19h37.40.975,swahili,2020.2.4,Win32,60,,,,,,,,,,0.467057101,0.541666667,1,0,0,1.03026,study_pile,11,0,11,0,1,BLAME - LAWAMA,,,,,,,,,,,,,,,,,,,,,,,,,,,,,,,,,,,,,,,,,,,,,,,,,,,,,,,,,,,,,,,,,,,,,,,,,,,,,,,,
,,,,,,,,,,00001449182,2020-10-16_19h37.40.975,swahili,2020.2.4,Win32,60,,,,,,,,,,-0.308931186,0.088541667,1,0,0,0.998055,unsorted_card,12,0,12,0,1,,,,,,,,,,,,,,,,,,,,,,,,,,,,,,,,,,,,,,,,,,,,,,,,,,,,,,,,,,,,,,,,,,,,,,,,,,,,,,,,,
,,,,,,,,,,00001449182,2020-10-16_19h37.40.975,swahili,2020.2.4,Win32,60,,,,,,,,,,0.459736457,0.473958333,1,0,0,0.980565,study_pile,13,0,13,0,1,OATH - YAMINI,,,,,,,,,,,,,,,,,,,,,,,,,,,,,,,,,,,,,,,,,,,,,,,,,,,,,,,,,,,,,,,,,,,,,,,,,,,,,,,,
,,,,,,,,,,00001449182,2020-10-16_19h37.40.975,swahili,2020.2.4,Win32,60,,,,,,,,,,-0.286969253,0.0390625,1,0,0,0.96341,unsorted_card,14,0,14,0,1,,,,,,,,,,,,,,,,,,,,,,,,,,,,,,,,,,,,,,,,,,,,,,,,,,,,,,,,,,,,,,,,,,,,,,,,,,,,,,,,,
,,,,,,,,,,00001449182,2020-10-16_19h37.40.975,swahili,2020.2.4,Win32,60,,,,,,,,,,0.540263543,0.619791667,1,0,0,1.013715,study_pile,15,0,15,0,1,CORN - NAFAKA,,,,,,,,,,,,,,,,,,,,,,,,,,,,,,,,,,,,,,,,,,,,,,,,,,,,,,,,,,,,,,,,,,,,,,,,,,,,,,,,
,,,,,,,,,,00001449182,2020-10-16_19h37.40.975,swahili,2020.2.4,Win32,60,,,,,,,,,,-0.222547584,0.072916667,1,0,0,0.863845,unsorted_card,16,0,16,0,1,,,,,,,,,,,,,,,,,,,,,,,,,,,,,,,,,,,,,,,,,,,,,,,,,,,,,,,,,,,,,,,,,,,,,,,,,,,,,,,,,
,,,,,,,,,,00001449182,2020-10-16_19h37.40.975,swahili,2020.2.4,Win32,60,,,,,,,,,,0.519765739,0.096354167,1,0,0,1.013495,test_pile,17,0,17,0,1,POEM - UTENZI,,,,,,,,,,,,,,,,,,,,,,,,,,,,,,,,,,,,,,,,,,,,,,,,,,,,,,,,,,,,,,,,,,,,,,,,,,,,,,,,
,,,,,,,,,,00001449182,2020-10-16_19h37.40.975,swahili,2020.2.4,Win32,60,,,,,,,,,,-0.440702782,-0.1484375,1,0,0,0.63012,unsorted_card,18,0,18,0,1,,,,,,,,,,,,,,,,,,,,,,,,,,,,,,,,,,,,,,,,,,,,,,,,,,,,,,,,,,,,,,,,,,,,,,,,,,,,,,,,,
,,,,,,,,,,00001449182,2020-10-16_19h37.40.975,swahili,2020.2.4,Win32,60,,,,,,,,,,0.458272328,0.0546875,1,0,0,1.19713,test_pile,19,0,19,0,1,TAILOR - MSHONI,,,,,,,,,,,,,,,,,,,,,,,,,,,,,,,,,,,,,,,,,,,,,,,,,,,,,,,,,,,,,,,,,,,,,,,,,,,,,,,,
,,,,,,,,,,00001449182,2020-10-16_19h37.40.975,swahili,2020.2.4,Win32,60,,,,,,,,,,-0.437774524,-0.1484375,1,0,0,0.59727,unsorted_card,20,0,20,0,1,,,,,,,,,,,,,,,,,,,,,,,,,,,,,,,,,,,,,,,,,,,,,,,,,,,,,,,,,,,,,,,,,,,,,,,,,,,,,,,,,
,,,,,,,,,,00001449182,2020-10-16_19h37.40.975,swahili,2020.2.4,Win32,60,,,,,,,,,,0.469985359,-0.028645833,1,0,0,0.92753,test_pile,21,0,21,0,1,CHEESE - JIBINI,,,,,,,,,,,,,,,,,,,,,,,,,,,,,,,,,,,,,,,,,,,,,,,,,,,,,,,,,,,,,,,,,,,,,,,,,,,,,,,,
,,,,,,,,,,00001449182,2020-10-16_19h37.40.975,swahili,2020.2.4,Win32,60,,,,,,,,,,-0.377745242,0.044270833,1,0,0,0.630265,unsorted_card,22,0,22,0,1,,,,,,,,,,,,,,,,,,,,,,,,,,,,,,,,,,,,,,,,,,,,,,,,,,,,,,,,,,,,,,,,,,,,,,,,,,,,,,,,,
,,,,,,,,,,00001449182,2020-10-16_19h37.40.975,swahili,2020.2.4,Win32,60,,,,,,,,,,0.383601757,0.515625,1,0,0,1.063315,study_pile,23,0,23,0,1,GRAPES - ZABIBU,,,,,,,,,,,,,,,,,,,,,,,,,,,,,,,,,,,,,,,,,,,,,,,,,,,,,,,,,,,,,,,,,,,,,,,,,,,,,,,,
,,,,,,,,,,00001449182,2020-10-16_19h37.40.975,swahili,2020.2.4,Win32,60,,,,,,,,,,-0.204978038,0.03125,1,0,0,0.5643,unsorted_card,24,0,24,0,1,,,,,,,,,,,,,,,,,,,,,,,,,,,,,,,,,,,,,,,,,,,,,,,,,,,,,,,,,,,,,,,,,,,,,,,,,,,,,,,,,
,,,,,,,,,,00001449182,2020-10-16_19h37.40.975,swahili,2020.2.4,Win32,60,,,,,,,,,,0.387994143,0.375,1,0,0,1.463395,study_pile,25,0,25,0,1,GRAVE - KABURI,,,,,,,,,,,,,,,,,,,,,,,,,,,,,,,,,,,,,,,,,,,,,,,,,,,,,,,,,,,,,,,,,,,,,,,,,,,,,,,,
,,,,,,,,,,00001449182,2020-10-16_19h37.40.975,swahili,2020.2.4,Win32,60,,,,,,,,,,-0.335285505,-0.0546875,1,0,0,0.66294,unsorted_card,26,0,26,0,1,,,,,,,,,,,,,,,,,,,,,,,,,,,,,,,,,,,,,,,,,,,,,,,,,,,,,,,,,,,,,,,,,,,,,,,,,,,,,,,,,
,,,,,,,,,,00001449182,2020-10-16_19h37.40.975,swahili,2020.2.4,Win32,60,,,,,,,,,,0.486090776,0.619791667,1,0,0,0.980735,study_pile,27,0,27,0,1,MANURE - SAMADI,,,,,,,,,,,,,,,,,,,,,,,,,,,,,,,,,,,,,,,,,,,,,,,,,,,,,,,,,,,,,,,,,,,,,,,,,,,,,,,,
,,,,,,,,,,00001449182,2020-10-16_19h37.40.975,swahili,2020.2.4,Win32,60,,,,,,,,,,-0.207906296,0.028645833,1,0,0,0.8294,unsorted_card,28,0,28,0,1,,,,,,,,,,,,,,,,,,,,,,,,,,,,,,,,,,,,,,,,,,,,,,,,,,,,,,,,,,,,,,,,,,,,,,,,,,,,,,,,,
,,,,,,,,,,00001449182,2020-10-16_19h37.40.975,swahili,2020.2.4,Win32,60,,,,,,,,,,0.298682284,0.453125,1,0,0,1.080655,study_pile,29,0,29,0,1,AGENT - WAKILI,,,,,,,,,,,,,,,,,,,,,,,,,,,,,,,,,,,,,,,,,,,,,,,,,,,,,,,,,,,,,,,,,,,,,,,,,,,,,,,,
,,,,,,,,,,00001449182,2020-10-16_19h37.40.975,swahili,2020.2.4,Win32,60,,,,,,,,,,-0.200585652,-0.0078125,1,0,0,0.66406,unsorted_card,30,0,30,0,1,,,,,,,,,,,,,,,,,,,,,,,,,,,,,,,,,,,,,,,,,,,,,,,,,,,,,,,,,,,,,,,,,,,,,,,,,,,,,,,,,
,,,,,,,,,,00001449182,2020-10-16_19h37.40.975,swahili,2020.2.4,Win32,60,,,,,,,,,,0.387994143,0.057291667,1,0,0,1.11347,test_pile,31,0,31,0,1,BRIBE - RUSHWA,,,,,,,,,,,,,,,,,,,,,,,,,,,,,,,,,,,,,,,,,,,,,,,,,,,,,,,,,,,,,,,,,,,,,,,,,,,,,,,,
,,,,,,,,,,00001449182,2020-10-16_19h37.40.975,swahili,2020.2.4,Win32,60,,,,,,,,,,-0.361639824,-0.052083333,1,0,0,0.61374,unsorted_card,32,0,32,0,1,,,,,,,,,,,,,,,,,,,,,,,,,,,,,,,,,,,,,,,,,,,,,,,,,,,,,,,,,,,,,,,,,,,,,,,,,,,,,,,,,
,,,,,,,,,,00001449182,2020-10-16_19h37.40.975,swahili,2020.2.4,Win32,60,,,,,,,,,,0.448023426,0.440104167,1,0,0,1.09727,study_pile,33,0,33,0,1,ORPHAN - YATIMA,,,,,,,,,,,,,,,,,,,,,,,,,,,,,,,,,,,,,,,,,,,,,,,,,,,,,,,,,,,,,,,,,,,,,,,,,,,,,,,,
,,,,,,,,,,00001449182,2020-10-16_19h37.40.975,swahili,2020.2.4,Win32,60,,,,,,,,,,-0.225475842,-0.106770833,1,0,0,0.64683,unsorted_card,34,0,34,0,1,,,,,,,,,,,,,,,,,,,,,,,,,,,,,,,,,,,,,,,,,,,,,,,,,,,,,,,,,,,,,,,,,,,,,,,,,,,,,,,,,
,,,,,,,,,,00001449182,2020-10-16_19h37.40.975,swahili,2020.2.4,Win32,60,,,,,,,,,,0.515373353,0.533854167,1,0,0,2.11279,study_pile,35,0,35,0,1,DIVORCE - TALAKA,,,,,,,,,,,,,,,,,,,,,,,,,,,,,,,,,,,,,,,,,,,,,,,,,,,,,,,,,,,,,,,,,,,,,,,,,,,,,,,,
,,,,,,,,,,00001449182,2020-10-16_19h37.40.975,swahili,2020.2.4,Win32,60,,,,,,,,,,-0.213762811,0.125,1,0,0,0.56367,unsorted_card,36,0,36,0,1,,,,,,,,,,,,,,,,,,,,,,,,,,,,,,,,,,,,,,,,,,,,,,,,,,,,,,,,,,,,,,,,,,,,,,,,,,,,,,,,,
,,,,,,,,,,00001449182,2020-10-16_19h37.40.975,swahili,2020.2.4,Win32,60,,,,,,,,,,0.37920937,-0.096354167,1,0,0,1.030395,test_pile,37,0,37,0,1,BOAT - MASHUA,,,,,,,,,,,,,,,,,,,,,,,,,,,,,,,,,,,,,,,,,,,,,,,,,,,,,,,,,,,,,,,,,,,,,,,,,,,,,,,,
,,,,,,,,,,00001449182,2020-10-16_19h37.40.975,swahili,2020.2.4,Win32,60,,,,,,,,,,-0.399707174,-0.177083333,1,0,0,0.66345,unsorted_card,38,0,38,0,1,,,,,,,,,,,,,,,,,,,,,,,,,,,,,,,,,,,,,,,,,,,,,,,,,,,,,,,,,,,,,,,,,,,,,,,,,,,,,,,,,
,,,,,,,,,,00001449182,2020-10-16_19h37.40.975,swahili,2020.2.4,Win32,60,,,,,,,,,,0.537335286,-0.065104167,1,0,0,1.03439,test_pile,39,0,39,0,1,TREASURE - DAFINA,,,,,,,,,,,,,,,,,,,,,,,,,,,,,,,,,,,,,,,,,,,,,,,,,,,,,,,,,,,,,,,,,,,,,,,,,,,,,,,,
,,,,,,,,,,00001449182,2020-10-16_19h37.40.975,swahili,2020.2.4,Win32,60,,,,,,,,,,,,,,,,,,,,,,,0.512445095,-0.098958333,1,0,0,1.626595,test_first,,,,,0,0,0,0,1,,,,,,,,,,,,,,,,,,,,,,,,,,,,,,,,,,,,,,,,,,,,,,,,,,,,,,,,,,,,,,,,
,,,,,,,,,,00001449182,2020-10-16_19h37.40.975,swahili,2020.2.4,Win32,60,,,,,,,,,,,,,,,,,,,,,,,,,,,,,,,,,,,,,,,return,,,,,,,,,,,0.910515,2.46285,0.512445095,-0.098958333,1,0,0,0.949555,yes,CHEESE,JIBINI,incorrect,0,0,0,0,1,,,,,,,,,,,,,,,,,,,,,,,,,,,,,,,,,,,,
,,,,,,,,,,00001449182,2020-10-16_19h37.40.975,swahili,2020.2.4,Win32,60,,,,,,,,,,,,,,,,,,,,,,,,,,,,,,,,,,,,,,,,,,,,,,,,,,,4.974935,0.512445095,-0.098958333,1,0,0,1.04964,yes,BULL,FAHILI,incorrect,1,0,1,0,1,,,,,,,,,,,,,,,,,,,,,,,,,,,,,,,,,,,,
,,,,,,,,,,00001449182,2020-10-16_19h37.40.975,swahili,2020.2.4,Win32,60,,,,,,,,,,,,,,,,,,,,,,,,,,,,,,,,,,,,,,,,,,,,,,,,,,,2.76016,0.510980966,-0.080729167,1,0,0,2.414955,yes,POEM,UTENZI,incorrect,2,0,2,0,1,,,,,,,,,,,,,,,,,,,,,,,,,,,,,,,,,,,,
,,,,,,,,,,00001449182,2020-10-16_19h37.40.975,swahili,2020.2.4,Win32,60,,,,,,,,,,,,,,,,,,,,,,,,,,,,,,,,,,,,,,,,,,,,,,,,,,,2.293965,0.510980966,-0.080729167,1,0,0,1.365175,yes,TREASURE,DAFINA,incorrect,3,0,3,0,1,,,,,,,,,,,,,,,,,,,,,,,,,,,,,,,,,,,,
,,,,,,,,,,00001449182,2020-10-16_19h37.40.975,swahili,2020.2.4,Win32,60,,,,,,,,,,,,,,,,,,,,,,,,,,,,,,,,,,,,,,,,,,,,,,,,,,,7.98895,0.510980966,-0.080729167,1,0,0,1.149655,yes,TAILOR,MSHONI,incorrect,4,0,4,0,1,,,,,,,,,,,,,,,,,,,,,,,,,,,,,,,,,,,,
,,,,,,,,,,00001449182,2020-10-16_19h37.40.975,swahili,2020.2.4,Win32,60,,,,,,,,,,,,,,,,,,,,,,,,,,,,,,,,,,,,,,,,,,,,,,,,,,,3.143055,0.510980966,-0.080729167,1,0,0,1.01651,yes,BRIBE,RUSHWA,incorrect,5,0,5,0,1,,,,,,,,,,,,,,,,,,,,,,,,,,,,,,,,,,,,
,,,,,,,,,,00001449182,2020-10-16_19h37.40.975,swahili,2020.2.4,Win32,60,,,,,,,,,,,,,,,,,,,,,,,,,,,,,,,,,,,,,,,,,,,,,,,,,,,2.5941,0.510980966,-0.080729167,1,0,0,1.26605,yes,BOAT,MASHUA,incorrect,6,0,6,0,1,,,,,,,,,,,,,,,,,,,,,,,,,,,,,,,,,,,,
,,,,,,,,,,00001449182,2020-10-16_19h37.40.975,swahili,2020.2.4,Win32,60,,,,,,,,,,,,,,,,,,,,,,,,,,,,,,,,,,,,,,,,,,,,,,,,,,,16.38025,0.510980966,-0.080729167,1,0,0,0.83332,yes,PARROT,KARAKE,incorrect,7,0,7,0,1,,,,,,,,,,,,,,,,,,,,,,,,,,,,,,,,,,,,
,,,,,,,,,,00001449182,2020-10-16_19h37.40.975,swahili,2020.2.4,Win32,60,,,,,,,,,,,,,,,,,,,,,,,,,,,,,,,,,,,,,,,,0,0,0,0,1,,,,,,,,,,,,,,,,,,,,,,,,,,,,,,,,,,,,,,,,,,,,,,,,,,,,,,,,,,
,,,,,,,,,,00001449182,2020-10-16_19h37.40.975,swahili,2020.2.4,Win32,60,,,,,,,,,,,,,,,,,,,,,,AGENT - WAKILI,,,,,,,,return,0.66156,return,5.44884,0,0,0,0,1,,,,,,,,,,,,,,,,,,,,,,,,,,,,,,,,,,,,,,,,,,,,,,,,,,,,,,,,,,,,,,,,
,,,,,,,,,,00001449182,2020-10-16_19h37.40.975,swahili,2020.2.4,Win32,60,,,,,,,,,,,,,,,,,,,,,,MERCHANT - TAJIRI,,,,,,,,,,return,0.11948,1,0,1,0,1,,,,,,,,,,,,,,,,,,,,,,,,,,,,,,,,,,,,,,,,,,,,,,,,,,,,,,,,,,,,,,,,
,,,,,,,,,,00001449182,2020-10-16_19h37.40.975,swahili,2020.2.4,Win32,60,,,,,,,,,,,,,,,,,,,,,,GRAVE - KABURI,,,,,,,,,,return,0.107705,2,0,2,0,1,,,,,,,,,,,,,,,,,,,,,,,,,,,,,,,,,,,,,,,,,,,,,,,,,,,,,,,,,,,,,,,,
,,,,,,,,,,00001449182,2020-10-16_19h37.40.975,swahili,2020.2.4,Win32,60,,,,,,,,,,,,,,,,,,,,,,GRAPES - ZABIBU,,,,,,,,,,return,0.10912,3,0,3,0,1,,,,,,,,,,,,,,,,,,,,,,,,,,,,,,,,,,,,,,,,,,,,,,,,,,,,,,,,,,,,,,,,
,,,,,,,,,,00001449182,2020-10-16_19h37.40.975,swahili,2020.2.4,Win32,60,,,,,,,,,,,,,,,,,,,,,,YEAST - HAMIRA,,,,,,,,,,return,0.11714,4,0,4,0,1,,,,,,,,,,,,,,,,,,,,,,,,,,,,,,,,,,,,,,,,,,,,,,,,,,,,,,,,,,,,,,,,
,,,,,,,,,,00001449182,2020-10-16_19h37.40.975,swahili,2020.2.4,Win32,60,,,,,,,,,,,,,,,,,,,,,,ORPHAN - YATIMA,,,,,,,,,,return,0.11628,5,0,5,0,1,,,,,,,,,,,,,,,,,,,,,,,,,,,,,,,,,,,,,,,,,,,,,,,,,,,,,,,,,,,,,,,,
,,,,,,,,,,00001449182,2020-10-16_19h37.40.975,swahili,2020.2.4,Win32,60,,,,,,,,,,,,,,,,,,,,,,CORN - NAFAKA,,,,,,,,,,return,0.11443,6,0,6,0,1,,,,,,,,,,,,,,,,,,,,,,,,,,,,,,,,,,,,,,,,,,,,,,,,,,,,,,,,,,,,,,,,
,,,,,,,,,,00001449182,2020-10-16_19h37.40.975,swahili,2020.2.4,Win32,60,,,,,,,,,,,,,,,,,,,,,,DIVORCE - TALAKA,,,,,,,,,,return,0.10117,7,0,7,0,1,,,,,,,,,,,,,,,,,,,,,,,,,,,,,,,,,,,,,,,,,,,,,,,,,,,,,,,,,,,,,,,,
,,,,,,,,,,00001449182,2020-10-16_19h37.40.975,swahili,2020.2.4,Win32,60,,,,,,,,,,,,,,,,,,,,,,BLAME - LAWAMA,,,,,,,,,,return,0.238345,8,0,8,0,1,,,,,,,,,,,,,,,,,,,,,,,,,,,,,,,,,,,,,,,,,,,,,,,,,,,,,,,,,,,,,,,,
,,,,,,,,,,00001449182,2020-10-16_19h37.40.975,swahili,2020.2.4,Win32,60,,,,,,,,,,,,,,,,,,,,,,PLATE - SAHANI,,,,,,,,,,return,0.22222,9,0,9,0,1,,,,,,,,,,,,,,,,,,,,,,,,,,,,,,,,,,,,,,,,,,,,,,,,,,,,,,,,,,,,,,,,
,,,,,,,,,,00001449182,2020-10-16_19h37.40.975,swahili,2020.2.4,Win32,60,,,,,,,,,,,,,,,,,,,,,,MANURE - SAMADI,,,,,,,,,,return,0.24854,10,0,10,0,1,,,,,,,,,,,,,,,,,,,,,,,,,,,,,,,,,,,,,,,,,,,,,,,,,,,,,,,,,,,,,,,,
,,,,,,,,,,00001449182,2020-10-16_19h37.40.975,swahili,2020.2.4,Win32,60,,,,,,,,,,,,,,,,,,,,,,OATH - YAMINI,,,,,,,,,,return,0.26459,11,0,11,0,1,,,,,,,,,,,,,,,,,,,,,,,,,,,,,,,,,,,,,,,,,,,,,,,,,,,,,,,,,,,,,,,,
,,,,,,,,,,00001449182,2020-10-16_19h37.40.975,swahili,2020.2.4,Win32,60,,,,,,,,,,,,,,,,,,,,,,,,,,,,,,,,,,,,,,,,1,0,1,0,1,,,,,,,,,,,,,,,,,,,,,,,,,,,,,,,,,,,,,,,,,,,,,,,,,,,,,,,,,,
,,,,,,,,,,00001449182,2020-10-16_19h37.40.975,swahili,2020.2.4,Win32,60,,,,,,,,,,,,,,,,,,,,,,,,,,,,,,,,,,,,,,,,,,,,,4,0,4,0,1,,,,,,,,,,,,,,,,,,,,,,,,,,,,,,,,,,,,,,,,,,,,,,,,,,,,,
,,,,,,,,,,00001449182,2020-10-16_19h37.40.975,swahili,2020.2.4,Win32,60,,,,,,,,,,-0.183016105,-0.1015625,1,0,0,1.177645,unsorted_card,0,0,0,0,1,,,,,,,,,,,,,,,,,,,,,,,,,,,,,,,,,,,,,,,,,,,,,,,,,,,,,,,,,,,,,,,,,,,,,,,,,,,,,,,,,
,,,,,,,,,,00001449182,2020-10-16_19h37.40.975,swahili,2020.2.4,Win32,60,,,,,,,,,,0.376281113,0.536458333,1,0,0,1.657945,study_pile,1,0,1,0,1,MERCHANT - TAJIRI,,,,,,,,,,,,,,,,,,,,,,,,,,,,,,,,,,,,,,,,,,,,,,,,,,,,,,,,,,,,,,,,,,,,,,,,,,,,,,,,
,,,,,,,,,,00001449182,2020-10-16_19h37.40.975,swahili,2020.2.4,Win32,60,,,,,,,,,,-0.180087848,0.028645833,1,0,0,1.046455,unsorted_card,2,0,2,0,1,,,,,,,,,,,,,,,,,,,,,,,,,,,,,,,,,,,,,,,,,,,,,,,,,,,,,,,,,,,,,,,,,,,,,,,,,,,,,,,,,
,,,,,,,,,,00001449182,2020-10-16_19h37.40.975,swahili,2020.2.4,Win32,60,,,,,,,,,,0.557833089,0,1,0,0,1.412675,test_pile,3,0,3,0,1,PARROT - KASUKU,,,,,,,,,,,,,,,,,,,,,,,,,,,,,,,,,,,,,,,,,,,,,,,,,,,,,,,,,,,,,,,,,,,,,,,,,,,,,,,,
,,,,,,,,,,00001449182,2020-10-16_19h37.40.975,swahili,2020.2.4,Win32,60,,,,,,,,,,-0.386530015,0.005208333,1,0,0,1.02934,unsorted_card,4,0,4,0,1,,,,,,,,,,,,,,,,,,,,,,,,,,,,,,,,,,,,,,,,,,,,,,,,,,,,,,,,,,,,,,,,,,,,,,,,,,,,,,,,,
,,,,,,,,,,00001449182,2020-10-16_19h37.40.975,swahili,2020.2.4,Win32,60,,,,,,,,,,0.385065886,-0.0078125,1,0,0,1.11252,test_pile,5,0,5,0,1,BULL - FAHILI,,,,,,,,,,,,,,,,,,,,,,,,,,,,,,,,,,,,,,,,,,,,,,,,,,,,,,,,,,,,,,,,,,,,,,,,,,,,,,,,
,,,,,,,,,,00001449182,2020-10-16_19h37.40.975,swahili,2020.2.4,Win32,60,,,,,,,,,,-0.401171303,-0.033854167,1,0,0,0.626625,unsorted_card,6,0,6,0,1,,,,,,,,,,,,,,,,,,,,,,,,,,,,,,,,,,,,,,,,,,,,,,,,,,,,,,,,,,,,,,,,,,,,,,,,,,,,,,,,,
,,,,,,,,,,00001449182,2020-10-16_19h37.40.975,swahili,2020.2.4,Win32,60,,,,,,,,,,0.469985359,0.6640625,1,0,0,1.429785,study_pile,7,0,7,0,1,PLATE - SAHANI,,,,,,,,,,,,,,,,,,,,,,,,,,,,,,,,,,,,,,,,,,,,,,,,,,,,,,,,,,,,,,,,,,,,,,,,,,,,,,,,
,,,,,,,,,,00001449182,2020-10-16_19h37.40.975,swahili,2020.2.4,Win32,60,,,,,,,,,,-0.181551977,0.065104167,1,0,0,0.69614,unsorted_card,8,0,8,0,1,,,,,,,,,,,,,,,,,,,,,,,,,,,,,,,,,,,,,,,,,,,,,,,,,,,,,,,,,,,,,,,,,,,,,,,,,,,,,,,,,
,,,,,,,,,,00001449182,2020-10-16_19h37.40.975,swahili,2020.2.4,Win32,60,,,,,,,,,,0.484626647,0.442708333,1,0,0,1.57964,study_pile,9,0,9,0,1,YEAST - HAMIRA,,,,,,,,,,,,,,,,,,,,,,,,,,,,,,,,,,,,,,,,,,,,,,,,,,,,,,,,,,,,,,,,,,,,,,,,,,,,,,,,
,,,,,,,,,,00001449182,2020-10-16_19h37.40.975,swahili,2020.2.4,Win32,60,,,,,,,,,,-0.191800878,-0.044270833,1,0,0,0.829945,unsorted_card,10,0,10,0,1,,,,,,,,,,,,,,,,,,,,,,,,,,,,,,,,,,,,,,,,,,,,,,,,,,,,,,,,,,,,,,,,,,,,,,,,,,,,,,,,,
,,,,,,,,,,00001449182,2020-10-16_19h37.40.975,swahili,2020.2.4,Win32,60,,,,,,,,,,0.448023426,0.450520833,1,0,0,1.0633,study_pile,11,0,11,0,1,BLAME - LAWAMA,,,,,,,,,,,,,,,,,,,,,,,,,,,,,,,,,,,,,,,,,,,,,,,,,,,,,,,,,,,,,,,,,,,,,,,,,,,,,,,,
,,,,,,,,,,00001449182,2020-10-16_19h37.40.975,swahili,2020.2.4,Win32,60,,,,,,,,,,-0.272327965,0.005208333,1,0,0,0.61332,unsorted_card,12,0,12,0,1,,,,,,,,,,,,,,,,,,,,,,,,,,,,,,,,,,,,,,,,,,,,,,,,,,,,,,,,,,,,,,,,,,,,,,,,,,,,,,,,,
,,,,,,,,,,00001449182,2020-10-16_19h37.40.975,swahili,2020.2.4,Win32,60,,,,,,,,,,0.414348463,0.442708333,1,0,0,1.260535,study_pile,13,0,13,0,1,OATH - YAMINI,,,,,,,,,,,,,,,,,,,,,,,,,,,,,,,,,,,,,,,,,,,,,,,,,,,,,,,,,,,,,,,,,,,,,,,,,,,,,,,,
,,,,,,,,,,00001449182,2020-10-16_19h37.40.975,swahili,2020.2.4,Win32,60,,,,,,,,,,-0.111273792,0.0625,1,0,0,0.563295,unsorted_card,14,0,14,0,1,,,,,,,,,,,,,,,,,,,,,,,,,,,,,,,,,,,,,,,,,,,,,,,,,,,,,,,,,,,,,,,,,,,,,,,,,,,,,,,,,
,,,,,,,,,,00001449182,2020-10-16_19h37.40.975,swahili,2020.2.4,Win32,60,,,,,,,,,,0.433382138,0.0078125,1,0,0,21.560035,test_pile,15,0,15,0,1,CORN - NAFAKA,,,,,,,,,,,,,,,,,,,,,,,,,,,,,,,,,,,,,,,,,,,,,,,,,,,,,,,,,,,,,,,,,,,,,,,,,,,,,,,,
,,,,,,,,,,00001449182,2020-10-16_19h37.40.975,swahili,2020.2.4,Win32,60,,,,,,,,,,-0.442166911,-0.1875,1,0,0,0.811745,unsorted_card,16,0,16,0,1,,,,,,,,,,,,,,,,,,,,,,,,,,,,,,,,,,,,,,,,,,,,,,,,,,,,,,,,,,,,,,,,,,,,,,,,,,,,,,,,,
,,,,,,,,,,00001449182,2020-10-16_19h37.40.975,swahili,2020.2.4,Win32,60,,,,,,,,,,0.43045388,0.026041667,1,0,0,1.08,test_pile,17,0,17,0,1,POEM - UTENZI,,,,,,,,,,,,,,,,,,,,,,,,,,,,,,,,,,,,,,,,,,,,,,,,,,,,,,,,,,,,,,,,,,,,,,,,,,,,,,,,
,,,,,,,,,,00001449182,2020-10-16_19h37.40.975,swahili,2020.2.4,Win32,60,,,,,,,,,,-0.551976574,-0.0703125,1,0,0,0.547215,unsorted_card,18,0,18,0,1,,,,,,,,,,,,,,,,,,,,,,,,,,,,,,,,,,,,,,,,,,,,,,,,,,,,,,,,,,,,,,,,,,,,,,,,,,,,,,,,,
,,,,,,,,,,00001449182,2020-10-16_19h37.40.975,swahili,2020.2.4,Win32,60,,,,,,,,,,0.464128843,0.015625,1,0,0,1.246105,test_pile,19,0,19,0,1,TAILOR - MSHONI,,,,,,,,,,,,,,,,,,,,,,,,,,,,,,,,,,,,,,,,,,,,,,,,,,,,,,,,,,,,,,,,,,,,,,,,,,,,,,,,
,,,,,,,,,,00001449182,2020-10-16_19h37.40.975,swahili,2020.2.4,Win32,60,,,,,,,,,,-0.266471449,-0.052083333,1,0,0,0.613675,unsorted_card,20,0,20,0,1,,,,,,,,,,,,,,,,,,,,,,,,,,,,,,,,,,,,,,,,,,,,,,,,,,,,,,,,,,,,,,,,,,,,,,,,,,,,,,,,,
,,,,,,,,,,00001449182,2020-10-16_19h37.40.975,swahili,2020.2.4,Win32,60,,,,,,,,,,0.486090776,0.049479167,1,0,0,0.9965,test_pile,21,0,21,0,1,CHEESE - JIBINI,,,,,,,,,,,,,,,,,,,,,,,,,,,,,,,,,,,,,,,,,,,,,,,,,,,,,,,,,,,,,,,,,,,,,,,,,,,,,,,,
,,,,,,,,,,00001449182,2020-10-16_19h37.40.975,swahili,2020.2.4,Win32,60,,,,,,,,,,-0.285505124,0.010416667,1,0,0,0.560035,unsorted_card,22,0,22,0,1,,,,,,,,,,,,,,,,,,,,,,,,,,,,,,,,,,,,,,,,,,,,,,,,,,,,,,,,,,,,,,,,,,,,,,,,,,,,,,,,,
,,,,,,,,,,00001449182,2020-10-16_19h37.40.975,swahili,2020.2.4,Win32,60,,,,,,,,,,0.543191801,0.578125,1,0,0,1.18004,study_pile,23,0,23,0,1,GRAPES - ZABIBU,,,,,,,,,,,,,,,,,,,,,,,,,,,,,,,,,,,,,,,,,,,,,,,,,,,,,,,,,,,,,,,,,,,,,,,,,,,,,,,,
,,,,,,,,,,00001449182,2020-10-16_19h37.40.975,swahili,2020.2.4,Win32,60,,,,,,,,,,-0.06295754,0.166666667,1,0,0,0.64346,unsorted_card,24,0,24,0,1,,,,,,,,,,,,,,,,,,,,,,,,,,,,,,,,,,,,,,,,,,,,,,,,,,,,,,,,,,,,,,,,,,,,,,,,,,,,,,,,,
,,,,,,,,,,00001449182,2020-10-16_19h37.40.975,swahili,2020.2.4,Win32,60,,,,,,,,,,0.524158126,0.5390625,1,0,0,0.863715,study_pile,25,0,25,0,1,GRAVE - KABURI,,,,,,,,,,,,,,,,,,,,,,,,,,,,,,,,,,,,,,,,,,,,,,,,,,,,,,,,,,,,,,,,,,,,,,,,,,,,,,,,
,,,,,,,,,,00001449182,2020-10-16_19h37.40.975,swahili,2020.2.4,Win32,60,,,,,,,,,,-0.187408492,0.111979167,1,0,0,0.78035,unsorted_card,26,0,26,0,1,,,,,,,,,,,,,,,,,,,,,,,,,,,,,,,,,,,,,,,,,,,,,,,,,,,,,,,,,,,,,,,,,,,,,,,,,,,,,,,,,
,,,,,,,,,,00001449182,2020-10-16_19h37.40.975,swahili,2020.2.4,Win32,60,,,,,,,,,,0.338213763,0.518229167,1,0,0,1.01329,study_pile,27,0,27,0,1,MANURE - SAMADI,,,,,,,,,,,,,,,,,,,,,,,,,,,,,,,,,,,,,,,,,,,,,,,,,,,,,,,,,,,,,,,,,,,,,,,,,,,,,,,,
,,,,,,,,,,00001449182,2020-10-16_19h37.40.975,swahili,2020.2.4,Win32,60,,,,,,,,,,-0.257686676,-0.044270833,1,0,0,0.630115,unsorted_card,28,0,28,0,1,,,,,,,,,,,,,,,,,,,,,,,,,,,,,,,,,,,,,,,,,,,,,,,,,,,,,,,,,,,,,,,,,,,,,,,,,,,,,,,,,
,,,,,,,,,,00001449182,2020-10-16_19h37.40.975,swahili,2020.2.4,Win32,60,,,,,,,,,,0.566617862,0.458333333,1,0,0,1.2642,study_pile,29,0,29,0,1,AGENT - WAKILI,,,,,,,,,,,,,,,,,,,,,,,,,,,,,,,,,,,,,,,,,,,,,,,,,,,,,,,,,,,,,,,,,,,,,,,,,,,,,,,,
,,,,,,,,,,00001449182,2020-10-16_19h37.40.975,swahili,2020.2.4,Win32,60,,,,,,,,,,-0.352855051,-0.075520833,1,0,0,0.612705,unsorted_card,30,0,30,0,1,,,,,,,,,,,,,,,,,,,,,,,,,,,,,,,,,,,,,,,,,,,,,,,,,,,,,,,,,,,,,,,,,,,,,,,,,,,,,,,,,
,,,,,,,,,,00001449182,2020-10-16_19h37.40.975,swahili,2020.2.4,Win32,60,,,,,,,,,,0.43045388,-0.015625,1,0,0,1.16311,test_pile,31,0,31,0,1,BRIBE - RUSHWA,,,,,,,,,,,,,,,,,,,,,,,,,,,,,,,,,,,,,,,,,,,,,,,,,,,,,,,,,,,,,,,,,,,,,,,,,,,,,,,,
,,,,,,,,,,00001449182,2020-10-16_19h37.40.975,swahili,2020.2.4,Win32,60,,,,,,,,,,-0.395314788,-0.111979167,1,0,0,0.56344,unsorted_card,32,0,32,0,1,,,,,,,,,,,,,,,,,,,,,,,,,,,,,,,,,,,,,,,,,,,,,,,,,,,,,,,,,,,,,,,,,,,,,,,,,,,,,,,,,
,,,,,,,,,,00001449182,2020-10-16_19h37.40.975,swahili,2020.2.4,Win32,60,,,,,,,,,,0.368960469,0.442708333,1,0,0,1.23052,study_pile,33,0,33,0,1,ORPHAN - YATIMA,,,,,,,,,,,,,,,,,,,,,,,,,,,,,,,,,,,,,,,,,,,,,,,,,,,,,,,,,,,,,,,,,,,,,,,,,,,,,,,,
,,,,,,,,,,00001449182,2020-10-16_19h37.40.975,swahili,2020.2.4,Win32,60,,,,,,,,,,-0.0761347,0.244791667,1,0,0,0.71296,unsorted_card,34,0,34,0,1,,,,,,,,,,,,,,,,,,,,,,,,,,,,,,,,,,,,,,,,,,,,,,,,,,,,,,,,,,,,,,,,,,,,,,,,,,,,,,,,,
,,,,,,,,,,00001449182,2020-10-16_19h37.40.975,swahili,2020.2.4,Win32,60,,,,,,,,,,0.453879941,-0.098958333,1,0,0,21.759765,test_pile,35,0,35,0,1,DIVORCE - TALAKA,,,,,,,,,,,,,,,,,,,,,,,,,,,,,,,,,,,,,,,,,,,,,,,,,,,,,,,,,,,,,,,,,,,,,,,,,,,,,,,,
,,,,,,,,,,00001449182,2020-10-16_19h37.40.975,swahili,2020.2.4,Win32,60,,,,,,,,,,-0.420204978,-0.169270833,1,0,0,1.16177,unsorted_card,36,0,36,0,1,,,,,,,,,,,,,,,,,,,,,,,,,,,,,,,,,,,,,,,,,,,,,,,,,,,,,,,,,,,,,,,,,,,,,,,,,,,,,,,,,
,,,,,,,,,,00001449182,2020-10-16_19h37.40.975,swahili,2020.2.4,Win32,60,,,,,,,,,,0.440702782,0.03125,1,0,0,1.06234,test_pile,37,0,37,0,1,BOAT - MASHUA,,,,,,,,,,,,,,,,,,,,,,,,,,,,,,,,,,,,,,,,,,,,,,,,,,,,,,,,,,,,,,,,,,,,,,,,,,,,,,,,
,,,,,,,,,,00001449182,2020-10-16_19h37.40.975,swahili,2020.2.4,Win32,60,,,,,,,,,,-0.090775988,-0.114583333,1,0,0,0.530605,unsorted_card,38,0,38,0,1,,,,,,,,,,,,,,,,,,,,,,,,,,,,,,,,,,,,,,,,,,,,,,,,,,,,,,,,,,,,,,,,,,,,,,,,,,,,,,,,,
,,,,,,,,,,00001449182,2020-10-16_19h37.40.975,swahili,2020.2.4,Win32,60,,,,,,,,,,0.484626647,-0.026041667,1,0,0,0.94684,test_pile,39,0,39,0,1,TREASURE - DAFINA,,,,,,,,,,,,,,,,,,,,,,,,,,,,,,,,,,,,,,,,,,,,,,,,,,,,,,,,,,,,,,,,,,,,,,,,,,,,,,,,
,,,,,,,,,,00001449182,2020-10-16_19h37.40.975,swahili,2020.2.4,Win32,60,,,,,,,,,,,,,,,,,,,,,,,0.484626647,-0.026041667,1,0,0,0.715035,test_first,,,,,0,0,0,0,1,,,,,,,,,,,,,,,,,,,,,,,,,,,,,,,,,,,,,,,,,,,,,,,,,,,,,,,,,,,,,,,,
,,,,,,,,,,00001449182,2020-10-16_19h37.40.975,swahili,2020.2.4,Win32,60,,,,,,,,,,,,,,,,,,,,,,,,,,,,,,,,,,,,,,,return,,,,,,,,,,,1.079885,2.34455,0.484626647,-0.026041667,1,0,0,0.966165,yes,CORN,NAFAKA,incorrect,0,0,0,0,1,,,,,,,,,,,,,,,,,,,,,,,,,,,,,,,,,,,,
,,,,,,,,,,00001449182,2020-10-16_19h37.40.975,swahili,2020.2.4,Win32,60,,,,,,,,,,,,,,,,,,,,,,,,,,,,,,,,,,,,,,,,,,,,,,,,,,,6.12384,0.484626647,-0.026041667,1,0,0,0.8165,yes,BULL,FAHILI,incorrect,1,0,1,0,1,,,,,,,,,,,,,,,,,,,,,,,,,,,,,,,,,,,,
,,,,,,,,,,00001449182,2020-10-16_19h37.40.975,swahili,2020.2.4,Win32,60,,,,,,,,,,,,,,,,,,,,,,,,,,,,,,,,,,,,,,,,,,,,,,,,,,,2.509575,0.484626647,-0.026041667,1,0,0,0.93293,yes,CHEESE,JIBINI,incorrect,2,0,2,0,1,,,,,,,,,,,,,,,,,,,,,,,,,,,,,,,,,,,,
,,,,,,,,,,00001449182,2020-10-16_19h37.40.975,swahili,2020.2.4,Win32,60,,,,,,,,,,,,,,,,,,,,,,,,,,,,,,,,,,,,,,,,,,,,,,,,,,,2.843745,0.484626647,-0.026041667,1,0,0,0.917725,yes,BRIBE,RUSHWA,incorrect,3,0,3,0,1,,,,,,,,,,,,,,,,,,,,,,,,,,,,,,,,,,,,
,,,,,,,,,,00001449182,2020-10-16_19h37.40.975,swahili,2020.2.4,Win32,60,,,,,,,,,,,,,,,,,,,,,,,,,,,,,,,,,,,,,,,,,,,,,,,,,,,2.044255,0.484626647,-0.026041667,1,0,0,1.182835,yes,POEM,UTENZI,incorrect,4,0,4,0,1,,,,,,,,,,,,,,,,,,,,,,,,,,,,,,,,,,,,
,,,,,,,,,,00001449182,2020-10-16_19h37.40.975,swahili,2020.2.4,Win32,60,,,,,,,,,,,,,,,,,,,,,,,,,,,,,,,,,,,,,,,,,,,,,,,,,,,1.927965,0.484626647,-0.026041667,1,0,0,1.01608,yes,BOAT,MASHUA,incorrect,5,0,5,0,1,,,,,,,,,,,,,,,,,,,,,,,,,,,,,,,,,,,,
,,,,,,,,,,00001449182,2020-10-16_19h37.40.975,swahili,2020.2.4,Win32,60,,,,,,,,,,,,,,,,,,,,,,,,,,,,,,,,,,,,,,,,,,,,,,,,,,,3.3435,0.484626647,-0.026041667,1,0,0,1.21597,yes,TREASURE,DAFINA,incorrect,6,0,6,0,1,,,,,,,,,,,,,,,,,,,,,,,,,,,,,,,,,,,,
,,,,,,,,,,00001449182,2020-10-16_19h37.40.975,swahili,2020.2.4,Win32,60,,,,,,,,,,,,,,,,,,,,,,,,,,,,,,,,,,,,,,,,,,,,,,,,,,,2.594165,0.483162518,0.005208333,1,0,0,0.834,yes,TAILOR,MSHONI,incorrect,7,0,7,0,1,,,,,,,,,,,,,,,,,,,,,,,,,,,,,,,,,,,,
,,,,,,,,,,00001449182,2020-10-16_19h37.40.975,swahili,2020.2.4,Win32,60,,,,,,,,,,,,,,,,,,,,,,,,,,,,,,,,,,,,,,,,,,,,,,,,,,,2.027905,0.483162518,0.005208333,1,0,0,0.982895,yes,DIVORCE,TALAKA,incorrect,8,0,8,0,1,,,,,,,,,,,,,,,,,,,,,,,,,,,,,,,,,,,,
,,,,,,,,,,00001449182,2020-10-16_19h37.40.975,swahili,2020.2.4,Win32,60,,,,,,,,,,,,,,,,,,,,,,,,,,,,,,,,,,,,,,,,,,,,,,,,,,,4.142585,0.483162518,0.005208333,1,0,0,1.415695,yes,PARROT,KASUKU,incorrect,9,0,9,0,1,,,,,,,,,,,,,,,,,,,,,,,,,,,,,,,,,,,,
,,,,,,,,,,00001449182,2020-10-16_19h37.40.975,swahili,2020.2.4,Win32,60,,,,,,,,,,,,,,,,,,,,,,,,,,,,,,,,,,,,,,,,0,0,0,0,1,,,,,,,,,,,,,,,,,,,,,,,,,,,,,,,,,,,,,,,,,,,,,,,,,,,,,,,,,,
,,,,,,,,,,00001449182,2020-10-16_19h37.40.975,swahili,2020.2.4,Win32,60,,,,,,,,,,,,,,,,,,,,,,ORPHAN - YATIMA,,,,,,,,return,10.37906,return,3.44701,0,0,0,0,1,,,,,,,,,,,,,,,,,,,,,,,,,,,,,,,,,,,,,,,,,,,,,,,,,,,,,,,,,,,,,,,,
,,,,,,,,,,00001449182,2020-10-16_19h37.40.975,swahili,2020.2.4,Win32,60,,,,,,,,,,,,,,,,,,,,,,PLATE - SAHANI,,,,,,,,,,return,0.17123,1,0,1,0,1,,,,,,,,,,,,,,,,,,,,,,,,,,,,,,,,,,,,,,,,,,,,,,,,,,,,,,,,,,,,,,,,
,,,,,,,,,,00001449182,2020-10-16_19h37.40.975,swahili,2020.2.4,Win32,60,,,,,,,,,,,,,,,,,,,,,,MERCHANT - TAJIRI,,,,,,,,,,return,0.191465,2,0,2,0,1,,,,,,,,,,,,,,,,,,,,,,,,,,,,,,,,,,,,,,,,,,,,,,,,,,,,,,,,,,,,,,,,
,,,,,,,,,,00001449182,2020-10-16_19h37.40.975,swahili,2020.2.4,Win32,60,,,,,,,,,,,,,,,,,,,,,,YEAST - HAMIRA,,,,,,,,,,return,0.23694,3,0,3,0,1,,,,,,,,,,,,,,,,,,,,,,,,,,,,,,,,,,,,,,,,,,,,,,,,,,,,,,,,,,,,,,,,
,,,,,,,,,,00001449182,2020-10-16_19h37.40.975,swahili,2020.2.4,Win32,60,,,,,,,,,,,,,,,,,,,,,,GRAPES - ZABIBU,,,,,,,,,,return,0.1094,4,0,4,0,1,,,,,,,,,,,,,,,,,,,,,,,,,,,,,,,,,,,,,,,,,,,,,,,,,,,,,,,,,,,,,,,,
,,,,,,,,,,00001449182,2020-10-16_19h37.40.975,swahili,2020.2.4,Win32,60,,,,,,,,,,,,,,,,,,,,,,BLAME - LAWAMA,,,,,,,,,,return,0.091135,5,0,5,0,1,,,,,,,,,,,,,,,,,,,,,,,,,,,,,,,,,,,,,,,,,,,,,,,,,,,,,,,,,,,,,,,,
,,,,,,,,,,00001449182,2020-10-16_19h37.40.975,swahili,2020.2.4,Win32,60,,,,,,,,,,,,,,,,,,,,,,MANURE - SAMADI,,,,,,,,,,return,0.21606,6,0,6,0,1,,,,,,,,,,,,,,,,,,,,,,,,,,,,,,,,,,,,,,,,,,,,,,,,,,,,,,,,,,,,,,,,
,,,,,,,,,,00001449182,2020-10-16_19h37.40.975,swahili,2020.2.4,Win32,60,,,,,,,,,,,,,,,,,,,,,,OATH - YAMINI,,,,,,,,,,return,0.456695,7,0,7,0,1,,,,,,,,,,,,,,,,,,,,,,,,,,,,,,,,,,,,,,,,,,,,,,,,,,,,,,,,,,,,,,,,
,,,,,,,,,,00001449182,2020-10-16_19h37.40.975,swahili,2020.2.4,Win32,60,,,,,,,,,,,,,,,,,,,,,,GRAVE - KABURI,,,,,,,,,,return,0.27083,8,0,8,0,1,,,,,,,,,,,,,,,,,,,,,,,,,,,,,,,,,,,,,,,,,,,,,,,,,,,,,,,,,,,,,,,,
,,,,,,,,,,00001449182,2020-10-16_19h37.40.975,swahili,2020.2.4,Win32,60,,,,,,,,,,,,,,,,,,,,,,AGENT - WAKILI,,,,,,,,,,return,0.27371,9,0,9,0,1,,,,,,,,,,,,,,,,,,,,,,,,,,,,,,,,,,,,,,,,,,,,,,,,,,,,,,,,,,,,,,,,
,,,,,,,,,,00001449182,2020-10-16_19h37.40.975,swahili,2020.2.4,Win32,60,,,,,,,,,,,,,,,,,,,,,,,,,,,,,,,,,,,,,,,,1,0,1,0,1,,,,,,,,,,,,,,,,,,,,,,,,,,,,,,,,,,,,,,,,,,,,,,,,,,,,,,,,,,
,,,,,,,,,,00001449182,2020-10-16_19h37.40.975,swahili,2020.2.4,Win32,60,,,,,,,,,,,,,,,,,,,,,,,,,,,,,,,,,,,,,,,,,,,,,5,0,5,0,1,,,,,,,,,,,,,,,,,,,,,,,,,,,,,,,,,,,,,,,,,,,,,,,,,,,,,
,,,,,,,,,,00001449182,2020-10-16_19h37.40.975,swahili,2020.2.4,Win32,60,,,,,,,,,,-0.231332357,-0.0703125,1,0,0,3.33754,unsorted_card,0,0,0,0,1,,,,,,,,,,,,,,,,,,,,,,,,,,,,,,,,,,,,,,,,,,,,,,,,,,,,,,,,,,,,,,,,,,,,,,,,,,,,,,,,,
,,,,,,,,,,00001449182,2020-10-16_19h37.40.975,swahili,2020.2.4,Win32,60,,,,,,,,,,0.433382138,0.463541667,1,0,0,8.005775,study_pile,1,0,1,0,1,MERCHANT - TAJIRI,,,,,,,,,,,,,,,,,,,,,,,,,,,,,,,,,,,,,,,,,,,,,,,,,,,,,,,,,,,,,,,,,,,,,,,,,,,,,,,,
,,,,,,,,,,00001449182,2020-10-16_19h37.40.975,swahili,2020.2.4,Win32,60,,,,,,,,,,-0.241581259,0.067708333,1,0,0,0.612365,unsorted_card,2,0,2,0,1,,,,,,,,,,,,,,,,,,,,,,,,,,,,,,,,,,,,,,,,,,,,,,,,,,,,,,,,,,,,,,,,,,,,,,,,,,,,,,,,,
,,,,,,,,,,00001449182,2020-10-16_19h37.40.975,swahili,2020.2.4,Win32,60,,,,,,,,,,0.49341142,0.388020833,1,0,0,0.89675,study_pile,3,0,3,0,1,PARROT - KASUKU,,,,,,,,,,,,,,,,,,,,,,,,,,,,,,,,,,,,,,,,,,,,,,,,,,,,,,,,,,,,,,,,,,,,,,,,,,,,,,,,
,,,,,,,,,,00001449182,2020-10-16_19h37.40.975,swahili,2020.2.4,Win32,60,,,,,,,,,,-0.364568082,-0.015625,1,0,0,0.580205,unsorted_card,4,0,4,0,1,,,,,,,,,,,,,,,,,,,,,,,,,,,,,,,,,,,,,,,,,,,,,,,,,,,,,,,,,,,,,,,,,,,,,,,,,,,,,,,,,
,,,,,,,,,,00001449182,2020-10-16_19h37.40.975,swahili,2020.2.4,Win32,60,,,,,,,,,,0.513909224,0.549479167,1,0,0,0.83035,study_pile,5,0,5,0,1,BULL - FAHILI,,,,,,,,,,,,,,,,,,,,,,,,,,,,,,,,,,,,,,,,,,,,,,,,,,,,,,,,,,,,,,,,,,,,,,,,,,,,,,,,
,,,,,,,,,,00001449182,2020-10-16_19h37.40.975,swahili,2020.2.4,Win32,60,,,,,,,,,,-0.289897511,0.075520833,1,0,0,0.962515,unsorted_card,6,0,6,0,1,,,,,,,,,,,,,,,,,,,,,,,,,,,,,,,,,,,,,,,,,,,,,,,,,,,,,,,,,,,,,,,,,,,,,,,,,,,,,,,,,
,,,,,,,,,,00001449182,2020-10-16_19h37.40.975,swahili,2020.2.4,Win32,60,,,,,,,,,,0.535871157,0.541666667,1,0,0,0.763565,study_pile,7,0,7,0,1,PLATE - SAHANI,,,,,,,,,,,,,,,,,,,,,,,,,,,,,,,,,,,,,,,,,,,,,,,,,,,,,,,,,,,,,,,,,,,,,,,,,,,,,,,,
,,,,,,,,,,00001449182,2020-10-16_19h37.40.975,swahili,2020.2.4,Win32,60,,,,,,,,,,-0.229868228,0.098958333,1,0,0,0.580145,unsorted_card,8,0,8,0,1,,,,,,,,,,,,,,,,,,,,,,,,,,,,,,,,,,,,,,,,,,,,,,,,,,,,,,,,,,,,,,,,,,,,,,,,,,,,,,,,,
,,,,,,,,,,00001449182,2020-10-16_19h37.40.975,swahili,2020.2.4,Win32,60,,,,,,,,,,0.778916545,0.596354167,1,0,0,1.596245,study_pile,9,0,9,0,1,YEAST - HAMIRA,,,,,,,,,,,,,,,,,,,,,,,,,,,,,,,,,,,,,,,,,,,,,,,,,,,,,,,,,,,,,,,,,,,,,,,,,,,,,,,,
,,,,,,,,,,00001449182,2020-10-16_19h37.40.975,swahili,2020.2.4,Win32,60,,,,,,,,,,-0.193265007,0.072916667,1,0,0,0.74664,unsorted_card,10,0,10,0,1,,,,,,,,,,,,,,,,,,,,,,,,,,,,,,,,,,,,,,,,,,,,,,,,,,,,,,,,,,,,,,,,,,,,,,,,,,,,,,,,,
,,,,,,,,,,00001449182,2020-10-16_19h37.40.975,swahili,2020.2.4,Win32,60,,,,,,,,,,0.513909224,0.424479167,1,0,0,0.927555,study_pile,11,0,11,0,1,BLAME - LAWAMA,,,,,,,,,,,,,,,,,,,,,,,,,,,,,,,,,,,,,,,,,,,,,,,,,,,,,,,,,,,,,,,,,,,,,,,,,,,,,,,,
,,,,,,,,,,00001449182,2020-10-16_19h37.40.975,swahili,2020.2.4,Win32,60,,,,,,,,,,-0.16398243,0,1,0,0,0.94689,unsorted_card,12,0,12,0,1,,,,,,,,,,,,,,,,,,,,,,,,,,,,,,,,,,,,,,,,,,,,,,,,,,,,,,,,,,,,,,,,,,,,,,,,,,,,,,,,,
,,,,,,,,,,00001449182,2020-10-16_19h37.40.975,swahili,2020.2.4,Win32,60,,,,,,,,,,0.37920937,0.494791667,1,0,0,1.84594,study_pile,13,0,13,0,1,OATH - YAMINI,,,,,,,,,,,,,,,,,,,,,,,,,,,,,,,,,,,,,,,,,,,,,,,,,,,,,,,,,,,,,,,,,,,,,,,,,,,,,,,,
,,,,,,,,,,00001449182,2020-10-16_19h37.40.975,swahili,2020.2.4,Win32,60,,,,,,,,,,-0.322108346,0.041666667,1,0,0,1.112705,unsorted_card,14,0,14,0,1,,,,,,,,,,,,,,,,,,,,,,,,,,,,,,,,,,,,,,,,,,,,,,,,,,,,,,,,,,,,,,,,,,,,,,,,,,,,,,,,,
,,,,,,,,,,00001449182,2020-10-16_19h37.40.975,swahili,2020.2.4,Win32,60,,,,,,,,,,0.474377745,0.552083333,1,0,0,1.062525,study_pile,15,0,15,0,1,CORN - NAFAKA,,,,,,,,,,,,,,,,,,,,,,,,,,,,,,,,,,,,,,,,,,,,,,,,,,,,,,,,,,,,,,,,,,,,,,,,,,,,,,,,
,,,,,,,,,,00001449182,2020-10-16_19h37.40.975,swahili,2020.2.4,Win32,60,,,,,,,,,,-0.166910688,0.057291667,1,0,0,1.12935,unsorted_card,16,0,16,0,1,,,,,,,,,,,,,,,,,,,,,,,,,,,,,,,,,,,,,,,,,,,,,,,,,,,,,,,,,,,,,,,,,,,,,,,,,,,,,,,,,
,,,,,,,,,,00001449182,2020-10-16_19h37.40.975,swahili,2020.2.4,Win32,60,,,,,,,,,,0.421669107,0.453125,1,0,0,0.980405,study_pile,17,0,17,0,1,POEM - UTENZI,,,,,,,,,,,,,,,,,,,,,,,,,,,,,,,,,,,,,,,,,,,,,,,,,,,,,,,,,,,,,,,,,,,,,,,,,,,,,,,,
,,,,,,,,,,00001449182,2020-10-16_19h37.40.975,swahili,2020.2.4,Win32,60,,,,,,,,,,-0.423133236,0.005208333,1,0,0,0.813225,unsorted_card,18,0,18,0,1,,,,,,,,,,,,,,,,,,,,,,,,,,,,,,,,,,,,,,,,,,,,,,,,,,,,,,,,,,,,,,,,,,,,,,,,,,,,,,,,,
,,,,,,,,,,00001449182,2020-10-16_19h37.40.975,swahili,2020.2.4,Win32,60,,,,,,,,,,0.436310395,0.486979167,1,0,0,1.12999,study_pile,19,0,19,0,1,TAILOR - MSHONI,,,,,,,,,,,,,,,,,,,,,,,,,,,,,,,,,,,,,,,,,,,,,,,,,,,,,,,,,,,,,,,,,,,,,,,,,,,,,,,,
,,,,,,,,,,00001449182,2020-10-16_19h37.40.975,swahili,2020.2.4,Win32,60,,,,,,,,,,-0.196193265,0.033854167,1,0,0,0.847045,unsorted_card,20,0,20,0,1,,,,,,,,,,,,,,,,,,,,,,,,,,,,,,,,,,,,,,,,,,,,,,,,,,,,,,,,,,,,,,,,,,,,,,,,,,,,,,,,,
,,,,,,,,,,00001449182,2020-10-16_19h37.40.975,swahili,2020.2.4,Win32,60,,,,,,,,,,0.499267936,0.3984375,1,0,0,0.83021,study_pile,21,0,21,0,1,CHEESE - JIBINI,,,,,,,,,,,,,,,,,,,,,,,,,,,,,,,,,,,,,,,,,,,,,,,,,,,,,,,,,,,,,,,,,,,,,,,,,,,,,,,,
,,,,,,,,,,00001449182,2020-10-16_19h37.40.975,swahili,2020.2.4,Win32,60,,,,,,,,,,-0.1522694,-0.041666667,1,0,0,0.76322,unsorted_card,22,0,22,0,1,,,,,,,,,,,,,,,,,,,,,,,,,,,,,,,,,,,,,,,,,,,,,,,,,,,,,,,,,,,,,,,,,,,,,,,,,,,,,,,,,
,,,,,,,,,,00001449182,2020-10-16_19h37.40.975,swahili,2020.2.4,Win32,60,,,,,,,,,,0.421669107,0.536458333,1,0,0,0.864125,study_pile,23,0,23,0,1,GRAPES - ZABIBU,,,,,,,,,,,,,,,,,,,,,,,,,,,,,,,,,,,,,,,,,,,,,,,,,,,,,,,,,,,,,,,,,,,,,,,,,,,,,,,,
,,,,,,,,,,00001449182,2020-10-16_19h37.40.975,swahili,2020.2.4,Win32,60,,,,,,,,,,-0.231332357,-0.015625,1,0,0,0.67949,unsorted_card,24,0,24,0,1,,,,,,,,,,,,,,,,,,,,,,,,,,,,,,,,,,,,,,,,,,,,,,,,,,,,,,,,,,,,,,,,,,,,,,,,,,,,,,,,,
,,,,,,,,,,00001449182,2020-10-16_19h37.40.975,swahili,2020.2.4,Win32,60,,,,,,,,,,0.389458272,0.408854167,1,0,0,0.697365,study_pile,25,0,25,0,1,GRAVE - KABURI,,,,,,,,,,,,,,,,,,,,,,,,,,,,,,,,,,,,,,,,,,,,,,,,,,,,,,,,,,,,,,,,,,,,,,,,,,,,,,,,
,,,,,,,,,,00001449182,2020-10-16_19h37.40.975,swahili,2020.2.4,Win32,60,,,,,,,,,,-0.153733529,-0.0234375,1,0,0,0.809005,unsorted_card,26,0,26,0,1,,,,,,,,,,,,,,,,,,,,,,,,,,,,,,,,,,,,,,,,,,,,,,,,,,,,,,,,,,,,,,,,,,,,,,,,,,,,,,,,,
,,,,,,,,,,00001449182,2020-10-16_19h37.40.975,swahili,2020.2.4,Win32,60,,,,,,,,,,0.386530015,0.380208333,1,0,0,1.013555,study_pile,27,0,27,0,1,MANURE - SAMADI,,,,,,,,,,,,,,,,,,,,,,,,,,,,,,,,,,,,,,,,,,,,,,,,,,,,,,,,,,,,,,,,,,,,,,,,,,,,,,,,
,,,,,,,,,,00001449182,2020-10-16_19h37.40.975,swahili,2020.2.4,Win32,60,,,,,,,,,,-0.472913616,-0.239583333,1,0,0,0.67446,unsorted_card,28,0,28,0,1,,,,,,,,,,,,,,,,,,,,,,,,,,,,,,,,,,,,,,,,,,,,,,,,,,,,,,,,,,,,,,,,,,,,,,,,,,,,,,,,,
,,,,,,,,,,00001449182,2020-10-16_19h37.40.975,swahili,2020.2.4,Win32,60,,,,,,,,,,0.420204978,0.4921875,1,0,0,1.362945,study_pile,29,0,29,0,1,AGENT - WAKILI,,,,,,,,,,,,,,,,,,,,,,,,,,,,,,,,,,,,,,,,,,,,,,,,,,,,,,,,,,,,,,,,,,,,,,,,,,,,,,,,
