condition,consent_key.keys,consent_key.rt,done_with_instructions.keys,done_with_instructions.rt,instr_loop.thisRepN,instr_loop.thisTrialN,instr_loop.thisN,instr_loop.thisIndex,instr_loop.ran,Student ID #,date,expName,psychopyVersion,OS,frameRate,instr_learning_key.keys,instr_learning_key.rt,card_gen_loop.thisRepN,card_gen_loop.thisTrialN,card_gen_loop.thisN,card_gen_loop.thisIndex,card_gen_loop.ran,swa,eng,choose_pile.x,choose_pile.y,choose_pile.leftButton,choose_pile.midButton,choose_pile.rightButton,choose_pile.time,choose_pile.clicked_name,choices.thisRepN,choices.thisTrialN,choices.thisN,choices.thisIndex,choices.ran,card_to_show,mouse_pick.x,mouse_pick.y,mouse_pick.leftButton,mouse_pick.midButton,mouse_pick.rightButton,mouse_pick.time,mouse_pick.clicked_name,key_instr_study.keys,key_instr_study.rt,next_study.keys,next_study.rt,study_loop.thisRepN,study_loop.thisTrialN,study_loop.thisN,study_loop.thisIndex,study_loop.ran,key_instr_test.keys,learn_loop.thisRepN,learn_loop.thisTrialN,learn_loop.thisN,learn_loop.thisIndex,learn_loop.ran,trials.thisRepN,trials.thisTrialN,trials.thisN,trials.thisIndex,trials.ran,key_instr_test.rt,duration,yes_or_no.x,yes_or_no.y,yes_or_no.leftButton,yes_or_no.midButton,yes_or_no.rightButton,yes_or_no.time,yes_or_no.clicked_name,test_response.stim,test_response.resp,test_response.eval,test_loop.thisRepN,test_loop.thisTrialN,test_loop.thisN,test_loop.thisIndex,test_loop.ran,instr_movie_key.keys,instr_movie_key.rt,return_to_exp.keys,return_to_exp.rt,instr_assess_key.keys,instr_assess_key.rt,assess_loop.thisRepN,assess_loop.thisTrialN,assess_loop.thisN,assess_loop.thisIndex,assess_loop.ran,ans_gen_loop.thisRepN,ans_gen_loop.thisTrialN,ans_gen_loop.thisN,ans_gen_loop.thisIndex,ans_gen_loop.ran,sen,ans,instr_transfer_key.keys,instr_transfer_key.rt,transfer_response.resp,transfer_response.eval,select_word.x,select_word.y,select_word.leftButton,select_word.midButton,select_word.rightButton,select_word.time,select_word.clicked_name,transfers.thisRepN,transfers.thisTrialN,transfers.thisN,transfers.thisIndex,transfers.ran,end_experiment.keys,end_experiment.rt
1,return,8.624715,return,11.665645,0,0,0,0,1,00001590554,2020-10-18_20h33.50.100,swahili,2020.2.4,MacIntel,60,,,,,,,,,,,,,,,,,,,,,,,,,,,,,,,,,,,,,,,,,,,,,,,,,,,,,,,,,,,,,,,,,,,,,,,,,,,,,,,,,,,,,,,,,,,,,,,,,,,,,,
,,,,,,,,,,00001590554,2020-10-18_20h33.50.100,swahili,2020.2.4,MacIntel,60,return,89.55115,0,0,0,0,1,TAJIRI,MERCHANT,,,,,,,,,,,,,,,,,,,,,,,,,,,,,,,,,,,,,,,,,,,,,,,,,,,,,,,,,,,,,,,,,,,,,,,,,,,,,,,,,,,,,,,,,,,,,
,,,,,,,,,,00001590554,2020-10-18_20h33.50.100,swahili,2020.2.4,MacIntel,60,,,0,1,1,1,1,KASUKU,PARROT,,,,,,,,,,,,,,,,,,,,,,,,,,,,,,,,,,,,,,,,,,,,,,,,,,,,,,,,,,,,,,,,,,,,,,,,,,,,,,,,,,,,,,,,,,,,,
,,,,,,,,,,00001590554,2020-10-18_20h33.50.100,swahili,2020.2.4,MacIntel,60,,,0,2,2,2,1,FAHILI,BULL,,,,,,,,,,,,,,,,,,,,,,,,,,,,,,,,,,,,,,,,,,,,,,,,,,,,,,,,,,,,,,,,,,,,,,,,,,,,,,,,,,,,,,,,,,,,,
,,,,,,,,,,00001590554,2020-10-18_20h33.50.100,swahili,2020.2.4,MacIntel,60,,,0,3,3,3,1,SAHANI,PLATE,,,,,,,,,,,,,,,,,,,,,,,,,,,,,,,,,,,,,,,,,,,,,,,,,,,,,,,,,,,,,,,,,,,,,,,,,,,,,,,,,,,,,,,,,,,,,
,,,,,,,,,,00001590554,2020-10-18_20h33.50.100,swahili,2020.2.4,MacIntel,60,,,0,4,4,4,1,HAMIRA,YEAST,,,,,,,,,,,,,,,,,,,,,,,,,,,,,,,,,,,,,,,,,,,,,,,,,,,,,,,,,,,,,,,,,,,,,,,,,,,,,,,,,,,,,,,,,,,,,
,,,,,,,,,,00001590554,2020-10-18_20h33.50.100,swahili,2020.2.4,MacIntel,60,,,0,5,5,5,1,LAWAMA,BLAME,,,,,,,,,,,,,,,,,,,,,,,,,,,,,,,,,,,,,,,,,,,,,,,,,,,,,,,,,,,,,,,,,,,,,,,,,,,,,,,,,,,,,,,,,,,,,
,,,,,,,,,,00001590554,2020-10-18_20h33.50.100,swahili,2020.2.4,MacIntel,60,,,0,6,6,6,1,YAMINI,OATH,,,,,,,,,,,,,,,,,,,,,,,,,,,,,,,,,,,,,,,,,,,,,,,,,,,,,,,,,,,,,,,,,,,,,,,,,,,,,,,,,,,,,,,,,,,,,
,,,,,,,,,,00001590554,2020-10-18_20h33.50.100,swahili,2020.2.4,MacIntel,60,,,0,7,7,7,1,NAFAKA,CORN,,,,,,,,,,,,,,,,,,,,,,,,,,,,,,,,,,,,,,,,,,,,,,,,,,,,,,,,,,,,,,,,,,,,,,,,,,,,,,,,,,,,,,,,,,,,,
,,,,,,,,,,00001590554,2020-10-18_20h33.50.100,swahili,2020.2.4,MacIntel,60,,,0,8,8,8,1,UTENZI,POEM,,,,,,,,,,,,,,,,,,,,,,,,,,,,,,,,,,,,,,,,,,,,,,,,,,,,,,,,,,,,,,,,,,,,,,,,,,,,,,,,,,,,,,,,,,,,,
,,,,,,,,,,00001590554,2020-10-18_20h33.50.100,swahili,2020.2.4,MacIntel,60,,,0,9,9,9,1,MSHONI,TAILOR,,,,,,,,,,,,,,,,,,,,,,,,,,,,,,,,,,,,,,,,,,,,,,,,,,,,,,,,,,,,,,,,,,,,,,,,,,,,,,,,,,,,,,,,,,,,,
,,,,,,,,,,00001590554,2020-10-18_20h33.50.100,swahili,2020.2.4,MacIntel,60,,,0,10,10,10,1,JIBINI,CHEESE,,,,,,,,,,,,,,,,,,,,,,,,,,,,,,,,,,,,,,,,,,,,,,,,,,,,,,,,,,,,,,,,,,,,,,,,,,,,,,,,,,,,,,,,,,,,,
,,,,,,,,,,00001590554,2020-10-18_20h33.50.100,swahili,2020.2.4,MacIntel,60,,,0,11,11,11,1,ZABIBU,GRAPES,,,,,,,,,,,,,,,,,,,,,,,,,,,,,,,,,,,,,,,,,,,,,,,,,,,,,,,,,,,,,,,,,,,,,,,,,,,,,,,,,,,,,,,,,,,,,
,,,,,,,,,,00001590554,2020-10-18_20h33.50.100,swahili,2020.2.4,MacIntel,60,,,0,12,12,12,1,KABURI,GRAVE,,,,,,,,,,,,,,,,,,,,,,,,,,,,,,,,,,,,,,,,,,,,,,,,,,,,,,,,,,,,,,,,,,,,,,,,,,,,,,,,,,,,,,,,,,,,,
,,,,,,,,,,00001590554,2020-10-18_20h33.50.100,swahili,2020.2.4,MacIntel,60,,,0,13,13,13,1,SAMADI,MANURE,,,,,,,,,,,,,,,,,,,,,,,,,,,,,,,,,,,,,,,,,,,,,,,,,,,,,,,,,,,,,,,,,,,,,,,,,,,,,,,,,,,,,,,,,,,,,
,,,,,,,,,,00001590554,2020-10-18_20h33.50.100,swahili,2020.2.4,MacIntel,60,,,0,14,14,14,1,WAKILI,AGENT,,,,,,,,,,,,,,,,,,,,,,,,,,,,,,,,,,,,,,,,,,,,,,,,,,,,,,,,,,,,,,,,,,,,,,,,,,,,,,,,,,,,,,,,,,,,,
,,,,,,,,,,00001590554,2020-10-18_20h33.50.100,swahili,2020.2.4,MacIntel,60,,,0,15,15,15,1,RUSHWA,BRIBE,,,,,,,,,,,,,,,,,,,,,,,,,,,,,,,,,,,,,,,,,,,,,,,,,,,,,,,,,,,,,,,,,,,,,,,,,,,,,,,,,,,,,,,,,,,,,
,,,,,,,,,,00001590554,2020-10-18_20h33.50.100,swahili,2020.2.4,MacIntel,60,,,0,16,16,16,1,YATIMA,ORPHAN,,,,,,,,,,,,,,,,,,,,,,,,,,,,,,,,,,,,,,,,,,,,,,,,,,,,,,,,,,,,,,,,,,,,,,,,,,,,,,,,,,,,,,,,,,,,,
,,,,,,,,,,00001590554,2020-10-18_20h33.50.100,swahili,2020.2.4,MacIntel,60,,,0,17,17,17,1,TALAKA,DIVORCE,,,,,,,,,,,,,,,,,,,,,,,,,,,,,,,,,,,,,,,,,,,,,,,,,,,,,,,,,,,,,,,,,,,,,,,,,,,,,,,,,,,,,,,,,,,,,
,,,,,,,,,,00001590554,2020-10-18_20h33.50.100,swahili,2020.2.4,MacIntel,60,,,0,18,18,18,1,MASHUA,BOAT,,,,,,,,,,,,,,,,,,,,,,,,,,,,,,,,,,,,,,,,,,,,,,,,,,,,,,,,,,,,,,,,,,,,,,,,,,,,,,,,,,,,,,,,,,,,,
,,,,,,,,,,00001590554,2020-10-18_20h33.50.100,swahili,2020.2.4,MacIntel,60,,,0,19,19,19,1,DAFINA,TREASURE,,,,,,,,,,,,,,,,,,,,,,,,,,,,,,,,,,,,,,,,,,,,,,,,,,,,,,,,,,,,,,,,,,,,,,,,,,,,,,,,,,,,,,,,,,,,,
,,,,,,,,,,00001590554,2020-10-18_20h33.50.100,swahili,2020.2.4,MacIntel,60,,,,,,,,,,-0.266672092,-0.054763627,1,0,0,3.737325,unsorted_card,0,0,0,0,1,,,,,,,,,,,,,,,,,,,,,,,,,,,,,,,,,,,,,,,,,,,,,,,,,,,,,,,,,,,,,,,,,,,,,,,,,,,,,,,,,
,,,,,,,,,,00001590554,2020-10-18_20h33.50.100,swahili,2020.2.4,MacIntel,60,,,,,,,,,,-0.26273329,-0.059159942,1,0,0,4.325875,unsorted_card,1,0,1,0,1,MERCHANT - TAJIRI,,,,,,,,,,,,,,,,,,,,,,,,,,,,,,,,,,,,,,,,,,,,,,,,,,,,,,,,,,,,,,,,,,,,,,,,,,,,,,,,
,,,,,,,,,,00001590554,2020-10-18_20h33.50.100,swahili,2020.2.4,MacIntel,60,,,,,,,,,,-0.332481554,-0.10578753,1,0,0,2.080755,unsorted_card,2,0,2,0,1,MERCHANT - TAJIRI,,,,,,,,,,,,,,,,,,,,,,,,,,,,,,,,,,,,,,,,,,,,,,,,,,,,,,,,,,,,,,,,,,,,,,,,,,,,,,,,
,,,,,,,,,,00001590554,2020-10-18_20h33.50.100,swahili,2020.2.4,MacIntel,60,,,,,,,,,,-0.170990668,-0.132546057,1,0,0,0.94983,unsorted_card,3,0,3,0,1,MERCHANT - TAJIRI,,,,,,,,,,,,,,,,,,,,,,,,,,,,,,,,,,,,,,,,,,,,,,,,,,,,,,,,,,,,,,,,,,,,,,,,,,,,,,,,
,,,,,,,,,,00001590554,2020-10-18_20h33.50.100,swahili,2020.2.4,MacIntel,60,,,,,,,,,,-0.198811849,-0.136257232,1,0,0,1.46581,unsorted_card,4,0,4,0,1,MERCHANT - TAJIRI,,,,,,,,,,,,,,,,,,,,,,,,,,,,,,,,,,,,,,,,,,,,,,,,,,,,,,,,,,,,,,,,,,,,,,,,,,,,,,,,
,,,,,,,,,,00001590554,2020-10-18_20h33.50.100,swahili,2020.2.4,MacIntel,60,,,,,,,,,,0.530826823,0.444903319,1,0,0,3.883005,study_pile,5,0,5,0,1,MERCHANT - TAJIRI,,,,,,,,,,,,,,,,,,,,,,,,,,,,,,,,,,,,,,,,,,,,,,,,,,,,,,,,,,,,,,,,,,,,,,,,,,,,,,,,
,,,,,,,,,,00001590554,2020-10-18_20h33.50.100,swahili,2020.2.4,MacIntel,60,,,,,,,,,,-0.240662977,-0.06101553,1,0,0,1.2785,unsorted_card,6,0,6,0,1,,,,,,,,,,,,,,,,,,,,,,,,,,,,,,,,,,,,,,,,,,,,,,,,,,,,,,,,,,,,,,,,,,,,,,,,,,,,,,,,,
,,,,,,,,,,00001590554,2020-10-18_20h33.50.100,swahili,2020.2.4,MacIntel,60,,,,,,,,,,0.415684679,0.477542631,1,0,0,3.51738,study_pile,7,0,7,0,1,PARROT - KASUKU,,,,,,,,,,,,,,,,,,,,,,,,,,,,,,,,,,,,,,,,,,,,,,,,,,,,,,,,,,,,,,,,,,,,,,,,,,,,,,,,
,,,,,,,,,,00001590554,2020-10-18_20h33.50.100,swahili,2020.2.4,MacIntel,60,,,,,,,,,,-0.251980252,-0.073547884,1,0,0,0.612645,unsorted_card,8,0,8,0,1,,,,,,,,,,,,,,,,,,,,,,,,,,,,,,,,,,,,,,,,,,,,,,,,,,,,,,,,,,,,,,,,,,,,,,,,,,,,,,,,,
,,,,,,,,,,00001590554,2020-10-18_20h33.50.100,swahili,2020.2.4,MacIntel,60,,,,,,,,,,0.513986545,0.529794077,1,0,0,1.630475,study_pile,9,0,9,0,1,BULL - FAHILI,,,,,,,,,,,,,,,,,,,,,,,,,,,,,,,,,,,,,,,,,,,,,,,,,,,,,,,,,,,,,,,,,,,,,,,,,,,,,,,,
,,,,,,,,,,00001590554,2020-10-18_20h33.50.100,swahili,2020.2.4,MacIntel,60,,,,,,,,,,-0.155023872,-0.064688642,1,0,0,0.73047,unsorted_card,10,0,10,0,1,,,,,,,,,,,,,,,,,,,,,,,,,,,,,,,,,,,,,,,,,,,,,,,,,,,,,,,,,,,,,,,,,,,,,,,,,,,,,,,,,
,,,,,,,,,,00001590554,2020-10-18_20h33.50.100,swahili,2020.2.4,MacIntel,60,,,,,,,,,,0.568863932,0.522619138,1,0,0,1.76449,study_pile,11,0,11,0,1,PLATE - SAHANI,,,,,,,,,,,,,,,,,,,,,,,,,,,,,,,,,,,,,,,,,,,,,,,,,,,,,,,,,,,,,,,,,,,,,,,,,,,,,,,,
,,,,,,,,,,00001590554,2020-10-18_20h33.50.100,swahili,2020.2.4,MacIntel,60,,,,,,,,,,-0.135400391,0.036455161,1,0,0,0.83277,unsorted_card,12,0,12,0,1,,,,,,,,,,,,,,,,,,,,,,,,,,,,,,,,,,,,,,,,,,,,,,,,,,,,,,,,,,,,,,,,,,,,,,,,,,,,,,,,,
,,,,,,,,,,00001590554,2020-10-18_20h33.50.100,swahili,2020.2.4,MacIntel,60,,,,,,,,,,0.491536458,0.461831988,1,0,0,2.01389,study_pile,13,0,13,0,1,YEAST - HAMIRA,,,,,,,,,,,,,,,,,,,,,,,,,,,,,,,,,,,,,,,,,,,,,,,,,,,,,,,,,,,,,,,,,,,,,,,,,,,,,,,,
,,,,,,,,,,00001590554,2020-10-18_20h33.50.100,swahili,2020.2.4,MacIntel,60,,,,,,,,,,-0.277761502,-0.051889845,1,0,0,0.612875,unsorted_card,14,0,14,0,1,,,,,,,,,,,,,,,,,,,,,,,,,,,,,,,,,,,,,,,,,,,,,,,,,,,,,,,,,,,,,,,,,,,,,,,,,,,,,,,,,
,,,,,,,,,,00001590554,2020-10-18_20h33.50.100,swahili,2020.2.4,MacIntel,60,,,,,,,,,,0.466232639,0.515558389,1,0,0,1.999195,study_pile,15,0,15,0,1,BLAME - LAWAMA,,,,,,,,,,,,,,,,,,,,,,,,,,,,,,,,,,,,,,,,,,,,,,,,,,,,,,,,,,,,,,,,,,,,,,,,,,,,,,,,
,,,,,,,,,,00001590554,2020-10-18_20h33.50.100,swahili,2020.2.4,MacIntel,60,,,,,,,,,,-0.173871528,0.062452421,1,0,0,0.71119,unsorted_card,16,0,16,0,1,,,,,,,,,,,,,,,,,,,,,,,,,,,,,,,,,,,,,,,,,,,,,,,,,,,,,,,,,,,,,,,,,,,,,,,,,,,,,,,,,
,,,,,,,,,,00001590554,2020-10-18_20h33.50.100,swahili,2020.2.4,MacIntel,60,,,,,,,,,,0.467757161,0.415442296,1,0,0,1.83112,study_pile,17,0,17,0,1,OATH - YAMINI,,,,,,,,,,,,,,,,,,,,,,,,,,,,,,,,,,,,,,,,,,,,,,,,,,,,,,,,,,,,,,,,,,,,,,,,,,,,,,,,
,,,,,,,,,,00001590554,2020-10-18_20h33.50.100,swahili,2020.2.4,MacIntel,60,,,,,,,,,,-0.239154731,-0.095814936,1,0,0,0.763405,unsorted_card,18,0,18,0,1,,,,,,,,,,,,,,,,,,,,,,,,,,,,,,,,,,,,,,,,,,,,,,,,,,,,,,,,,,,,,,,,,,,,,,,,,,,,,,,,,
,,,,,,,,,,00001590554,2020-10-18_20h33.50.100,swahili,2020.2.4,MacIntel,60,,,,,,,,,,0.441124132,0.407325289,1,0,0,1.880895,study_pile,19,0,19,0,1,CORN - NAFAKA,,,,,,,,,,,,,,,,,,,,,,,,,,,,,,,,,,,,,,,,,,,,,,,,,,,,,,,,,,,,,,,,,,,,,,,,,,,,,,,,
,,,,,,,,,,00001590554,2020-10-18_20h33.50.100,swahili,2020.2.4,MacIntel,60,,,,,,,,,,-0.112765842,0.062376294,1,0,0,0.596645,unsorted_card,20,0,20,0,1,,,,,,,,,,,,,,,,,,,,,,,,,,,,,,,,,,,,,,,,,,,,,,,,,,,,,,,,,,,,,,,,,,,,,,,,,,,,,,,,,
,,,,,,,,,,00001590554,2020-10-18_20h33.50.100,swahili,2020.2.4,MacIntel,60,,,,,,,,,,0.451421441,0.454799787,1,0,0,1.830585,study_pile,21,0,21,0,1,POEM - UTENZI,,,,,,,,,,,,,,,,,,,,,,,,,,,,,,,,,,,,,,,,,,,,,,,,,,,,,,,,,,,,,,,,,,,,,,,,,,,,,,,,
,,,,,,,,,,00001590554,2020-10-18_20h33.50.100,swahili,2020.2.4,MacIntel,60,,,,,,,,,,-0.252745226,-0.018384592,1,0,0,0.763555,unsorted_card,22,0,22,0,1,,,,,,,,,,,,,,,,,,,,,,,,,,,,,,,,,,,,,,,,,,,,,,,,,,,,,,,,,,,,,,,,,,,,,,,,,,,,,,,,,
,,,,,,,,,,00001590554,2020-10-18_20h33.50.100,swahili,2020.2.4,MacIntel,60,,,,,,,,,,0.474457465,0.482129263,1,0,0,2.59889,study_pile,23,0,23,0,1,TAILOR - MSHONI,,,,,,,,,,,,,,,,,,,,,,,,,,,,,,,,,,,,,,,,,,,,,,,,,,,,,,,,,,,,,,,,,,,,,,,,,,,,,,,,
,,,,,,,,,,00001590554,2020-10-18_20h33.50.100,swahili,2020.2.4,MacIntel,60,,,,,,,,,,-0.242480469,0.012522838,1,0,0,0.614665,unsorted_card,24,0,24,0,1,,,,,,,,,,,,,,,,,,,,,,,,,,,,,,,,,,,,,,,,,,,,,,,,,,,,,,,,,,,,,,,,,,,,,,,,,,,,,,,,,
,,,,,,,,,,00001590554,2020-10-18_20h33.50.100,swahili,2020.2.4,MacIntel,60,,,,,,,,,,0.379915365,0.460623477,1,0,0,1.930845,study_pile,25,0,25,0,1,CHEESE - JIBINI,,,,,,,,,,,,,,,,,,,,,,,,,,,,,,,,,,,,,,,,,,,,,,,,,,,,,,,,,,,,,,,,,,,,,,,,,,,,,,,,
,,,,,,,,,,00001590554,2020-10-18_20h33.50.100,swahili,2020.2.4,MacIntel,60,,,,,,,,,,-0.195968967,0.095957674,1,0,0,0.65061,unsorted_card,26,0,26,0,1,,,,,,,,,,,,,,,,,,,,,,,,,,,,,,,,,,,,,,,,,,,,,,,,,,,,,,,,,,,,,,,,,,,,,,,,,,,,,,,,,
,,,,,,,,,,00001590554,2020-10-18_20h33.50.100,swahili,2020.2.4,MacIntel,60,,,,,,,,,,0.415429687,0.548768651,1,0,0,1.861505,study_pile,27,0,27,0,1,GRAPES - ZABIBU,,,,,,,,,,,,,,,,,,,,,,,,,,,,,,,,,,,,,,,,,,,,,,,,,,,,,,,,,,,,,,,,,,,,,,,,,,,,,,,,
,,,,,,,,,,00001590554,2020-10-18_20h33.50.100,swahili,2020.2.4,MacIntel,60,,,,,,,,,,-0.353157552,0.093350335,1,0,0,0.583285,unsorted_card,28,0,28,0,1,,,,,,,,,,,,,,,,,,,,,,,,,,,,,,,,,,,,,,,,,,,,,,,,,,,,,,,,,,,,,,,,,,,,,,,,,,,,,,,,,
,,,,,,,,,,00001590554,2020-10-18_20h33.50.100,swahili,2020.2.4,MacIntel,60,,,,,,,,,,0.353917101,0.439907506,1,0,0,1.813365,study_pile,29,0,29,0,1,GRAVE - KABURI,,,,,,,,,,,,,,,,,,,,,,,,,,,,,,,,,,,,,,,,,,,,,,,,,,,,,,,,,,,,,,,,,,,,,,,,,,,,,,,,
,,,,,,,,,,00001590554,2020-10-18_20h33.50.100,swahili,2020.2.4,MacIntel,60,,,,,,,,,,-0.100455729,-0.065449909,1,0,0,0.497,unsorted_card,30,0,30,0,1,,,,,,,,,,,,,,,,,,,,,,,,,,,,,,,,,,,,,,,,,,,,,,,,,,,,,,,,,,,,,,,,,,,,,,,,,,,,,,,,,
,,,,,,,,,,00001590554,2020-10-18_20h33.50.100,swahili,2020.2.4,MacIntel,60,,,,,,,,,,0.594900174,0.528680725,1,0,0,2.54546,study_pile,31,0,31,0,1,MANURE - SAMADI,,,,,,,,,,,,,,,,,,,,,,,,,,,,,,,,,,,,,,,,,,,,,,,,,,,,,,,,,,,,,,,,,,,,,,,,,,,,,,,,
,,,,,,,,,,00001590554,2020-10-18_20h33.50.100,swahili,2020.2.4,MacIntel,60,,,,,,,,,,-0.258506944,0.026482567,1,0,0,0.515505,unsorted_card,32,0,32,0,1,,,,,,,,,,,,,,,,,,,,,,,,,,,,,,,,,,,,,,,,,,,,,,,,,,,,,,,,,,,,,,,,,,,,,,,,,,,,,,,,,
,,,,,,,,,,00001590554,2020-10-18_20h33.50.100,swahili,2020.2.4,MacIntel,60,,,,,,,,,,0.401226128,0.566144565,1,0,0,1.597035,study_pile,33,0,33,0,1,AGENT - WAKILI,,,,,,,,,,,,,,,,,,,,,,,,,,,,,,,,,,,,,,,,,,,,,,,,,,,,,,,,,,,,,,,,,,,,,,,,,,,,,,,,
,,,,,,,,,,00001590554,2020-10-18_20h33.50.100,swahili,2020.2.4,MacIntel,60,,,,,,,,,,-0.153797743,0.025416794,1,0,0,0.51553,unsorted_card,34,0,34,0,1,,,,,,,,,,,,,,,,,,,,,,,,,,,,,,,,,,,,,,,,,,,,,,,,,,,,,,,,,,,,,,,,,,,,,,,,,,,,,,,,,
,,,,,,,,,,00001590554,2020-10-18_20h33.50.100,swahili,2020.2.4,MacIntel,60,,,,,,,,,,0.540505642,0.531773371,1,0,0,1.731235,study_pile,35,0,35,0,1,BRIBE - RUSHWA,,,,,,,,,,,,,,,,,,,,,,,,,,,,,,,,,,,,,,,,,,,,,,,,,,,,,,,,,,,,,,,,,,,,,,,,,,,,,,,,
,,,,,,,,,,00001590554,2020-10-18_20h33.50.100,swahili,2020.2.4,MacIntel,60,,,,,,,,,,-0.126258681,0.021106121,1,0,0,0.564365,unsorted_card,36,0,36,0,1,,,,,,,,,,,,,,,,,,,,,,,,,,,,,,,,,,,,,,,,,,,,,,,,,,,,,,,,,,,,,,,,,,,,,,,,,,,,,,,,,
,,,,,,,,,,00001590554,2020-10-18_20h33.50.100,swahili,2020.2.4,MacIntel,60,,,,,,,,,,0.431651476,0.47405032,1,0,0,2.1473,study_pile,37,0,37,0,1,ORPHAN - YATIMA,,,,,,,,,,,,,,,,,,,,,,,,,,,,,,,,,,,,,,,,,,,,,,,,,,,,,,,,,,,,,,,,,,,,,,,,,,,,,,,,
,,,,,,,,,,00001590554,2020-10-18_20h33.50.100,swahili,2020.2.4,MacIntel,60,,,,,,,,,,-0.13085395,0.087050853,1,0,0,0.481615,unsorted_card,38,0,38,0,1,,,,,,,,,,,,,,,,,,,,,,,,,,,,,,,,,,,,,,,,,,,,,,,,,,,,,,,,,,,,,,,,,,,,,,,,,,,,,,,,,
,,,,,,,,,,00001590554,2020-10-18_20h33.50.100,swahili,2020.2.4,MacIntel,60,,,,,,,,,,0.504747179,0.618909866,1,0,0,1.66496,study_pile,39,0,39,0,1,DIVORCE - TALAKA,,,,,,,,,,,,,,,,,,,,,,,,,,,,,,,,,,,,,,,,,,,,,,,,,,,,,,,,,,,,,,,,,,,,,,,,,,,,,,,,
,,,,,,,,,,00001590554,2020-10-18_20h33.50.100,swahili,2020.2.4,MacIntel,60,,,,,,,,,,-0.092388238,0.082997107,1,0,0,0.56429,unsorted_card,40,0,40,0,1,,,,,,,,,,,,,,,,,,,,,,,,,,,,,,,,,,,,,,,,,,,,,,,,,,,,,,,,,,,,,,,,,,,,,,,,,,,,,,,,,
,,,,,,,,,,00001590554,2020-10-18_20h33.50.100,swahili,2020.2.4,MacIntel,60,,,,,,,,,,0.532172309,0.501579629,1,0,0,1.43139,study_pile,41,0,41,0,1,BOAT - MASHUA,,,,,,,,,,,,,,,,,,,,,,,,,,,,,,,,,,,,,,,,,,,,,,,,,,,,,,,,,,,,,,,,,,,,,,,,,,,,,,,,
,,,,,,,,,,00001590554,2020-10-18_20h33.50.100,swahili,2020.2.4,MacIntel,60,,,,,,,,,,-0.246587457,-0.083092266,1,0,0,0.563945,unsorted_card,42,0,42,0,1,,,,,,,,,,,,,,,,,,,,,,,,,,,,,,,,,,,,,,,,,,,,,,,,,,,,,,,,,,,,,,,,,,,,,,,,,,,,,,,,,
,,,,,,,,,,00001590554,2020-10-18_20h33.50.100,swahili,2020.2.4,MacIntel,60,,,,,,,,,,0.479779731,0.523979903,1,0,0,1.364605,study_pile,43,0,43,0,1,TREASURE - DAFINA,,,,,,,,,,,,,,,,,,,,,,,,,,,,,,,,,,,,,,,,,,,,,,,,,,,,,,,,,,,,,,,,,,,,,,,,,,,,,,,,
,,,,,,,,,,00001590554,2020-10-18_20h33.50.100,swahili,2020.2.4,MacIntel,60,,,,,,,,,,,,,,,,,,,,,,GRAVE - KABURI,,,,,,,,return,4.373455,return,1.645125,0,0,0,0,1,,,,,,,,,,,,,,,,,,,,,,,,,,,,,,,,,,,,,,,,,,,,,,,,,,,,,,,,,,,,,,,,
,,,,,,,,,,00001590554,2020-10-18_20h33.50.100,swahili,2020.2.4,MacIntel,60,,,,,,,,,,,,,,,,,,,,,,YEAST - HAMIRA,,,,,,,,,,return,1.390805,1,0,1,0,1,,,,,,,,,,,,,,,,,,,,,,,,,,,,,,,,,,,,,,,,,,,,,,,,,,,,,,,,,,,,,,,,
,,,,,,,,,,00001590554,2020-10-18_20h33.50.100,swahili,2020.2.4,MacIntel,60,,,,,,,,,,,,,,,,,,,,,,BRIBE - RUSHWA,,,,,,,,,,return,1.531115,2,0,2,0,1,,,,,,,,,,,,,,,,,,,,,,,,,,,,,,,,,,,,,,,,,,,,,,,,,,,,,,,,,,,,,,,,
,,,,,,,,,,00001590554,2020-10-18_20h33.50.100,swahili,2020.2.4,MacIntel,60,,,,,,,,,,,,,,,,,,,,,,GRAPES - ZABIBU,,,,,,,,,,return,1.42018,3,0,3,0,1,,,,,,,,,,,,,,,,,,,,,,,,,,,,,,,,,,,,,,,,,,,,,,,,,,,,,,,,,,,,,,,,
,,,,,,,,,,00001590554,2020-10-18_20h33.50.100,swahili,2020.2.4,MacIntel,60,,,,,,,,,,,,,,,,,,,,,,OATH - YAMINI,,,,,,,,,,return,1.13245,4,0,4,0,1,,,,,,,,,,,,,,,,,,,,,,,,,,,,,,,,,,,,,,,,,,,,,,,,,,,,,,,,,,,,,,,,
,,,,,,,,,,00001590554,2020-10-18_20h33.50.100,swahili,2020.2.4,MacIntel,60,,,,,,,,,,,,,,,,,,,,,,MERCHANT - TAJIRI,,,,,,,,,,return,1.19185,5,0,5,0,1,,,,,,,,,,,,,,,,,,,,,,,,,,,,,,,,,,,,,,,,,,,,,,,,,,,,,,,,,,,,,,,,
,,,,,,,,,,00001590554,2020-10-18_20h33.50.100,swahili,2020.2.4,MacIntel,60,,,,,,,,,,,,,,,,,,,,,,POEM - UTENZI,,,,,,,,,,return,1.265945,6,0,6,0,1,,,,,,,,,,,,,,,,,,,,,,,,,,,,,,,,,,,,,,,,,,,,,,,,,,,,,,,,,,,,,,,,
,,,,,,,,,,00001590554,2020-10-18_20h33.50.100,swahili,2020.2.4,MacIntel,60,,,,,,,,,,,,,,,,,,,,,,TREASURE - DAFINA,,,,,,,,,,return,1.250455,7,0,7,0,1,,,,,,,,,,,,,,,,,,,,,,,,,,,,,,,,,,,,,,,,,,,,,,,,,,,,,,,,,,,,,,,,
,,,,,,,,,,00001590554,2020-10-18_20h33.50.100,swahili,2020.2.4,MacIntel,60,,,,,,,,,,,,,,,,,,,,,,ORPHAN - YATIMA,,,,,,,,,,return,2.170365,8,0,8,0,1,,,,,,,,,,,,,,,,,,,,,,,,,,,,,,,,,,,,,,,,,,,,,,,,,,,,,,,,,,,,,,,,
,,,,,,,,,,00001590554,2020-10-18_20h33.50.100,swahili,2020.2.4,MacIntel,60,,,,,,,,,,,,,,,,,,,,,,CHEESE - JIBINI,,,,,,,,,,return,1.602855,9,0,9,0,1,,,,,,,,,,,,,,,,,,,,,,,,,,,,,,,,,,,,,,,,,,,,,,,,,,,,,,,,,,,,,,,,
,,,,,,,,,,00001590554,2020-10-18_20h33.50.100,swahili,2020.2.4,MacIntel,60,,,,,,,,,,,,,,,,,,,,,,BLAME - LAWAMA,,,,,,,,,,return,2.333865,10,0,10,0,1,,,,,,,,,,,,,,,,,,,,,,,,,,,,,,,,,,,,,,,,,,,,,,,,,,,,,,,,,,,,,,,,
,,,,,,,,,,00001590554,2020-10-18_20h33.50.100,swahili,2020.2.4,MacIntel,60,,,,,,,,,,,,,,,,,,,,,,PLATE - SAHANI,,,,,,,,,,return,1.80069,11,0,11,0,1,,,,,,,,,,,,,,,,,,,,,,,,,,,,,,,,,,,,,,,,,,,,,,,,,,,,,,,,,,,,,,,,
,,,,,,,,,,00001590554,2020-10-18_20h33.50.100,swahili,2020.2.4,MacIntel,60,,,,,,,,,,,,,,,,,,,,,,TAILOR - MSHONI,,,,,,,,,,return,2.00578,12,0,12,0,1,,,,,,,,,,,,,,,,,,,,,,,,,,,,,,,,,,,,,,,,,,,,,,,,,,,,,,,,,,,,,,,,
,,,,,,,,,,00001590554,2020-10-18_20h33.50.100,swahili,2020.2.4,MacIntel,60,,,,,,,,,,,,,,,,,,,,,,CORN - NAFAKA,,,,,,,,,,return,1.608815,13,0,13,0,1,,,,,,,,,,,,,,,,,,,,,,,,,,,,,,,,,,,,,,,,,,,,,,,,,,,,,,,,,,,,,,,,
,,,,,,,,,,00001590554,2020-10-18_20h33.50.100,swahili,2020.2.4,MacIntel,60,,,,,,,,,,,,,,,,,,,,,,PARROT - KASUKU,,,,,,,,,,return,2.503745,14,0,14,0,1,,,,,,,,,,,,,,,,,,,,,,,,,,,,,,,,,,,,,,,,,,,,,,,,,,,,,,,,,,,,,,,,
,,,,,,,,,,00001590554,2020-10-18_20h33.50.100,swahili,2020.2.4,MacIntel,60,,,,,,,,,,,,,,,,,,,,,,MANURE - SAMADI,,,,,,,,,,return,1.511075,15,0,15,0,1,,,,,,,,,,,,,,,,,,,,,,,,,,,,,,,,,,,,,,,,,,,,,,,,,,,,,,,,,,,,,,,,
,,,,,,,,,,00001590554,2020-10-18_20h33.50.100,swahili,2020.2.4,MacIntel,60,,,,,,,,,,,,,,,,,,,,,,AGENT - WAKILI,,,,,,,,,,return,1.688855,16,0,16,0,1,,,,,,,,,,,,,,,,,,,,,,,,,,,,,,,,,,,,,,,,,,,,,,,,,,,,,,,,,,,,,,,,
,,,,,,,,,,00001590554,2020-10-18_20h33.50.100,swahili,2020.2.4,MacIntel,60,,,,,,,,,,,,,,,,,,,,,,BULL - FAHILI,,,,,,,,,,return,1.88803,17,0,17,0,1,,,,,,,,,,,,,,,,,,,,,,,,,,,,,,,,,,,,,,,,,,,,,,,,,,,,,,,,,,,,,,,,
,,,,,,,,,,00001590554,2020-10-18_20h33.50.100,swahili,2020.2.4,MacIntel,60,,,,,,,,,,,,,,,,,,,,,,DIVORCE - TALAKA,,,,,,,,,,return,1.755285,18,0,18,0,1,,,,,,,,,,,,,,,,,,,,,,,,,,,,,,,,,,,,,,,,,,,,,,,,,,,,,,,,,,,,,,,,
,,,,,,,,,,00001590554,2020-10-18_20h33.50.100,swahili,2020.2.4,MacIntel,60,,,,,,,,,,,,,,,,,,,,,,BOAT - MASHUA,,,,,,,,,,return,1.935435,19,0,19,0,1,,,,,,,,,,,,,,,,,,,,,,,,,,,,,,,,,,,,,,,,,,,,,,,,,,,,,,,,,,,,,,,,
,,,,,,,,,,00001590554,2020-10-18_20h33.50.100,swahili,2020.2.4,MacIntel,60,,,,,,,,,,,,,,,,,,,,,,,,,,,,,,,,,,,,,,,,0,0,0,0,1,,,,,,,,,,,,,,,,,,,,,,,,,,,,,,,,,,,,,,,,,,,,,,,,,,,,,,,,,,
,,,,,,,,,,00001590554,2020-10-18_20h33.50.100,swahili,2020.2.4,MacIntel,60,,,,,,,,,,,,,,,,,,,,,,,,,,,,,,,,,,,,,,,,1,0,1,0,1,,,,,,,,,,,,,,,,,,,,,,,,,,,,,,,,,,,,,,,,,,,,,,,,,,,,,,,,,,
,,,,,,,,,,00001590554,2020-10-18_20h33.50.100,swahili,2020.2.4,MacIntel,60,,,,,,,,,,,,,,,,,,,,,,,,,,,,,,,,,,,,,,,,,,,,,0,0,0,0,1,,,,,,,,,,,,,,,,,,,,,,,,,,,,,,,,,,,,,,,,,,,,,,,,,,,,,
,,,,,,,,,,00001590554,2020-10-18_20h33.50.100,swahili,2020.2.4,MacIntel,60,,,,,,,,,,-0.480989583,0.217132308,1,0,0,2.731905,unsorted_card,0,0,0,0,1,,,,,,,,,,,,,,,,,,,,,,,,,,,,,,,,,,,,,,,,,,,,,,,,,,,,,,,,,,,,,,,,,,,,,,,,,,,,,,,,,
,,,,,,,,,,00001590554,2020-10-18_20h33.50.100,swahili,2020.2.4,MacIntel,60,,,,,,,,,,-0.396739366,0.055106197,1,0,0,5.26189,unsorted_card,1,0,1,0,1,MERCHANT - TAJIRI,,,,,,,,,,,,,,,,,,,,,,,,,,,,,,,,,,,,,,,,,,,,,,,,,,,,,,,,,,,,,,,,,,,,,,,,,,,,,,,,
,,,,,,,,,,00001590554,2020-10-18_20h33.50.100,swahili,2020.2.4,MacIntel,60,,,,,,,,,,0.427723524,0.017280755,1,0,0,5.431465,test_pile,2,0,2,0,1,MERCHANT - TAJIRI,,,,,,,,,,,,,,,,,,,,,,,,,,,,,,,,,,,,,,,,,,,,,,,,,,,,,,,,,,,,,,,,,,,,,,,,,,,,,,,,
,,,,,,,,,,00001590554,2020-10-18_20h33.50.100,swahili,2020.2.4,MacIntel,60,,,,,,,,,,-0.186398655,0.00849764,1,0,0,2.146105,unsorted_card,3,0,3,0,1,,,,,,,,,,,,,,,,,,,,,,,,,,,,,,,,,,,,,,,,,,,,,,,,,,,,,,,,,,,,,,,,,,,,,,,,,,,,,,,,,
,,,,,,,,,,00001590554,2020-10-18_20h33.50.100,swahili,2020.2.4,MacIntel,60,,,,,,,,,,0.454779731,-0.029889236,1,0,0,2.51535,test_pile,4,0,4,0,1,PARROT - KASUKU,,,,,,,,,,,,,,,,,,,,,,,,,,,,,,,,,,,,,,,,,,,,,,,,,,,,,,,,,,,,,,,,,,,,,,,,,,,,,,,,
,,,,,,,,,,00001590554,2020-10-18_20h33.50.100,swahili,2020.2.4,MacIntel,60,,,,,,,,,,-0.36374783,-0.000390149,1,0,0,0.46396,unsorted_card,5,0,5,0,1,,,,,,,,,,,,,,,,,,,,,,,,,,,,,,,,,,,,,,,,,,,,,,,,,,,,,,,,,,,,,,,,,,,,,,,,,,,,,,,,,
,,,,,,,,,,00001590554,2020-10-18_20h33.50.100,swahili,2020.2.4,MacIntel,60,,,,,,,,,,0.449262153,-0.011590286,1,0,0,1.613955,test_pile,6,0,6,0,1,BULL - FAHILI,,,,,,,,,,,,,,,,,,,,,,,,,,,,,,,,,,,,,,,,,,,,,,,,,,,,,,,,,,,,,,,,,,,,,,,,,,,,,,,,
,,,,,,,,,,00001590554,2020-10-18_20h33.50.100,swahili,2020.2.4,MacIntel,60,,,,,,,,,,-0.27616645,-0.120403852,1,0,0,0.597035,unsorted_card,7,0,7,0,1,,,,,,,,,,,,,,,,,,,,,,,,,,,,,,,,,,,,,,,,,,,,,,,,,,,,,,,,,,,,,,,,,,,,,,,,,,,,,,,,,
,,,,,,,,,,00001590554,2020-10-18_20h33.50.100,swahili,2020.2.4,MacIntel,60,,,,,,,,,,0.496381293,0.002198158,1,0,0,1.64867,test_pile,8,0,8,0,1,PLATE - SAHANI,,,,,,,,,,,,,,,,,,,,,,,,,,,,,,,,,,,,,,,,,,,,,,,,,,,,,,,,,,,,,,,,,,,,,,,,,,,,,,,,
,,,,,,,,,,00001590554,2020-10-18_20h33.50.100,swahili,2020.2.4,MacIntel,60,,,,,,,,,,-0.232280816,-0.068238048,1,0,0,0.53218,unsorted_card,9,0,9,0,1,,,,,,,,,,,,,,,,,,,,,,,,,,,,,,,,,,,,,,,,,,,,,,,,,,,,,,,,,,,,,,,,,,,,,,,,,,,,,,,,,
,,,,,,,,,,00001590554,2020-10-18_20h33.50.100,swahili,2020.2.4,MacIntel,60,,,,,,,,,,0.598849826,-0.200631851,1,0,0,1.66468,test_pile,10,0,10,0,1,YEAST - HAMIRA,,,,,,,,,,,,,,,,,,,,,,,,,,,,,,,,,,,,,,,,,,,,,,,,,,,,,,,,,,,,,,,,,,,,,,,,,,,,,,,,
,,,,,,,,,,00001590554,2020-10-18_20h33.50.100,swahili,2020.2.4,MacIntel,60,,,,,,,,,,-0.143191189,-0.122116702,1,0,0,0.52955,unsorted_card,11,0,11,0,1,,,,,,,,,,,,,,,,,,,,,,,,,,,,,,,,,,,,,,,,,,,,,,,,,,,,,,,,,,,,,,,,,,,,,,,,,,,,,,,,,
,,,,,,,,,,00001590554,2020-10-18_20h33.50.100,swahili,2020.2.4,MacIntel,60,,,,,,,,,,0.544346788,-0.080837013,1,0,0,1.982115,test_pile,12,0,12,0,1,BLAME - LAWAMA,,,,,,,,,,,,,,,,,,,,,,,,,,,,,,,,,,,,,,,,,,,,,,,,,,,,,,,,,,,,,,,,,,,,,,,,,,,,,,,,
,,,,,,,,,,00001590554,2020-10-18_20h33.50.100,swahili,2020.2.4,MacIntel,60,,,,,,,,,,-0.226546224,-0.109774665,1,0,0,0.78105,unsorted_card,13,0,13,0,1,,,,,,,,,,,,,,,,,,,,,,,,,,,,,,,,,,,,,,,,,,,,,,,,,,,,,,,,,,,,,,,,,,,,,,,,,,,,,,,,,
,,,,,,,,,,00001590554,2020-10-18_20h33.50.100,swahili,2020.2.4,MacIntel,60,,,,,,,,,,0.538037109,-0.063499163,1,0,0,1.39717,test_pile,14,0,14,0,1,OATH - YAMINI,,,,,,,,,,,,,,,,,,,,,,,,,,,,,,,,,,,,,,,,,,,,,,,,,,,,,,,,,,,,,,,,,,,,,,,,,,,,,,,,
,,,,,,,,,,00001590554,2020-10-18_20h33.50.100,swahili,2020.2.4,MacIntel,60,,,,,,,,,,-0.285894097,-0.078914814,1,0,0,0.582495,unsorted_card,15,0,15,0,1,,,,,,,,,,,,,,,,,,,,,,,,,,,,,,,,,,,,,,,,,,,,,,,,,,,,,,,,,,,,,,,,,,,,,,,,,,,,,,,,,
,,,,,,,,,,00001590554,2020-10-18_20h33.50.100,swahili,2020.2.4,MacIntel,60,,,,,,,,,,0.526421441,-0.00518613,1,0,0,1.130015,test_pile,16,0,16,0,1,CORN - NAFAKA,,,,,,,,,,,,,,,,,,,,,,,,,,,,,,,,,,,,,,,,,,,,,,,,,,,,,,,,,,,,,,,,,,,,,,,,,,,,,,,,
,,,,,,,,,,00001590554,2020-10-18_20h33.50.100,swahili,2020.2.4,MacIntel,60,,,,,,,,,,-0.101171875,-0.141747868,1,0,0,0.49882,unsorted_card,17,0,17,0,1,,,,,,,,,,,,,,,,,,,,,,,,,,,,,,,,,,,,,,,,,,,,,,,,,,,,,,,,,,,,,,,,,,,,,,,,,,,,,,,,,
,,,,,,,,,,00001590554,2020-10-18_20h33.50.100,swahili,2020.2.4,MacIntel,60,,,,,,,,,,0.531000434,-0.045875837,1,0,0,1.28068,test_pile,18,0,18,0,1,POEM - UTENZI,,,,,,,,,,,,,,,,,,,,,,,,,,,,,,,,,,,,,,,,,,,,,,,,,,,,,,,,,,,,,,,,,,,,,,,,,,,,,,,,
,,,,,,,,,,00001590554,2020-10-18_20h33.50.100,swahili,2020.2.4,MacIntel,60,,,,,,,,,,-0.143739149,-0.161122107,1,0,0,0.51166,unsorted_card,19,0,19,0,1,,,,,,,,,,,,,,,,,,,,,,,,,,,,,,,,,,,,,,,,,,,,,,,,,,,,,,,,,,,,,,,,,,,,,,,,,,,,,,,,,
,,,,,,,,,,00001590554,2020-10-18_20h33.50.100,swahili,2020.2.4,MacIntel,60,,,,,,,,,,0.589404297,-0.033276873,1,0,0,1.650195,test_pile,20,0,20,0,1,TAILOR - MSHONI,,,,,,,,,,,,,,,,,,,,,,,,,,,,,,,,,,,,,,,,,,,,,,,,,,,,,,,,,,,,,,,,,,,,,,,,,,,,,,,,
,,,,,,,,,,00001590554,2020-10-18_20h33.50.100,swahili,2020.2.4,MacIntel,60,,,,,,,,,,-0.246050347,-0.04813109,1,0,0,0.562265,unsorted_card,21,0,21,0,1,,,,,,,,,,,,,,,,,,,,,,,,,,,,,,,,,,,,,,,,,,,,,,,,,,,,,,,,,,,,,,,,,,,,,,,,,,,,,,,,,
,,,,,,,,,,00001590554,2020-10-18_20h33.50.100,swahili,2020.2.4,MacIntel,60,,,,,,,,,,0.388286675,0.025083739,1,0,0,1.314945,test_pile,22,0,22,0,1,CHEESE - JIBINI,,,,,,,,,,,,,,,,,,,,,,,,,,,,,,,,,,,,,,,,,,,,,,,,,,,,,,,,,,,,,,,,,,,,,,,,,,,,,,,,
,,,,,,,,,,00001590554,2020-10-18_20h33.50.100,swahili,2020.2.4,MacIntel,60,,,,,,,,,,-0.168657769,0.159923112,1,0,0,0.497115,unsorted_card,23,0,23,0,1,,,,,,,,,,,,,,,,,,,,,,,,,,,,,,,,,,,,,,,,,,,,,,,,,,,,,,,,,,,,,,,,,,,,,,,,,,,,,,,,,
,,,,,,,,,,00001590554,2020-10-18_20h33.50.100,swahili,2020.2.4,MacIntel,60,,,,,,,,,,0.504324002,-0.004586632,1,0,0,1.13129,test_pile,24,0,24,0,1,GRAPES - ZABIBU,,,,,,,,,,,,,,,,,,,,,,,,,,,,,,,,,,,,,,,,,,,,,,,,,,,,,,,,,,,,,,,,,,,,,,,,,,,,,,,,
,,,,,,,,,,00001590554,2020-10-18_20h33.50.100,swahili,2020.2.4,MacIntel,60,,,,,,,,,,-0.181770833,0.134763246,1,0,0,0.496745,unsorted_card,25,0,25,0,1,,,,,,,,,,,,,,,,,,,,,,,,,,,,,,,,,,,,,,,,,,,,,,,,,,,,,,,,,,,,,,,,,,,,,,,,,,,,,,,,,
,,,,,,,,,,00001590554,2020-10-18_20h33.50.100,swahili,2020.2.4,MacIntel,60,,,,,,,,,,0.439442274,-0.045209729,1,0,0,1.30194,test_pile,26,0,26,0,1,GRAVE - KABURI,,,,,,,,,,,,,,,,,,,,,,,,,,,,,,,,,,,,,,,,,,,,,,,,,,,,,,,,,,,,,,,,,,,,,,,,,,,,,,,,
,,,,,,,,,,00001590554,2020-10-18_20h33.50.100,swahili,2020.2.4,MacIntel,60,,,,,,,,,,-0.216851128,-0.035094397,1,0,0,0.477595,unsorted_card,27,0,27,0,1,,,,,,,,,,,,,,,,,,,,,,,,,,,,,,,,,,,,,,,,,,,,,,,,,,,,,,,,,,,,,,,,,,,,,,,,,,,,,,,,,
,,,,,,,,,,00001590554,2020-10-18_20h33.50.100,swahili,2020.2.4,MacIntel,60,,,,,,,,,,0.422455512,-0.010705314,1,0,0,1.133675,test_pile,28,0,28,0,1,MANURE - SAMADI,,,,,,,,,,,,,,,,,,,,,,,,,,,,,,,,,,,,,,,,,,,,,,,,,,,,,,,,,,,,,,,,,,,,,,,,,,,,,,,,
,,,,,,,,,,00001590554,2020-10-18_20h33.50.100,swahili,2020.2.4,MacIntel,60,,,,,,,,,,-0.146690538,0.028461861,1,0,0,0.530175,unsorted_card,29,0,29,0,1,,,,,,,,,,,,,,,,,,,,,,,,,,,,,,,,,,,,,,,,,,,,,,,,,,,,,,,,,,,,,,,,,,,,,,,,,,,,,,,,,
,,,,,,,,,,00001590554,2020-10-18_20h33.50.100,swahili,2020.2.4,MacIntel,60,,,,,,,,,,0.464138455,-0.034390225,1,0,0,1.264605,test_pile,30,0,30,0,1,AGENT - WAKILI,,,,,,,,,,,,,,,,,,,,,,,,,,,,,,,,,,,,,,,,,,,,,,,,,,,,,,,,,,,,,,,,,,,,,,,,,,,,,,,,
,,,,,,,,,,00001590554,2020-10-18_20h33.50.100,swahili,2020.2.4,MacIntel,60,,,,,,,,,,-0.140066189,0.013379263,1,0,0,0.51477,unsorted_card,31,0,31,0,1,,,,,,,,,,,,,,,,,,,,,,,,,,,,,,,,,,,,,,,,,,,,,,,,,,,,,,,,,,,,,,,,,,,,,,,,,,,,,,,,,
,,,,,,,,,,00001590554,2020-10-18_20h33.50.100,swahili,2020.2.4,MacIntel,60,,,,,,,,,,0.4828125,0.002388474,1,0,0,1.397955,test_pile,32,0,32,0,1,BRIBE - RUSHWA,,,,,,,,,,,,,,,,,,,,,,,,,,,,,,,,,,,,,,,,,,,,,,,,,,,,,,,,,,,,,,,,,,,,,,,,,,,,,,,,
,,,,,,,,,,00001590554,2020-10-18_20h33.50.100,swahili,2020.2.4,MacIntel,60,,,,,,,,,,-0.19860026,0.059797503,1,0,0,0.578815,unsorted_card,33,0,33,0,1,,,,,,,,,,,,,,,,,,,,,,,,,,,,,,,,,,,,,,,,,,,,,,,,,,,,,,,,,,,,,,,,,,,,,,,,,,,,,,,,,
,,,,,,,,,,00001590554,2020-10-18_20h33.50.100,swahili,2020.2.4,MacIntel,60,,,,,,,,,,0.439453125,-0.039014921,1,0,0,1.59992,test_pile,34,0,34,0,1,ORPHAN - YATIMA,,,,,,,,,,,,,,,,,,,,,,,,,,,,,,,,,,,,,,,,,,,,,,,,,,,,,,,,,,,,,,,,,,,,,,,,,,,,,,,,
,,,,,,,,,,00001590554,2020-10-18_20h33.50.100,swahili,2020.2.4,MacIntel,60,,,,,,,,,,-0.20296224,0.087973889,1,0,0,0.59698,unsorted_card,35,0,35,0,1,,,,,,,,,,,,,,,,,,,,,,,,,,,,,,,,,,,,,,,,,,,,,,,,,,,,,,,,,,,,,,,,,,,,,,,,,,,,,,,,,
,,,,,,,,,,00001590554,2020-10-18_20h33.50.100,swahili,2020.2.4,MacIntel,60,,,,,,,,,,0.362055122,-0.028861526,1,0,0,1.850075,test_pile,36,0,36,0,1,DIVORCE - TALAKA,,,,,,,,,,,,,,,,,,,,,,,,,,,,,,,,,,,,,,,,,,,,,,,,,,,,,,,,,,,,,,,,,,,,,,,,,,,,,,,,
,,,,,,,,,,00001590554,2020-10-18_20h33.50.100,swahili,2020.2.4,MacIntel,60,,,,,,,,,,-0.289138455,-0.071463916,1,0,0,0.613635,unsorted_card,37,0,37,0,1,,,,,,,,,,,,,,,,,,,,,,,,,,,,,,,,,,,,,,,,,,,,,,,,,,,,,,,,,,,,,,,,,,,,,,,,,,,,,,,,,
,,,,,,,,,,00001590554,2020-10-18_20h33.50.100,swahili,2020.2.4,MacIntel,60,,,,,,,,,,0.524267578,0.021505786,1,0,0,0.963575,test_pile,38,0,38,0,1,BOAT - MASHUA,,,,,,,,,,,,,,,,,,,,,,,,,,,,,,,,,,,,,,,,,,,,,,,,,,,,,,,,,,,,,,,,,,,,,,,,,,,,,,,,
,,,,,,,,,,00001590554,2020-10-18_20h33.50.100,swahili,2020.2.4,MacIntel,60,,,,,,,,,,-0.202766927,0.1204324,1,0,0,0.681775,unsorted_card,39,0,39,0,1,,,,,,,,,,,,,,,,,,,,,,,,,,,,,,,,,,,,,,,,,,,,,,,,,,,,,,,,,,,,,,,,,,,,,,,,,,,,,,,,,
,,,,,,,,,,00001590554,2020-10-18_20h33.50.100,swahili,2020.2.4,MacIntel,60,,,,,,,,,,0.530208333,-0.108090362,1,0,0,1.213635,test_pile,40,0,40,0,1,TREASURE - DAFINA,,,,,,,,,,,,,,,,,,,,,,,,,,,,,,,,,,,,,,,,,,,,,,,,,,,,,,,,,,,,,,,,,,,,,,,,,,,,,,,,
,,,,,,,,,,00001590554,2020-10-18_20h33.50.100,swahili,2020.2.4,MacIntel,60,,,,,,,,,,,,,,,,,,,,,,,,,,,,,,,,,,0,0,0,0,1,,,,,,,,,,,,,,,,,,,,,,,,,,,,,,,,,,,,,,,,,,,,,,,,,,,,,,,,,,,,,,,,
,,,,,,,,,,00001590554,2020-10-18_20h33.50.100,swahili,2020.2.4,MacIntel,60,,,,,,,,,,,,,,,,,,,,,,,,,,,,,,,,,,,,,,,return,,,,,,,,,,,1.09439,11.21582,0.434027778,-0.117653776,1,0,0,1.91277,yes,BRIBE,HIKUMA,incorrect,0,0,0,0,1,,,,,,,,,,,,,,,,,,,,,,,,,,,,,,,,,,,,
,,,,,,,,,,00001590554,2020-10-18_20h33.50.100,swahili,2020.2.4,MacIntel,60,,,,,,,,,,,,,,,,,,,,,,,,,,,,,,,,,,,,,,,,,,,,,,,,,,,4.11426,0.396375868,-0.076393118,1,0,0,1.06584,yes,PLATE,D,incorrect,1,0,1,0,1,,,,,,,,,,,,,,,,,,,,,,,,,,,,,,,,,,,,
,,,,,,,,,,00001590554,2020-10-18_20h33.50.100,swahili,2020.2.4,MacIntel,60,,,,,,,,,,,,,,,,,,,,,,,,,,,,,,,,,,,,,,,,,,,,,,,,,,,5.16411,0.443527561,-0.09546285,1,0,0,0.66761,yes,CORN,NIKILI,incorrect,2,0,2,0,1,,,,,,,,,,,,,,,,,,,,,,,,,,,,,,,,,,,,
,,,,,,,,,,00001590554,2020-10-18_20h33.50.100,swahili,2020.2.4,MacIntel,60,,,,,,,,,,,,,,,,,,,,,,,,,,,,,,,,,,,,,,,,,,,,,,,,,,,2.98221,0.45390625,-0.130661921,1,0,0,0.7329,yes,BOAT,IDK,incorrect,3,0,3,0,1,,,,,,,,,,,,,,,,,,,,,,,,,,,,,,,,,,,,
,,,,,,,,,,00001590554,2020-10-18_20h33.50.100,swahili,2020.2.4,MacIntel,60,,,,,,,,,,,,,,,,,,,,,,,,,,,,,,,,,,,,,,,,,,,,,,,,,,,3.946175,0.45625,-0.154689403,1,0,0,0.58347,yes,DIVORCE,MASHAKA,incorrect,4,0,4,0,1,,,,,,,,,,,,,,,,,,,,,,,,,,,,,,,,,,,,
,,,,,,,,,,00001590554,2020-10-18_20h33.50.100,swahili,2020.2.4,MacIntel,60,,,,,,,,,,,,,,,,,,,,,,,,,,,,,,,,,,,,,,,,,,,,,,,,,,,3.230745,0.573334418,-0.032896239,1,0,0,0.91623,yes,MANURE,MASHAKA,incorrect,5,0,5,0,1,,,,,,,,,,,,,,,,,,,,,,,,,,,,,,,,,,,,
,,,,,,,,,,00001590554,2020-10-18_20h33.50.100,swahili,2020.2.4,MacIntel,60,,,,,,,,,,,,,,,,,,,,,,,,,,,,,,,,,,,,,,,,,,,,,,,,,,,3.730235,0.561111111,-0.074756395,1,0,0,0.51519,yes,PARROT,IDK,incorrect,6,0,6,0,1,,,,,,,,,,,,,,,,,,,,,,,,,,,,,,,,,,,,
,,,,,,,,,,00001590554,2020-10-18_20h33.50.100,swahili,2020.2.4,MacIntel,60,,,,,,,,,,,,,,,,,,,,,,,,,,,,,,,,,,,,,,,,,,,,,,,,,,,3.145675,0.502511936,-0.132479446,1,0,0,0.584045,yes,BULL,MASHAKA,incorrect,7,0,7,0,1,,,,,,,,,,,,,,,,,,,,,,,,,,,,,,,,,,,,
,,,,,,,,,,00001590554,2020-10-18_20h33.50.100,swahili,2020.2.4,MacIntel,60,,,,,,,,,,,,,,,,,,,,,,,,,,,,,,,,,,,,,,,,,,,,,,,,,,,6.53202,0.381385634,-0.131423188,1,0,0,0.60043,yes,CHEESE,JIBILI,incorrect,8,0,8,0,1,,,,,,,,,,,,,,,,,,,,,,,,,,,,,,,,,,,,
,,,,,,,,,,00001590554,2020-10-18_20h33.50.100,swahili,2020.2.4,MacIntel,60,,,,,,,,,,,,,,,,,,,,,,,,,,,,,,,,,,,,,,,,,,,,,,,,,,,3.69975,0.567822266,-0.014340362,1,0,0,0.531725,yes,YEAST,MASHAKA,incorrect,9,0,9,0,1,,,,,,,,,,,,,,,,,,,,,,,,,,,,,,,,,,,,
,,,,,,,,,,00001590554,2020-10-18_20h33.50.100,swahili,2020.2.4,MacIntel,60,,,,,,,,,,,,,,,,,,,,,,,,,,,,,,,,,,,,,,,,,,,,,,,,,,,13.8971,0.414122179,-0.13429697,1,0,0,0.652405,yes,MERCHANT,S,incorrect,10,0,10,0,1,,,,,,,,,,,,,,,,,,,,,,,,,,,,,,,,,,,,
,,,,,,,,,,00001590554,2020-10-18_20h33.50.100,swahili,2020.2.4,MacIntel,60,,,,,,,,,,,,,,,,,,,,,,,,,,,,,,,,,,,,,,,,,,,,,,,,,,,4.499365,0.408295356,-0.052527406,1,0,0,0.58313,yes,OATH,S,incorrect,11,0,11,0,1,,,,,,,,,,,,,,,,,,,,,,,,,,,,,,,,,,,,
,,,,,,,,,,00001590554,2020-10-18_20h33.50.100,swahili,2020.2.4,MacIntel,60,,,,,,,,,,,,,,,,,,,,,,,,,,,,,,,,,,,,,,,,,,,,,,,,,,,4.298795,0.432714844,-0.145630329,1,0,0,0.5525,yes,TREASURE,L,incorrect,12,0,12,0,1,,,,,,,,,,,,,,,,,,,,,,,,,,,,,,,,,,,,
,,,,,,,,,,00001590554,2020-10-18_20h33.50.100,swahili,2020.2.4,MacIntel,60,,,,,,,,,,,,,,,,,,,,,,,,,,,,,,,,,,,,,,,,,,,,,,,,,,,5.33439,0.58671875,-0.174777329,1,0,0,0.68058,yes,AGENT,WILAKI,incorrect,13,0,13,0,1,,,,,,,,,,,,,,,,,,,,,,,,,,,,,,,,,,,,
,,,,,,,,,,00001590554,2020-10-18_20h33.50.100,swahili,2020.2.4,MacIntel,60,,,,,,,,,,,,,,,,,,,,,,,,,,,,,,,,,,,,,,,,,,,,,,,,,,,3.447365,0.621110026,0.027377055,1,0,0,0.533915,yes,BLAME,MASHAKA,incorrect,14,0,14,0,1,,,,,,,,,,,,,,,,,,,,,,,,,,,,,,,,,,,,
,,,,,,,,,,00001590554,2020-10-18_20h33.50.100,swahili,2020.2.4,MacIntel,60,,,,,,,,,,,,,,,,,,,,,,,,,,,,,,,,,,,,,,,,,,,,,,,,,,,5.24931,0.444504123,-0.10583511,1,0,0,0.716465,yes,POEM,SAMADI,incorrect,15,0,15,0,1,,,,,,,,,,,,,,,,,,,,,,,,,,,,,,,,,,,,
,,,,,,,,,,00001590554,2020-10-18_20h33.50.100,swahili,2020.2.4,MacIntel,60,,,,,,,,,,,,,,,,,,,,,,,,,,,,,,,,,,,,,,,,,,,,,,,,,,,2.779985,0.43359375,-0.182237744,1,0,0,0.50538,yes,GRAPES,SAMADI,incorrect,16,0,16,0,1,,,,,,,,,,,,,,,,,,,,,,,,,,,,,,,,,,,,
,,,,,,,,,,00001590554,2020-10-18_20h33.50.100,swahili,2020.2.4,MacIntel,60,,,,,,,,,,,,,,,,,,,,,,,,,,,,,,,,,,,,,,,,,,,,,,,,,,,2.165005,0.613986545,0.159523447,1,0,0,0.48277,yes,ORPHAN,H,incorrect,17,0,17,0,1,,,,,,,,,,,,,,,,,,,,,,,,,,,,,,,,,,,,
,,,,,,,,,,00001590554,2020-10-18_20h33.50.100,swahili,2020.2.4,MacIntel,60,,,,,,,,,,,,,,,,,,,,,,,,,,,,,,,,,,,,,,,,,,,,,,,,,,,2.213965,0.43600803,-0.127417022,1,0,0,0.616685,yes,GRAVE,H,incorrect,18,0,18,0,1,,,,,,,,,,,,,,,,,,,,,,,,,,,,,,,,,,,,
,,,,,,,,,,00001590554,2020-10-18_20h33.50.100,swahili,2020.2.4,MacIntel,60,,,,,,,,,,,,,,,,,,,,,,,,,,,,,,,,,,,,,,,,,,,,,,,,,,,2.530755,0.58742947,0.089810445,1,0,0,0.50057,yes,TAILOR,LALA,incorrect,19,0,19,0,1,,,,,,,,,,,,,,,,,,,,,,,,,,,,,,,,,,,,
,,,,,,,,,,00001590554,2020-10-18_20h33.50.100,swahili,2020.2.4,MacIntel,60,,,,,,,,,,,,,,,,,,,,,,,,,,,,,,,,,,,,,,,,0,0,0,0,1,,,,,,,,,,,,,,,,,,,,,,,,,,,,,,,,,,,,,,,,,,,,,,,,,,,,,,,,,,
,,,,,,,,,,00001590554,2020-10-18_20h33.50.100,swahili,2020.2.4,MacIntel,60,,,,,,,,,,,,,,,,,,,,,,,,,,,,,,,,,,,,,,,,1,0,1,0,1,,,,,,,,,,,,,,,,,,,,,,,,,,,,,,,,,,,,,,,,,,,,,,,,,,,,,,,,,,
,,,,,,,,,,00001590554,2020-10-18_20h33.50.100,swahili,2020.2.4,MacIntel,60,,,,,,,,,,,,,,,,,,,,,,,,,,,,,,,,,,,,,,,,,,,,,1,0,1,0,1,,,,,,,,,,,,,,,,,,,,,,,,,,,,,,,,,,,,,,,,,,,,,,,,,,,,,
,,,,,,,,,,00001590554,2020-10-18_20h33.50.100,swahili,2020.2.4,MacIntel,60,,,,,,,,,,-0.17077908,-0.165499391,1,0,0,5.03692,unsorted_card,0,0,0,0,1,,,,,,,,,,,,,,,,,,,,,,,,,,,,,,,,,,,,,,,,,,,,,,,,,,,,,,,,,,,,,,,,,,,,,,,,,,,,,,,,,
,,,,,,,,,,00001590554,2020-10-18_20h33.50.100,swahili,2020.2.4,MacIntel,60,,,,,,,,,,-0.198838976,-0.073062576,1,0,0,5.44909,unsorted_card,1,0,1,0,1,MERCHANT - TAJIRI,,,,,,,,,,,,,,,,,,,,,,,,,,,,,,,,,,,,,,,,,,,,,,,,,,,,,,,,,,,,,,,,,,,,,,,,,,,,,,,,
,,,,,,,,,,00001590554,2020-10-18_20h33.50.100,swahili,2020.2.4,MacIntel,60,,,,,,,,,,-0.237950304,-0.12152672,1,0,0,1.37962,unsorted_card,2,0,2,0,1,MERCHANT - TAJIRI,,,,,,,,,,,,,,,,,,,,,,,,,,,,,,,,,,,,,,,,,,,,,,,,,,,,,,,,,,,,,,,,,,,,,,,,,,,,,,,,
,,,,,,,,,,00001590554,2020-10-18_20h33.50.100,swahili,2020.2.4,MacIntel,60,,,,,,,,,,0.600678168,-0.09768004,1,0,0,1.20217,test_pile,3,0,3,0,1,MERCHANT - TAJIRI,,,,,,,,,,,,,,,,,,,,,,,,,,,,,,,,,,,,,,,,,,,,,,,,,,,,,,,,,,,,,,,,,,,,,,,,,,,,,,,,
,,,,,,,,,,00001590554,2020-10-18_20h33.50.100,swahili,2020.2.4,MacIntel,60,,,,,,,,,,-0.225770399,-0.105635277,1,0,0,0.796585,unsorted_card,4,0,4,0,1,,,,,,,,,,,,,,,,,,,,,,,,,,,,,,,,,,,,,,,,,,,,,,,,,,,,,,,,,,,,,,,,,,,,,,,,,,,,,,,,,
,,,,,,,,,,00001590554,2020-10-18_20h33.50.100,swahili,2020.2.4,MacIntel,60,,,,,,,,,,0.54077691,0.0457331,1,0,0,1.962015,test_pile,5,0,5,0,1,PARROT - KASUKU,,,,,,,,,,,,,,,,,,,,,,,,,,,,,,,,,,,,,,,,,,,,,,,,,,,,,,,,,,,,,,,,,,,,,,,,,,,,,,,,
,,,,,,,,,,00001590554,2020-10-18_20h33.50.100,swahili,2020.2.4,MacIntel,60,,,,,,,,,,-0.274441189,0.026216124,1,0,0,0.545335,unsorted_card,6,0,6,0,1,,,,,,,,,,,,,,,,,,,,,,,,,,,,,,,,,,,,,,,,,,,,,,,,,,,,,,,,,,,,,,,,,,,,,,,,,,,,,,,,,
,,,,,,,,,,00001590554,2020-10-18_20h33.50.100,swahili,2020.2.4,MacIntel,60,,,,,,,,,,0.389838325,0.032610764,1,0,0,1.28315,test_pile,7,0,7,0,1,BULL - FAHILI,,,,,,,,,,,,,,,,,,,,,,,,,,,,,,,,,,,,,,,,,,,,,,,,,,,,,,,,,,,,,,,,,,,,,,,,,,,,,,,,
,,,,,,,,,,00001590554,2020-10-18_20h33.50.100,swahili,2020.2.4,MacIntel,60,,,,,,,,,,-0.287093099,-0.100392052,1,0,0,0.465845,unsorted_card,8,0,8,0,1,,,,,,,,,,,,,,,,,,,,,,,,,,,,,,,,,,,,,,,,,,,,,,,,,,,,,,,,,,,,,,,,,,,,,,,,,,,,,,,,,
,,,,,,,,,,00001590554,2020-10-18_20h33.50.100,swahili,2020.2.4,MacIntel,60,,,,,,,,,,0.475054253,-0.076849878,1,0,0,1.08096,test_pile,9,0,9,0,1,PLATE - SAHANI,,,,,,,,,,,,,,,,,,,,,,,,,,,,,,,,,,,,,,,,,,,,,,,,,,,,,,,,,,,,,,,,,,,,,,,,,,,,,,,,
,,,,,,,,,,00001590554,2020-10-18_20h33.50.100,swahili,2020.2.4,MacIntel,60,,,,,,,,,,-0.260346137,-0.190554583,1,0,0,0.495645,unsorted_card,10,0,10,0,1,,,,,,,,,,,,,,,,,,,,,,,,,,,,,,,,,,,,,,,,,,,,,,,,,,,,,,,,,,,,,,,,,,,,,,,,,,,,,,,,,
,,,,,,,,,,00001590554,2020-10-18_20h33.50.100,swahili,2020.2.4,MacIntel,60,,,,,,,,,,0.446310764,-0.063660932,1,0,0,1.46665,test_pile,11,0,11,0,1,YEAST - HAMIRA,,,,,,,,,,,,,,,,,,,,,,,,,,,,,,,,,,,,,,,,,,,,,,,,,,,,,,,,,,,,,,,,,,,,,,,,,,,,,,,,
,,,,,,,,,,00001590554,2020-10-18_20h33.50.100,swahili,2020.2.4,MacIntel,60,,,,,,,,,,-0.283203125,0.019640682,1,0,0,0.59367,unsorted_card,12,0,12,0,1,,,,,,,,,,,,,,,,,,,,,,,,,,,,,,,,,,,,,,,,,,,,,,,,,,,,,,,,,,,,,,,,,,,,,,,,,,,,,,,,,
,,,,,,,,,,00001590554,2020-10-18_20h33.50.100,swahili,2020.2.4,MacIntel,60,,,,,,,,,,0.457888455,-0.058760277,1,0,0,2.031165,test_pile,13,0,13,0,1,BLAME - LAWAMA,,,,,,,,,,,,,,,,,,,,,,,,,,,,,,,,,,,,,,,,,,,,,,,,,,,,,,,,,,,,,,,,,,,,,,,,,,,,,,,,
,,,,,,,,,,00001590554,2020-10-18_20h33.50.100,swahili,2020.2.4,MacIntel,60,,,,,,,,,,-0.1910102,-0.07293887,1,0,0,0.679745,unsorted_card,14,0,14,0,1,,,,,,,,,,,,,,,,,,,,,,,,,,,,,,,,,,,,,,,,,,,,,,,,,,,,,,,,,,,,,,,,,,,,,,,,,,,,,,,,,
,,,,,,,,,,00001590554,2020-10-18_20h33.50.100,swahili,2020.2.4,MacIntel,60,,,,,,,,,,0.452799479,-0.001417859,1,0,0,2.531745,test_pile,15,0,15,0,1,OATH - YAMINI,,,,,,,,,,,,,,,,,,,,,,,,,,,,,,,,,,,,,,,,,,,,,,,,,,,,,,,,,,,,,,,,,,,,,,,,,,,,,,,,
,,,,,,,,,,00001590554,2020-10-18_20h33.50.100,swahili,2020.2.4,MacIntel,60,,,,,,,,,,-0.295654297,0.11250571,1,0,0,0.45027,unsorted_card,16,0,16,0,1,,,,,,,,,,,,,,,,,,,,,,,,,,,,,,,,,,,,,,,,,,,,,,,,,,,,,,,,,,,,,,,,,,,,,,,,,,,,,,,,,
,,,,,,,,,,00001590554,2020-10-18_20h33.50.100,swahili,2020.2.4,MacIntel,60,,,,,,,,,,0.414198134,-0.016643194,1,0,0,3.014915,test_pile,17,0,17,0,1,CORN - NAFAKA,,,,,,,,,,,,,,,,,,,,,,,,,,,,,,,,,,,,,,,,,,,,,,,,,,,,,,,,,,,,,,,,,,,,,,,,,,,,,,,,
,,,,,,,,,,00001590554,2020-10-18_20h33.50.100,swahili,2020.2.4,MacIntel,60,,,,,,,,,,-0.462483724,0.142823158,1,0,0,0.445615,unsorted_card,18,0,18,0,1,,,,,,,,,,,,,,,,,,,,,,,,,,,,,,,,,,,,,,,,,,,,,,,,,,,,,,,,,,,,,,,,,,,,,,,,,,,,,,,,,
,,,,,,,,,,00001590554,2020-10-18_20h33.50.100,swahili,2020.2.4,MacIntel,60,,,,,,,,,,0.423193359,0.011913825,1,0,0,1.864015,test_pile,19,0,19,0,1,POEM - UTENZI,,,,,,,,,,,,,,,,,,,,,,,,,,,,,,,,,,,,,,,,,,,,,,,,,,,,,,,,,,,,,,,,,,,,,,,,,,,,,,,,
,,,,,,,,,,00001590554,2020-10-18_20h33.50.100,swahili,2020.2.4,MacIntel,60,,,,,,,,,,-0.204025608,0.074823005,1,0,0,0.63049,unsorted_card,20,0,20,0,1,,,,,,,,,,,,,,,,,,,,,,,,,,,,,,,,,,,,,,,,,,,,,,,,,,,,,,,,,,,,,,,,,,,,,,,,,,,,,,,,,
,,,,,,,,,,00001590554,2020-10-18_20h33.50.100,swahili,2020.2.4,MacIntel,60,,,,,,,,,,0.556391059,-0.030993072,1,0,0,2.36515,test_pile,21,0,21,0,1,TAILOR - MSHONI,,,,,,,,,,,,,,,,,,,,,,,,,,,,,,,,,,,,,,,,,,,,,,,,,,,,,,,,,,,,,,,,,,,,,,,,,,,,,,,,
,,,,,,,,,,00001590554,2020-10-18_20h33.50.100,swahili,2020.2.4,MacIntel,60,,,,,,,,,,-0.218869358,0.111477999,1,0,0,0.581915,unsorted_card,22,0,22,0,1,,,,,,,,,,,,,,,,,,,,,,,,,,,,,,,,,,,,,,,,,,,,,,,,,,,,,,,,,,,,,,,,,,,,,,,,,,,,,,,,,
,,,,,,,,,,00001590554,2020-10-18_20h33.50.100,swahili,2020.2.4,MacIntel,60,,,,,,,,,,0.432221137,0.095891063,1,0,0,1.24982,test_pile,23,0,23,0,1,CHEESE - JIBINI,,,,,,,,,,,,,,,,,,,,,,,,,,,,,,,,,,,,,,,,,,,,,,,,,,,,,,,,,,,,,,,,,,,,,,,,,,,,,,,,
,,,,,,,,,,00001590554,2020-10-18_20h33.50.100,swahili,2020.2.4,MacIntel,60,,,,,,,,,,-0.122330729,0.135058237,1,0,0,0.485115,unsorted_card,24,0,24,0,1,,,,,,,,,,,,,,,,,,,,,,,,,,,,,,,,,,,,,,,,,,,,,,,,,,,,,,,,,,,,,,,,,,,,,,,,,,,,,,,,,
,,,,,,,,,,00001590554,2020-10-18_20h33.50.100,swahili,2020.2.4,MacIntel,60,,,,,,,,,,0.414903429,0.075194123,1,0,0,2.796045,test_pile,25,0,25,0,1,GRAPES - ZABIBU,,,,,,,,,,,,,,,,,,,,,,,,,,,,,,,,,,,,,,,,,,,,,,,,,,,,,,,,,,,,,,,,,,,,,,,,,,,,,,,,
,,,,,,,,,,00001590554,2020-10-18_20h33.50.100,swahili,2020.2.4,MacIntel,60,,,,,,,,,,-0.140136719,0.047750457,1,0,0,0.49525,unsorted_card,26,0,26,0,1,,,,,,,,,,,,,,,,,,,,,,,,,,,,,,,,,,,,,,,,,,,,,,,,,,,,,,,,,,,,,,,,,,,,,,,,,,,,,,,,,
,,,,,,,,,,00001590554,2020-10-18_20h33.50.100,swahili,2020.2.4,MacIntel,60,,,,,,,,,,0.242442491,-0.031069199,1,0,0,3.5788,test_pile,27,0,27,0,1,GRAVE - KABURI,,,,,,,,,,,,,,,,,,,,,,,,,,,,,,,,,,,,,,,,,,,,,,,,,,,,,,,,,,,,,,,,,,,,,,,,,,,,,,,,
,,,,,,,,,,00001590554,2020-10-18_20h33.50.100,swahili,2020.2.4,MacIntel,60,,,,,,,,,,-0.384912109,0.084215134,1,0,0,0.43058,unsorted_card,28,0,28,0,1,,,,,,,,,,,,,,,,,,,,,,,,,,,,,,,,,,,,,,,,,,,,,,,,,,,,,,,,,,,,,,,,,,,,,,,,,,,,,,,,,
,,,,,,,,,,00001590554,2020-10-18_20h33.50.100,swahili,2020.2.4,MacIntel,60,,,,,,,,,,0.437679036,-0.037530451,1,0,0,1.613,test_pile,29,0,29,0,1,MANURE - SAMADI,,,,,,,,,,,,,,,,,,,,,,,,,,,,,,,,,,,,,,,,,,,,,,,,,,,,,,,,,,,,,,,,,,,,,,,,,,,,,,,,
,,,,,,,,,,00001590554,2020-10-18_20h33.50.100,swahili,2020.2.4,MacIntel,60,,,,,,,,,,-0.283056641,0.196597138,1,0,0,0.481345,unsorted_card,30,0,30,0,1,,,,,,,,,,,,,,,,,,,,,,,,,,,,,,,,,,,,,,,,,,,,,,,,,,,,,,,,,,,,,,,,,,,,,,,,,,,,,,,,,
,,,,,,,,,,00001590554,2020-10-18_20h33.50.100,swahili,2020.2.4,MacIntel,60,,,,,,,,,,0.423958333,-0.018698614,1,0,0,1.247945,test_pile,31,0,31,0,1,AGENT - WAKILI,,,,,,,,,,,,,,,,,,,,,,,,,,,,,,,,,,,,,,,,,,,,,,,,,,,,,,,,,,,,,,,,,,,,,,,,,,,,,,,,
,,,,,,,,,,00001590554,2020-10-18_20h33.50.100,swahili,2020.2.4,MacIntel,60,,,,,,,,,,-0.140782335,0.097090058,1,0,0,0.49841,unsorted_card,32,0,32,0,1,,,,,,,,,,,,,,,,,,,,,,,,,,,,,,,,,,,,,,,,,,,,,,,,,,,,,,,,,,,,,,,,,,,,,,,,,,,,,,,,,
,,,,,,,,,,00001590554,2020-10-18_20h33.50.100,swahili,2020.2.4,MacIntel,60,,,,,,,,,,0.377918837,-0.015691611,1,0,0,1.932075,test_pile,33,0,33,0,1,BRIBE - RUSHWA,,,,,,,,,,,,,,,,,,,,,,,,,,,,,,,,,,,,,,,,,,,,,,,,,,,,,,,,,,,,,,,,,,,,,,,,,,,,,,,,
,,,,,,,,,,00001590554,2020-10-18_20h33.50.100,swahili,2020.2.4,MacIntel,60,,,,,,,,,,-0.229991319,0.145145021,1,0,0,0.54611,unsorted_card,34,0,34,0,1,,,,,,,,,,,,,,,,,,,,,,,,,,,,,,,,,,,,,,,,,,,,,,,,,,,,,,,,,,,,,,,,,,,,,,,,,,,,,,,,,
,,,,,,,,,,00001590554,2020-10-18_20h33.50.100,swahili,2020.2.4,MacIntel,60,,,,,,,,,,0.371207682,0.03056486,1,0,0,6.0146,test_pile,35,0,35,0,1,ORPHAN - YATIMA,,,,,,,,,,,,,,,,,,,,,,,,,,,,,,,,,,,,,,,,,,,,,,,,,,,,,,,,,,,,,,,,,,,,,,,,,,,,,,,,
,,,,,,,,,,00001590554,2020-10-18_20h33.50.100,swahili,2020.2.4,MacIntel,60,,,,,,,,,,-0.274869792,0.110317068,1,0,0,0.48006,unsorted_card,36,0,36,0,1,,,,,,,,,,,,,,,,,,,,,,,,,,,,,,,,,,,,,,,,,,,,,,,,,,,,,,,,,,,,,,,,,,,,,,,,,,,,,,,,,
,,,,,,,,,,00001590554,2020-10-18_20h33.50.100,swahili,2020.2.4,MacIntel,60,,,,,,,,,,0.375092231,-0.109593864,1,0,0,3.247895,test_pile,37,0,37,0,1,DIVORCE - TALAKA,,,,,,,,,,,,,,,,,,,,,,,,,,,,,,,,,,,,,,,,,,,,,,,,,,,,,,,,,,,,,,,,,,,,,,,,,,,,,,,,
,,,,,,,,,,00001590554,2020-10-18_20h33.50.100,swahili,2020.2.4,MacIntel,60,,,,,,,,,,-0.171961806,0.045752132,1,0,0,0.46516,unsorted_card,38,0,38,0,1,,,,,,,,,,,,,,,,,,,,,,,,,,,,,,,,,,,,,,,,,,,,,,,,,,,,,,,,,,,,,,,,,,,,,,,,,,,,,,,,,
,,,,,,,,,,00001590554,2020-10-18_20h33.50.100,swahili,2020.2.4,MacIntel,60,,,,,,,,,,0.494097222,-0.020297275,1,0,0,5.881685,test_pile,39,0,39,0,1,BOAT - MASHUA,,,,,,,,,,,,,,,,,,,,,,,,,,,,,,,,,,,,,,,,,,,,,,,,,,,,,,,,,,,,,,,,,,,,,,,,,,,,,,,,
,,,,,,,,,,00001590554,2020-10-18_20h33.50.100,swahili,2020.2.4,MacIntel,60,,,,,,,,,,-0.174500868,0.101296057,1,0,0,0.61407,unsorted_card,40,0,40,0,1,,,,,,,,,,,,,,,,,,,,,,,,,,,,,,,,,,,,,,,,,,,,,,,,,,,,,,,,,,,,,,,,,,,,,,,,,,,,,,,,,
,,,,,,,,,,00001590554,2020-10-18_20h33.50.100,swahili,2020.2.4,MacIntel,60,,,,,,,,,,0.376779514,0.021895935,1,0,0,4.28117,test_pile,41,0,41,0,1,TREASURE - DAFINA,,,,,,,,,,,,,,,,,,,,,,,,,,,,,,,,,,,,,,,,,,,,,,,,,,,,,,,,,,,,,,,,,,,,,,,,,,,,,,,,
,,,,,,,,,,00001590554,2020-10-18_20h33.50.100,swahili,2020.2.4,MacIntel,60,,,,,,,,,,,,,,,,,,,,,,,,,,,,,,,,,,0,0,0,0,1,,,,,,,,,,,,,,,,,,,,,,,,,,,,,,,,,,,,,,,,,,,,,,,,,,,,,,,,,,,,,,,,
,,,,,,,,,,00001590554,2020-10-18_20h33.50.100,swahili,2020.2.4,MacIntel,60,,,,,,,,,,,,,,,,,,,,,,,,,,,,,,,,,,,,,,,return,,,,,,,,,,,2.46492,4.946825,0.438248698,-0.098241474,1,0,0,0.599085,yes,POEM,UTENZI,incorrect,0,0,0,0,1,,,,,,,,,,,,,,,,,,,,,,,,,,,,,,,,,,,,
,,,,,,,,,,00001590554,2020-10-18_20h33.50.100,swahili,2020.2.4,MacIntel,60,,,,,,,,,,,,,,,,,,,,,,,,,,,,,,,,,,,,,,,,,,,,,,,,,,,7.095745,0.408946398,-0.088059531,1,0,0,0.581715,yes,PLATE,D,incorrect,1,0,1,0,1,,,,,,,,,,,,,,,,,,,,,,,,,,,,,,,,,,,,
,,,,,,,,,,00001590554,2020-10-18_20h33.50.100,swahili,2020.2.4,MacIntel,60,,,,,,,,,,,,,,,,,,,,,,,,,,,,,,,,,,,,,,,,,,,,,,,,,,,2.314035,0.388454861,-0.155660018,1,0,0,0.567155,yes,PARROT,D,incorrect,2,0,2,0,1,,,,,,,,,,,,,,,,,,,,,,,,,,,,,,,,,,,,
,,,,,,,,,,00001590554,2020-10-18_20h33.50.100,swahili,2020.2.4,MacIntel,60,,,,,,,,,,,,,,,,,,,,,,,,,,,,,,,,,,,,,,,,,,,,,,,,,,,4.32955,0.524099392,-0.053640758,1,0,0,0.516915,yes,OATH,L,incorrect,3,0,3,0,1,,,,,,,,,,,,,,,,,,,,,,,,,,,,,,,,,,,,
,,,,,,,,,,00001590554,2020-10-18_20h33.50.100,swahili,2020.2.4,MacIntel,60,,,,,,,,,,,,,,,,,,,,,,,,,,,,,,,,,,,,,,,,,,,,,,,,,,,10.230365,0.581450738,-0.015653548,1,0,0,0.499715,yes,MERCHANT,SHMOA,incorrect,4,0,4,0,1,,,,,,,,,,,,,,,,,,,,,,,,,,,,,,,,,,,,
,,,,,,,,,,00001590554,2020-10-18_20h33.50.100,swahili,2020.2.4,MacIntel,60,,,,,,,,,,,,,,,,,,,,,,,,,,,,,,,,,,,,,,,,,,,,,,,,,,,3.812435,0.506792535,-0.013731349,1,0,0,0.51748,yes,BRIBE,RUSHANA,incorrect,5,0,5,0,1,,,,,,,,,,,,,,,,,,,,,,,,,,,,,,,,,,,,
,,,,,,,,,,00001590554,2020-10-18_20h33.50.100,swahili,2020.2.4,MacIntel,60,,,,,,,,,,,,,,,,,,,,,,,,,,,,,,,,,,,,,,,,,,,,,,,,,,,4.36661,0.472547743,-0.168649132,1,0,0,0.565655,yes,GRAVE,TAKAMA,incorrect,6,0,6,0,1,,,,,,,,,,,,,,,,,,,,,,,,,,,,,,,,,,,,
,,,,,,,,,,00001590554,2020-10-18_20h33.50.100,swahili,2020.2.4,MacIntel,60,,,,,,,,,,,,,,,,,,,,,,,,,,,,,,,,,,,,,,,,,,,,,,,,,,,6.11361,0.452224392,-0.054211708,1,0,0,0.61729,yes,ORPHAN,YATIM,incorrect,7,0,7,0,1,,,,,,,,,,,,,,,,,,,,,,,,,,,,,,,,,,,,
,,,,,,,,,,00001590554,2020-10-18_20h33.50.100,swahili,2020.2.4,MacIntel,60,,,,,,,,,,,,,,,,,,,,,,,,,,,,,,,,,,,,,,,,,,,,,,,,,,,5.89948,0.431233724,-0.0891824,1,0,0,0.483715,yes,TAILOR,MSHORA,incorrect,8,0,8,0,1,,,,,,,,,,,,,,,,,,,,,,,,,,,,,,,,,,,,
,,,,,,,,,,00001590554,2020-10-18_20h33.50.100,swahili,2020.2.4,MacIntel,60,,,,,,,,,,,,,,,,,,,,,,,,,,,,,,,,,,,,,,,,,,,,,,,,,,,4.796865,0.459114583,-0.032258678,1,0,0,0.550005,yes,DIVORCE,TAYA,incorrect,9,0,9,0,1,,,,,,,,,,,,,,,,,,,,,,,,,,,,,,,,,,,,
,,,,,,,,,,00001590554,2020-10-18_20h33.50.100,swahili,2020.2.4,MacIntel,60,,,,,,,,,,,,,,,,,,,,,,,,,,,,,,,,,,,,,,,,,,,,,,,,,,,2.96647,0.511767578,0.040385201,1,0,0,0.682785,yes,AGENT,WAKILI,incorrect,10,0,10,0,1,,,,,,,,,,,,,,,,,,,,,,,,,,,,,,,,,,,,
,,,,,,,,,,00001590554,2020-10-18_20h33.50.100,swahili,2020.2.4,MacIntel,60,,,,,,,,,,,,,,,,,,,,,,,,,,,,,,,,,,,,,,,,,,,,,,,,,,,3.366485,0.558778212,-0.046142281,1,0,0,0.5164,yes,GRAPES,JUBORI,incorrect,11,0,11,0,1,,,,,,,,,,,,,,,,,,,,,,,,,,,,,,,,,,,,
,,,,,,,,,,00001590554,2020-10-18_20h33.50.100,swahili,2020.2.4,MacIntel,60,,,,,,,,,,,,,,,,,,,,,,,,,,,,,,,,,,,,,,,,,,,,,,,,,,,3.7134,0.377403429,-0.009953563,1,0,0,0.623885,yes,BOAT,S,incorrect,12,0,12,0,1,,,,,,,,,,,,,,,,,,,,,,,,,,,,,,,,,,,,
,,,,,,,,,,00001590554,2020-10-18_20h33.50.100,swahili,2020.2.4,MacIntel,60,,,,,,,,,,,,,,,,,,,,,,,,,,,,,,,,,,,,,,,,,,,,,,,,,,,5.79728,0.462906901,-0.109365484,1,0,0,0.568045,yes,CHEESE,JIBINI,incorrect,13,0,13,0,1,,,,,,,,,,,,,,,,,,,,,,,,,,,,,,,,,,,,
,,,,,,,,,,00001590554,2020-10-18_20h33.50.100,swahili,2020.2.4,MacIntel,60,,,,,,,,,,,,,,,,,,,,,,,,,,,,,,,,,,,,,,,,,,,,,,,,,,,3.41259,0.474555122,-0.028775883,1,0,0,0.53375,yes,BLAME,L,incorrect,14,0,14,0,1,,,,,,,,,,,,,,,,,,,,,,,,,,,,,,,,,,,,
,,,,,,,,,,00001590554,2020-10-18_20h33.50.100,swahili,2020.2.4,MacIntel,60,,,,,,,,,,,,,,,,,,,,,,,,,,,,,,,,,,,,,,,,,,,,,,,,,,,7.98356,0.333409288,-0.13452535,1,0,0,0.5992,yes,CORN,S,incorrect,15,0,15,0,1,,,,,,,,,,,,,,,,,,,,,,,,,,,,,,,,,,,,
,,,,,,,,,,00001590554,2020-10-18_20h33.50.100,swahili,2020.2.4,MacIntel,60,,,,,,,,,,,,,,,,,,,,,,,,,,,,,,,,,,,,,,,,,,,,,,,,,,,3.498605,0.315180122,-0.181457445,1,0,0,0.5348,yes,MANURE,SAMADI,incorrect,16,0,16,0,1,,,,,,,,,,,,,,,,,,,,,,,,,,,,,,,,,,,,
,,,,,,,,,,00001590554,2020-10-18_20h33.50.100,swahili,2020.2.4,MacIntel,60,,,,,,,,,,,,,,,,,,,,,,,,,,,,,,,,,,,,,,,,,,,,,,,,,,,2.848355,0.650455729,-0.05110003,1,0,0,0.48323,yes,BULL,MASHUA,incorrect,17,0,17,0,1,,,,,,,,,,,,,,,,,,,,,,,,,,,,,,,,,,,,
,,,,,,,,,,00001590554,2020-10-18_20h33.50.100,swahili,2020.2.4,MacIntel,60,,,,,,,,,,,,,,,,,,,,,,,,,,,,,,,,,,,,,,,,,,,,,,,,,,,2.013775,0.37351888,-0.111306714,1,0,0,0.616875,yes,TREASURE,S,incorrect,18,0,18,0,1,,,,,,,,,,,,,,,,,,,,,,,,,,,,,,,,,,,,
,,,,,,,,,,00001590554,2020-10-18_20h33.50.100,swahili,2020.2.4,MacIntel,60,,,,,,,,,,,,,,,,,,,,,,,,,,,,,,,,,,,,,,,,,,,,,,,,,,,2.781535,0.548817274,-0.103104065,1,0,0,0.498355,yes,YEAST,HAMIRA,incorrect,19,0,19,0,1,,,,,,,,,,,,,,,,,,,,,,,,,,,,,,,,,,,,
,,,,,,,,,,00001590554,2020-10-18_20h33.50.100,swahili,2020.2.4,MacIntel,60,,,,,,,,,,,,,,,,,,,,,,,,,,,,,,,,,,,,,,,,0,0,0,0,1,,,,,,,,,,,,,,,,,,,,,,,,,,,,,,,,,,,,,,,,,,,,,,,,,,,,,,,,,,
,,,,,,,,,,00001590554,2020-10-18_20h33.50.100,swahili,2020.2.4,MacIntel,60,,,,,,,,,,,,,,,,,,,,,,,,,,,,,,,,,,,,,,,,1,0,1,0,1,,,,,,,,,,,,,,,,,,,,,,,,,,,,,,,,,,,,,,,,,,,,,,,,,,,,,,,,,,
,,,,,,,,,,00001590554,2020-10-18_20h33.50.100,swahili,2020.2.4,MacIntel,60,,,,,,,,,,,,,,,,,,,,,,,,,,,,,,,,,,,,,,,,,,,,,2,0,2,0,1,,,,,,,,,,,,,,,,,,,,,,,,,,,,,,,,,,,,,,,,,,,,,,,,,,,,,
,,,,,,,,,,00001590554,2020-10-18_20h33.50.100,swahili,2020.2.4,MacIntel,60,,,,,,,,,,-0.252783203,-0.197386952,1,0,0,0.97073,unsorted_card,0,0,0,0,1,,,,,,,,,,,,,,,,,,,,,,,,,,,,,,,,,,,,,,,,,,,,,,,,,,,,,,,,,,,,,,,,,,,,,,,,,,,,,,,,,
,,,,,,,,,,00001590554,2020-10-18_20h33.50.100,swahili,2020.2.4,MacIntel,60,,,,,,,,,,0.437673611,0.010315164,1,0,0,1.78245,test_pile,1,0,1,0,1,MERCHANT - TAJIRI,,,,,,,,,,,,,,,,,,,,,,,,,,,,,,,,,,,,,,,,,,,,,,,,,,,,,,,,,,,,,,,,,,,,,,,,,,,,,,,,
,,,,,,,,,,00001590554,2020-10-18_20h33.50.100,swahili,2020.2.4,MacIntel,60,,,,,,,,,,-0.226784939,-0.010857567,1,0,0,0.46295,unsorted_card,2,0,2,0,1,,,,,,,,,,,,,,,,,,,,,,,,,,,,,,,,,,,,,,,,,,,,,,,,,,,,,,,,,,,,,,,,,,,,,,,,,,,,,,,,,
,,,,,,,,,,00001590554,2020-10-18_20h33.50.100,swahili,2020.2.4,MacIntel,60,,,,,,,,,,0.435796441,0.047255633,1,0,0,0.950975,test_pile,3,0,3,0,1,PARROT - KASUKU,,,,,,,,,,,,,,,,,,,,,,,,,,,,,,,,,,,,,,,,,,,,,,,,,,,,,,,,,,,,,,,,,,,,,,,,,,,,,,,,
,,,,,,,,,,00001590554,2020-10-18_20h33.50.100,swahili,2020.2.4,MacIntel,60,,,,,,,,,,-0.205360243,0.05480169,1,0,0,0.44568,unsorted_card,4,0,4,0,1,,,,,,,,,,,,,,,,,,,,,,,,,,,,,,,,,,,,,,,,,,,,,,,,,,,,,,,,,,,,,,,,,,,,,,,,,,,,,,,,,
,,,,,,,,,,00001590554,2020-10-18_20h33.50.100,swahili,2020.2.4,MacIntel,60,,,,,,,,,,0.362331814,0.023637333,1,0,0,1.048675,test_pile,5,0,5,0,1,BULL - FAHILI,,,,,,,,,,,,,,,,,,,,,,,,,,,,,,,,,,,,,,,,,,,,,,,,,,,,,,,,,,,,,,,,,,,,,,,,,,,,,,,,
,,,,,,,,,,00001590554,2020-10-18_20h33.50.100,swahili,2020.2.4,MacIntel,60,,,,,,,,,,-0.273898655,0.083682247,1,0,0,0.398745,unsorted_card,6,0,6,0,1,,,,,,,,,,,,,,,,,,,,,,,,,,,,,,,,,,,,,,,,,,,,,,,,,,,,,,,,,,,,,,,,,,,,,,,,,,,,,,,,,
,,,,,,,,,,00001590554,2020-10-18_20h33.50.100,swahili,2020.2.4,MacIntel,60,,,,,,,,,,0.481998698,0.019345691,1,0,0,1.198345,test_pile,7,0,7,0,1,PLATE - SAHANI,,,,,,,,,,,,,,,,,,,,,,,,,,,,,,,,,,,,,,,,,,,,,,,,,,,,,,,,,,,,,,,,,,,,,,,,,,,,,,,,
,,,,,,,,,,00001590554,2020-10-18_20h33.50.100,swahili,2020.2.4,MacIntel,60,,,,,,,,,,-0.124088542,-0.122154766,1,0,0,0.41561,unsorted_card,8,0,8,0,1,,,,,,,,,,,,,,,,,,,,,,,,,,,,,,,,,,,,,,,,,,,,,,,,,,,,,,,,,,,,,,,,,,,,,,,,,,,,,,,,,
,,,,,,,,,,00001590554,2020-10-18_20h33.50.100,swahili,2020.2.4,MacIntel,60,,,,,,,,,,0.411577691,-0.471642814,1,0,0,1.330755,done_pile,9,0,9,0,1,YEAST - HAMIRA,,,,,,,,,,,,,,,,,,,,,,,,,,,,,,,,,,,,,,,,,,,,,,,,,,,,,,,,,,,,,,,,,,,,,,,,,,,,,,,,
,,,,,,,,,,00001590554,2020-10-18_20h33.50.100,swahili,2020.2.4,MacIntel,60,,,,,,,,,,-0.192144097,-0.081055877,1,0,0,0.73018,unsorted_card,10,0,10,0,1,,,,,,,,,,,,,,,,,,,,,,,,,,,,,,,,,,,,,,,,,,,,,,,,,,,,,,,,,,,,,,,,,,,,,,,,,,,,,,,,,
,,,,,,,,,,00001590554,2020-10-18_20h33.50.100,swahili,2020.2.4,MacIntel,60,,,,,,,,,,0.449348958,-0.041793544,1,0,0,2.246615,test_pile,11,0,11,0,1,BLAME - LAWAMA,,,,,,,,,,,,,,,,,,,,,,,,,,,,,,,,,,,,,,,,,,,,,,,,,,,,,,,,,,,,,,,,,,,,,,,,,,,,,,,,
,,,,,,,,,,00001590554,2020-10-18_20h33.50.100,swahili,2020.2.4,MacIntel,60,,,,,,,,,,-0.289990234,0.07179697,1,0,0,0.516035,unsorted_card,12,0,12,0,1,,,,,,,,,,,,,,,,,,,,,,,,,,,,,,,,,,,,,,,,,,,,,,,,,,,,,,,,,,,,,,,,,,,,,,,,,,,,,,,,,
,,,,,,,,,,00001590554,2020-10-18_20h33.50.100,swahili,2020.2.4,MacIntel,60,,,,,,,,,,0.454041884,0.022390758,1,0,0,1.23161,test_pile,13,0,13,0,1,OATH - YAMINI,,,,,,,,,,,,,,,,,,,,,,,,,,,,,,,,,,,,,,,,,,,,,,,,,,,,,,,,,,,,,,,,,,,,,,,,,,,,,,,,
,,,,,,,,,,00001590554,2020-10-18_20h33.50.100,swahili,2020.2.4,MacIntel,60,,,,,,,,,,-0.375694444,0.076174254,1,0,0,0.44776,unsorted_card,14,0,14,0,1,,,,,,,,,,,,,,,,,,,,,,,,,,,,,,,,,,,,,,,,,,,,,,,,,,,,,,,,,,,,,,,,,,,,,,,,,,,,,,,,,
,,,,,,,,,,00001590554,2020-10-18_20h33.50.100,swahili,2020.2.4,MacIntel,60,,,,,,,,,,0.391786024,0.085518803,1,0,0,1.21274,test_pile,15,0,15,0,1,CORN - NAFAKA,,,,,,,,,,,,,,,,,,,,,,,,,,,,,,,,,,,,,,,,,,,,,,,,,,,,,,,,,,,,,,,,,,,,,,,,,,,,,,,,
,,,,,,,,,,00001590554,2020-10-18_20h33.50.100,swahili,2020.2.4,MacIntel,60,,,,,,,,,,-0.276985677,-0.125171285,1,0,0,0.43414,unsorted_card,16,0,16,0,1,,,,,,,,,,,,,,,,,,,,,,,,,,,,,,,,,,,,,,,,,,,,,,,,,,,,,,,,,,,,,,,,,,,,,,,,,,,,,,,,,
,,,,,,,,,,00001590554,2020-10-18_20h33.50.100,swahili,2020.2.4,MacIntel,60,,,,,,,,,,0.387179905,-0.486059303,1,0,0,1.247685,done_pile,17,0,17,0,1,POEM - UTENZI,,,,,,,,,,,,,,,,,,,,,,,,,,,,,,,,,,,,,,,,,,,,,,,,,,,,,,,,,,,,,,,,,,,,,,,,,,,,,,,,
,,,,,,,,,,00001590554,2020-10-18_20h33.50.100,swahili,2020.2.4,MacIntel,60,,,,,,,,,,-0.161197917,-0.049301538,1,0,0,0.546795,unsorted_card,18,0,18,0,1,,,,,,,,,,,,,,,,,,,,,,,,,,,,,,,,,,,,,,,,,,,,,,,,,,,,,,,,,,,,,,,,,,,,,,,,,,,,,,,,,
,,,,,,,,,,00001590554,2020-10-18_20h33.50.100,swahili,2020.2.4,MacIntel,60,,,,,,,,,,0.310894097,-0.442410171,1,0,0,2.5356,done_pile,19,0,19,0,1,TAILOR - MSHONI,,,,,,,,,,,,,,,,,,,,,,,,,,,,,,,,,,,,,,,,,,,,,,,,,,,,,,,,,,,,,,,,,,,,,,,,,,,,,,,,
,,,,,,,,,,00001590554,2020-10-18_20h33.50.100,swahili,2020.2.4,MacIntel,60,,,,,,,,,,-0.211376953,-0.123477467,1,0,0,0.44483,unsorted_card,20,0,20,0,1,,,,,,,,,,,,,,,,,,,,,,,,,,,,,,,,,,,,,,,,,,,,,,,,,,,,,,,,,,,,,,,,,,,,,,,,,,,,,,,,,
,,,,,,,,,,00001590554,2020-10-18_20h33.50.100,swahili,2020.2.4,MacIntel,60,,,,,,,,,,0.383262804,-0.521505786,1,0,0,0.930315,done_pile,21,0,21,0,1,CHEESE - JIBINI,,,,,,,,,,,,,,,,,,,,,,,,,,,,,,,,,,,,,,,,,,,,,,,,,,,,,,,,,,,,,,,,,,,,,,,,,,,,,,,,
,,,,,,,,,,00001590554,2020-10-18_20h33.50.100,swahili,2020.2.4,MacIntel,60,,,,,,,,,,-0.135693359,-0.180163292,1,0,0,0.46672,unsorted_card,22,0,22,0,1,,,,,,,,,,,,,,,,,,,,,,,,,,,,,,,,,,,,,,,,,,,,,,,,,,,,,,,,,,,,,,,,,,,,,,,,,,,,,,,,,
,,,,,,,,,,00001590554,2020-10-18_20h33.50.100,swahili,2020.2.4,MacIntel,60,,,,,,,,,,0.397710503,0.056114875,1,0,0,1.247055,test_pile,23,0,23,0,1,GRAPES - ZABIBU,,,,,,,,,,,,,,,,,,,,,,,,,,,,,,,,,,,,,,,,,,,,,,,,,,,,,,,,,,,,,,,,,,,,,,,,,,,,,,,,
,,,,,,,,,,00001590554,2020-10-18_20h33.50.100,swahili,2020.2.4,MacIntel,60,,,,,,,,,,-0.24133572,-0.015682095,1,0,0,0.44671,unsorted_card,24,0,24,0,1,,,,,,,,,,,,,,,,,,,,,,,,,,,,,,,,,,,,,,,,,,,,,,,,,,,,,,,,,,,,,,,,,,,,,,,,,,,,,,,,,
,,,,,,,,,,00001590554,2020-10-18_20h33.50.100,swahili,2020.2.4,MacIntel,60,,,,,,,,,,0.253304036,-0.047531593,1,0,0,0.932665,test_pile,25,0,25,0,1,GRAVE - KABURI,,,,,,,,,,,,,,,,,,,,,,,,,,,,,,,,,,,,,,,,,,,,,,,,,,,,,,,,,,,,,,,,,,,,,,,,,,,,,,,,
,,,,,,,,,,00001590554,2020-10-18_20h33.50.100,swahili,2020.2.4,MacIntel,60,,,,,,,,,,-0.191455078,-0.054240256,1,0,0,0.397325,unsorted_card,26,0,26,0,1,,,,,,,,,,,,,,,,,,,,,,,,,,,,,,,,,,,,,,,,,,,,,,,,,,,,,,,,,,,,,,,,,,,,,,,,,,,,,,,,,
,,,,,,,,,,00001590554,2020-10-18_20h33.50.100,swahili,2020.2.4,MacIntel,60,,,,,,,,,,0.381081814,-0.577944199,1,0,0,1.34894,done_pile,27,0,27,0,1,MANURE - SAMADI,,,,,,,,,,,,,,,,,,,,,,,,,,,,,,,,,,,,,,,,,,,,,,,,,,,,,,,,,,,,,,,,,,,,,,,,,,,,,,,,
,,,,,,,,,,00001590554,2020-10-18_20h33.50.100,swahili,2020.2.4,MacIntel,60,,,,,,,,,,-0.225108507,-0.087298264,1,0,0,0.49889,unsorted_card,28,0,28,0,1,,,,,,,,,,,,,,,,,,,,,,,,,,,,,,,,,,,,,,,,,,,,,,,,,,,,,,,,,,,,,,,,,,,,,,,,,,,,,,,,,
,,,,,,,,,,00001590554,2020-10-18_20h33.50.100,swahili,2020.2.4,MacIntel,60,,,,,,,,,,0.369124349,-0.522438337,1,0,0,1.148535,done_pile,29,0,29,0,1,AGENT - WAKILI,,,,,,,,,,,,,,,,,,,,,,,,,,,,,,,,,,,,,,,,,,,,,,,,,,,,,,,,,,,,,,,,,,,,,,,,,,,,,,,,
,,,,,,,,,,00001590554,2020-10-18_20h33.50.100,swahili,2020.2.4,MacIntel,60,,,,,,,,,,-0.167176649,-0.152700594,1,0,0,0.94996,unsorted_card,30,0,30,0,1,,,,,,,,,,,,,,,,,,,,,,,,,,,,,,,,,,,,,,,,,,,,,,,,,,,,,,,,,,,,,,,,,,,,,,,,,,,,,,,,,
,,,,,,,,,,00001590554,2020-10-18_20h33.50.100,swahili,2020.2.4,MacIntel,60,,,,,,,,,,0.453917101,-0.070065088,1,0,0,1.599835,test_pile,31,0,31,0,1,BRIBE - RUSHWA,,,,,,,,,,,,,,,,,,,,,,,,,,,,,,,,,,,,,,,,,,,,,,,,,,,,,,,,,,,,,,,,,,,,,,,,,,,,,,,,
,,,,,,,,,,00001590554,2020-10-18_20h33.50.100,swahili,2020.2.4,MacIntel,60,,,,,,,,,,-0.231673177,-0.093892738,1,0,0,0.61325,unsorted_card,32,0,32,0,1,,,,,,,,,,,,,,,,,,,,,,,,,,,,,,,,,,,,,,,,,,,,,,,,,,,,,,,,,,,,,,,,,,,,,,,,,,,,,,,,,
,,,,,,,,,,00001590554,2020-10-18_20h33.50.100,swahili,2020.2.4,MacIntel,60,,,,,,,,,,0.389219835,-0.104702725,1,0,0,2.74999,test_pile,33,0,33,0,1,ORPHAN - YATIMA,,,,,,,,,,,,,,,,,,,,,,,,,,,,,,,,,,,,,,,,,,,,,,,,,,,,,,,,,,,,,,,,,,,,,,,,,,,,,,,,
,,,,,,,,,,00001590554,2020-10-18_20h33.50.100,swahili,2020.2.4,MacIntel,60,,,,,,,,,,-0.207904731,-0.139844702,1,0,0,0.462745,unsorted_card,34,0,34,0,1,,,,,,,,,,,,,,,,,,,,,,,,,,,,,,,,,,,,,,,,,,,,,,,,,,,,,,,,,,,,,,,,,,,,,,,,,,,,,,,,,
,,,,,,,,,,00001590554,2020-10-18_20h33.50.100,swahili,2020.2.4,MacIntel,60,,,,,,,,,,0.438454861,-0.045647457,1,0,0,1.2164,test_pile,35,0,35,0,1,DIVORCE - TALAKA,,,,,,,,,,,,,,,,,,,,,,,,,,,,,,,,,,,,,,,,,,,,,,,,,,,,,,,,,,,,,,,,,,,,,,,,,,,,,,,,
,,,,,,,,,,00001590554,2020-10-18_20h33.50.100,swahili,2020.2.4,MacIntel,60,,,,,,,,,,-0.168988715,-0.013826507,1,0,0,0.498325,unsorted_card,36,0,36,0,1,,,,,,,,,,,,,,,,,,,,,,,,,,,,,,,,,,,,,,,,,,,,,,,,,,,,,,,,,,,,,,,,,,,,,,,,,,,,,,,,,
,,,,,,,,,,00001590554,2020-10-18_20h33.50.100,swahili,2020.2.4,MacIntel,60,,,,,,,,,,0.414116753,0.043782354,1,0,0,1.18108,test_pile,37,0,37,0,1,BOAT - MASHUA,,,,,,,,,,,,,,,,,,,,,,,,,,,,,,,,,,,,,,,,,,,,,,,,,,,,,,,,,,,,,,,,,,,,,,,,,,,,,,,,
,,,,,,,,,,00001590554,2020-10-18_20h33.50.100,swahili,2020.2.4,MacIntel,60,,,,,,,,,,-0.079660373,0.042478685,1,0,0,0.445165,unsorted_card,38,0,38,0,1,,,,,,,,,,,,,,,,,,,,,,,,,,,,,,,,,,,,,,,,,,,,,,,,,,,,,,,,,,,,,,,,,,,,,,,,,,,,,,,,,
,,,,,,,,,,00001590554,2020-10-18_20h33.50.100,swahili,2020.2.4,MacIntel,60,,,,,,,,,,0.437234158,-0.042240789,1,0,0,1.38211,test_pile,39,0,39,0,1,TREASURE - DAFINA,,,,,,,,,,,,,,,,,,,,,,,,,,,,,,,,,,,,,,,,,,,,,,,,,,,,,,,,,,,,,,,,,,,,,,,,,,,,,,,,
,,,,,,,,,,00001590554,2020-10-18_20h33.50.100,swahili,2020.2.4,MacIntel,60,,,,,,,,,,,,,,,,,,,,,,,,,,,,,,,,,,0,0,0,0,1,,,,,,,,,,,,,,,,,,,,,,,,,,,,,,,,,,,,,,,,,,,,,,,,,,,,,,,,,,,,,,,,
,,,,,,,,,,00001590554,2020-10-18_20h33.50.100,swahili,2020.2.4,MacIntel,60,,,,,,,,,,,,,,,,,,,,,,,,,,,,,,,,,,,,,,,return,,,,,,,,,,,2.185845,8.380395,0.373008898,-0.13902634,1,0,0,0.61731,yes,BULL,D,incorrect,0,0,0,0,1,,,,,,,,,,,,,,,,,,,,,,,,,,,,,,,,,,,,
,,,,,,,,,,00001590554,2020-10-18_20h33.50.100,swahili,2020.2.4,MacIntel,60,,,,,,,,,,,,,,,,,,,,,,,,,,,,,,,,,,,,,,,,,,,,,,,,,,,4.064755,0.43210178,-0.130452573,1,0,0,0.532945,yes,GRAVE,YATAKA,incorrect,1,0,1,0,1,,,,,,,,,,,,,,,,,,,,,,,,,,,,,,,,,,,,
,,,,,,,,,,00001590554,2020-10-18_20h33.50.100,swahili,2020.2.4,MacIntel,60,,,,,,,,,,,,,,,,,,,,,,,,,,,,,,,,,,,,,,,,,,,,,,,,,,,6.81427,0.539409722,-0.12511419,1,0,0,0.54848,yes,MERCHANT,MSHONI,incorrect,2,0,2,0,1,,,,,,,,,,,,,,,,,,,,,,,,,,,,,,,,,,,,
,,,,,,,,,,00001590554,2020-10-18_20h33.50.100,swahili,2020.2.4,MacIntel,60,,,,,,,,,,,,,,,,,,,,,,,,,,,,,,,,,,,,,,,,,,,,,,,,,,,4.16384,0.545572917,-0.059968788,1,0,0,0.483655,yes,DIVORCE,TALAKA,incorrect,3,0,3,0,1,,,,,,,,,,,,,,,,,,,,,,,,,,,,,,,,,,,,
,,,,,,,,,,00001590554,2020-10-18_20h33.50.100,swahili,2020.2.4,MacIntel,60,,,,,,,,,,,,,,,,,,,,,,,,,,,,,,,,,,,,,,,,,,,,,,,,,,,3.86295,0.435904948,-0.079999619,1,0,0,0.51797,yes,TREASURE,S,incorrect,4,0,4,0,1,,,,,,,,,,,,,,,,,,,,,,,,,,,,,,,,,,,,
,,,,,,,,,,00001590554,2020-10-18_20h33.50.100,swahili,2020.2.4,MacIntel,60,,,,,,,,,,,,,,,,,,,,,,,,,,,,,,,,,,,,,,,,,,,,,,,,,,,3.313625,0.610215929,0.110935597,1,0,0,0.51695,yes,GRAPES,JIBIBU,incorrect,5,0,5,0,1,,,,,,,,,,,,,,,,,,,,,,,,,,,,,,,,,,,,
,,,,,,,,,,00001590554,2020-10-18_20h33.50.100,swahili,2020.2.4,MacIntel,60,,,,,,,,,,,,,,,,,,,,,,,,,,,,,,,,,,,,,,,,,,,,,,,,,,,4.249555,0.599582248,0.113590515,1,0,0,0.482825,yes,BLAME,LAYAMA,incorrect,6,0,6,0,1,,,,,,,,,,,,,,,,,,,,,,,,,,,,,,,,,,,,
,,,,,,,,,,00001590554,2020-10-18_20h33.50.100,swahili,2020.2.4,MacIntel,60,,,,,,,,,,,,,,,,,,,,,,,,,,,,,,,,,,,,,,,,,,,,,,,,,,,2.295905,0.382828776,-0.144421818,1,0,0,0.501845,yes,PLATE,D,incorrect,7,0,7,0,1,,,,,,,,,,,,,,,,,,,,,,,,,,,,,,,,,,,,
,,,,,,,,,,00001590554,2020-10-18_20h33.50.100,swahili,2020.2.4,MacIntel,60,,,,,,,,,,,,,,,,,,,,,,,,,,,,,,,,,,,,,,,,,,,,,,,,,,,3.563905,0.491889106,-0.072215667,1,0,0,0.46772,yes,OATH,S,incorrect,8,0,8,0,1,,,,,,,,,,,,,,,,,,,,,,,,,,,,,,,,,,,,
,,,,,,,,,,00001590554,2020-10-18_20h33.50.100,swahili,2020.2.4,MacIntel,60,,,,,,,,,,,,,,,,,,,,,,,,,,,,,,,,,,,,,,,,,,,,,,,,,,,2.831725,0.391769748,-0.00724155,1,0,0,0.57078,yes,BOAT,MUSHUA,incorrect,9,0,9,0,1,,,,,,,,,,,,,,,,,,,,,,,,,,,,,,,,,,,,
,,,,,,,,,,00001590554,2020-10-18_20h33.50.100,swahili,2020.2.4,MacIntel,60,,,,,,,,,,,,,,,,,,,,,,,,,,,,,,,,,,,,,,,,,,,,,,,,,,,3.512905,0.458300781,-0.101457826,1,0,0,0.90176,yes,CORN,YAKIKA,incorrect,10,0,10,0,1,,,,,,,,,,,,,,,,,,,,,,,,,,,,,,,,,,,,
,,,,,,,,,,00001590554,2020-10-18_20h33.50.100,swahili,2020.2.4,MacIntel,60,,,,,,,,,,,,,,,,,,,,,,,,,,,,,,,,,,,,,,,,,,,,,,,,,,,2.24619,0.59000651,0.016709805,1,0,0,0.666515,yes,PARROT,KS,incorrect,11,0,11,0,1,,,,,,,,,,,,,,,,,,,,,,,,,,,,,,,,,,,,
,,,,,,,,,,00001590554,2020-10-18_20h33.50.100,swahili,2020.2.4,MacIntel,60,,,,,,,,,,,,,,,,,,,,,,,,,,,,,,,,,,,,,,,,,,,,,,,,,,,3.92887,0.378868273,-0.015634516,1,0,0,0.51788,yes,BRIBE,S,incorrect,12,0,12,0,1,,,,,,,,,,,,,,,,,,,,,,,,,,,,,,,,,,,,
,,,,,,,,,,00001590554,2020-10-18_20h33.50.100,swahili,2020.2.4,MacIntel,60,,,,,,,,,,,,,,,,,,,,,,,,,,,,,,,,,,,,,,,,,,,,,,,,,,,2.698835,0.621533203,-0.133944884,1,0,0,0.70157,yes,ORPHAN,YAMINI,incorrect,13,0,13,0,1,,,,,,,,,,,,,,,,,,,,,,,,,,,,,,,,,,,,
,,,,,,,,,,00001590554,2020-10-18_20h33.50.100,swahili,2020.2.4,MacIntel,60,,,,,,,,,,,,,,,,,,,,,,,,,,,,,,,,,,,,,,,,0,0,0,0,1,,,,,,,,,,,,,,,,,,,,,,,,,,,,,,,,,,,,,,,,,,,,,,,,,,,,,,,,,,
,,,,,,,,,,00001590554,2020-10-18_20h33.50.100,swahili,2020.2.4,MacIntel,60,,,,,,,,,,,,,,,,,,,,,,,,,,,,,,,,,,,,,,,,1,0,1,0,1,,,,,,,,,,,,,,,,,,,,,,,,,,,,,,,,,,,,,,,,,,,,,,,,,,,,,,,,,,
,,,,,,,,,,00001590554,2020-10-18_20h33.50.100,swahili,2020.2.4,MacIntel,60,,,,,,,,,,,,,,,,,,,,,,,,,,,,,,,,,,,,,,,,,,,,,3,0,3,0,1,,,,,,,,,,,,,,,,,,,,,,,,,,,,,,,,,,,,,,,,,,,,,,,,,,,,,
,,,,,,,,,,00001590554,2020-10-18_20h33.50.100,swahili,2020.2.4,MacIntel,60,,,,,,,,,,-0.200444878,-0.006527862,1,0,0,1.4363,unsorted_card,0,0,0,0,1,,,,,,,,,,,,,,,,,,,,,,,,,,,,,,,,,,,,,,,,,,,,,,,,,,,,,,,,,,,,,,,,,,,,,,,,,,,,,,,,,
,,,,,,,,,,00001590554,2020-10-18_20h33.50.100,swahili,2020.2.4,MacIntel,60,,,,,,,,,,0.547173394,-0.048920904,1,0,0,1.516115,test_pile,1,0,1,0,1,MERCHANT - TAJIRI,,,,,,,,,,,,,,,,,,,,,,,,,,,,,,,,,,,,,,,,,,,,,,,,,,,,,,,,,,,,,,,,,,,,,,,,,,,,,,,,
,,,,,,,,,,00001590554,2020-10-18_20h33.50.100,swahili,2020.2.4,MacIntel,60,,,,,,,,,,-0.109868707,-0.065297655,1,0,0,0.547765,unsorted_card,2,0,2,0,1,,,,,,,,,,,,,,,,,,,,,,,,,,,,,,,,,,,,,,,,,,,,,,,,,,,,,,,,,,,,,,,,,,,,,,,,,,,,,,,,,
,,,,,,,,,,00001590554,2020-10-18_20h33.50.100,swahili,2020.2.4,MacIntel,60,,,,,,,,,,0.490380859,-0.006394641,1,0,0,0.96333,test_pile,3,0,3,0,1,PARROT - KASUKU,,,,,,,,,,,,,,,,,,,,,,,,,,,,,,,,,,,,,,,,,,,,,,,,,,,,,,,,,,,,,,,,,,,,,,,,,,,,,,,,
,,,,,,,,,,00001590554,2020-10-18_20h33.50.100,swahili,2020.2.4,MacIntel,60,,,,,,,,,,-0.127501085,-0.035617768,1,0,0,0.48337,unsorted_card,4,0,4,0,1,,,,,,,,,,,,,,,,,,,,,,,,,,,,,,,,,,,,,,,,,,,,,,,,,,,,,,,,,,,,,,,,,,,,,,,,,,,,,,,,,
,,,,,,,,,,00001590554,2020-10-18_20h33.50.100,swahili,2020.2.4,MacIntel,60,,,,,,,,,,0.393766276,-0.017014312,1,0,0,0.92992,test_pile,5,0,5,0,1,BULL - FAHILI,,,,,,,,,,,,,,,,,,,,,,,,,,,,,,,,,,,,,,,,,,,,,,,,,,,,,,,,,,,,,,,,,,,,,,,,,,,,,,,,
,,,,,,,,,,00001590554,2020-10-18_20h33.50.100,swahili,2020.2.4,MacIntel,60,,,,,,,,,,-0.362836372,-0.058579476,1,0,0,0.415205,unsorted_card,6,0,6,0,1,,,,,,,,,,,,,,,,,,,,,,,,,,,,,,,,,,,,,,,,,,,,,,,,,,,,,,,,,,,,,,,,,,,,,,,,,,,,,,,,,
,,,,,,,,,,00001590554,2020-10-18_20h33.50.100,swahili,2020.2.4,MacIntel,60,,,,,,,,,,0.425634766,-0.028832978,1,0,0,0.914215,test_pile,7,0,7,0,1,PLATE - SAHANI,,,,,,,,,,,,,,,,,,,,,,,,,,,,,,,,,,,,,,,,,,,,,,,,,,,,,,,,,,,,,,,,,,,,,,,,,,,,,,,,
,,,,,,,,,,00001590554,2020-10-18_20h33.50.100,swahili,2020.2.4,MacIntel,60,,,,,,,,,,-0.294645182,0.070712165,1,0,0,0.44809,unsorted_card,8,0,8,0,1,,,,,,,,,,,,,,,,,,,,,,,,,,,,,,,,,,,,,,,,,,,,,,,,,,,,,,,,,,,,,,,,,,,,,,,,,,,,,,,,,
,,,,,,,,,,00001590554,2020-10-18_20h33.50.100,swahili,2020.2.4,MacIntel,60,,,,,,,,,,0.43117947,0.041850639,1,0,0,0.96364,test_pile,9,0,9,0,1,BLAME - LAWAMA,,,,,,,,,,,,,,,,,,,,,,,,,,,,,,,,,,,,,,,,,,,,,,,,,,,,,,,,,,,,,,,,,,,,,,,,,,,,,,,,
,,,,,,,,,,00001590554,2020-10-18_20h33.50.100,swahili,2020.2.4,MacIntel,60,,,,,,,,,,-0.253765191,-0.016500457,1,0,0,0.39994,unsorted_card,10,0,10,0,1,,,,,,,,,,,,,,,,,,,,,,,,,,,,,,,,,,,,,,,,,,,,,,,,,,,,,,,,,,,,,,,,,,,,,,,,,,,,,,,,,
,,,,,,,,,,00001590554,2020-10-18_20h33.50.100,swahili,2020.2.4,MacIntel,60,,,,,,,,,,0.40874566,-0.038624772,1,0,0,1.54219,test_pile,11,0,11,0,1,OATH - YAMINI,,,,,,,,,,,,,,,,,,,,,,,,,,,,,,,,,,,,,,,,,,,,,,,,,,,,,,,,,,,,,,,,,,,,,,,,,,,,,,,,
,,,,,,,,,,00001590554,2020-10-18_20h33.50.100,swahili,2020.2.4,MacIntel,60,,,,,,,,,,-0.302354601,0.079057552,1,0,0,0.412985,unsorted_card,12,0,12,0,1,,,,,,,,,,,,,,,,,,,,,,,,,,,,,,,,,,,,,,,,,,,,,,,,,,,,,,,,,,,,,,,,,,,,,,,,,,,,,,,,,
,,,,,,,,,,00001590554,2020-10-18_20h33.50.100,swahili,2020.2.4,MacIntel,60,,,,,,,,,,0.348231337,0.080018651,1,0,0,1.031015,test_pile,13,0,13,0,1,CORN - NAFAKA,,,,,,,,,,,,,,,,,,,,,,,,,,,,,,,,,,,,,,,,,,,,,,,,,,,,,,,,,,,,,,,,,,,,,,,,,,,,,,,,
,,,,,,,,,,00001590554,2020-10-18_20h33.50.100,swahili,2020.2.4,MacIntel,60,,,,,,,,,,-0.21710612,0.018660551,1,0,0,0.41225,unsorted_card,14,0,14,0,1,,,,,,,,,,,,,,,,,,,,,,,,,,,,,,,,,,,,,,,,,,,,,,,,,,,,,,,,,,,,,,,,,,,,,,,,,,,,,,,,,
,,,,,,,,,,00001590554,2020-10-18_20h33.50.100,swahili,2020.2.4,MacIntel,60,,,,,,,,,,0.446310764,-0.40796285,1,0,0,1.596885,done_pile,15,0,15,0,1,GRAPES - ZABIBU,,,,,,,,,,,,,,,,,,,,,,,,,,,,,,,,,,,,,,,,,,,,,,,,,,,,,,,,,,,,,,,,,,,,,,,,,,,,,,,,
,,,,,,,,,,00001590554,2020-10-18_20h33.50.100,swahili,2020.2.4,MacIntel,60,,,,,,,,,,-0.376616753,-0.027272381,1,0,0,0.41435,unsorted_card,16,0,16,0,1,,,,,,,,,,,,,,,,,,,,,,,,,,,,,,,,,,,,,,,,,,,,,,,,,,,,,,,,,,,,,,,,,,,,,,,,,,,,,,,,,
,,,,,,,,,,00001590554,2020-10-18_20h33.50.100,swahili,2020.2.4,MacIntel,60,,,,,,,,,,0.341634115,0.009810825,1,0,0,1.38337,test_pile,17,0,17,0,1,GRAVE - KABURI,,,,,,,,,,,,,,,,,,,,,,,,,,,,,,,,,,,,,,,,,,,,,,,,,,,,,,,,,,,,,,,,,,,,,,,,,,,,,,,,
,,,,,,,,,,00001590554,2020-10-18_20h33.50.100,swahili,2020.2.4,MacIntel,60,,,,,,,,,,-0.206174045,-0.017490104,1,0,0,0.41293,unsorted_card,18,0,18,0,1,,,,,,,,,,,,,,,,,,,,,,,,,,,,,,,,,,,,,,,,,,,,,,,,,,,,,,,,,,,,,,,,,,,,,,,,,,,,,,,,,
,,,,,,,,,,00001590554,2020-10-18_20h33.50.100,swahili,2020.2.4,MacIntel,60,,,,,,,,,,0.341927083,0.010267585,1,0,0,1.65138,test_pile,19,0,19,0,1,BRIBE - RUSHWA,,,,,,,,,,,,,,,,,,,,,,,,,,,,,,,,,,,,,,,,,,,,,,,,,,,,,,,,,,,,,,,,,,,,,,,,,,,,,,,,
,,,,,,,,,,00001590554,2020-10-18_20h33.50.100,swahili,2020.2.4,MacIntel,60,,,,,,,,,,-0.303993056,-0.026130481,1,0,0,0.41456,unsorted_card,20,0,20,0,1,,,,,,,,,,,,,,,,,,,,,,,,,,,,,,,,,,,,,,,,,,,,,,,,,,,,,,,,,,,,,,,,,,,,,,,,,,,,,,,,,
,,,,,,,,,,00001590554,2020-10-18_20h33.50.100,swahili,2020.2.4,MacIntel,60,,,,,,,,,,0.377143012,-0.483052299,1,0,0,2.99606,done_pile,21,0,21,0,1,ORPHAN - YATIMA,,,,,,,,,,,,,,,,,,,,,,,,,,,,,,,,,,,,,,,,,,,,,,,,,,,,,,,,,,,,,,,,,,,,,,,,,,,,,,,,
,,,,,,,,,,00001590554,2020-10-18_20h33.50.100,swahili,2020.2.4,MacIntel,60,,,,,,,,,,-0.237679036,-0.109441611,1,0,0,0.43027,unsorted_card,22,0,22,0,1,,,,,,,,,,,,,,,,,,,,,,,,,,,,,,,,,,,,,,,,,,,,,,,,,,,,,,,,,,,,,,,,,,,,,,,,,,,,,,,,,
,,,,,,,,,,00001590554,2020-10-18_20h33.50.100,swahili,2020.2.4,MacIntel,60,,,,,,,,,,0.455723741,-0.591342494,1,0,0,1.61601,done_pile,23,0,23,0,1,DIVORCE - TALAKA,,,,,,,,,,,,,,,,,,,,,,,,,,,,,,,,,,,,,,,,,,,,,,,,,,,,,,,,,,,,,,,,,,,,,,,,,,,,,,,,
,,,,,,,,,,00001590554,2020-10-18_20h33.50.100,swahili,2020.2.4,MacIntel,60,,,,,,,,,,-0.180360243,-0.019612135,1,0,0,0.4305,unsorted_card,24,0,24,0,1,,,,,,,,,,,,,,,,,,,,,,,,,,,,,,,,,,,,,,,,,,,,,,,,,,,,,,,,,,,,,,,,,,,,,,,,,,,,,,,,,
,,,,,,,,,,00001590554,2020-10-18_20h33.50.100,swahili,2020.2.4,MacIntel,60,,,,,,,,,,0.43140191,-0.44947092,1,0,0,1.216965,done_pile,25,0,25,0,1,BOAT - MASHUA,,,,,,,,,,,,,,,,,,,,,,,,,,,,,,,,,,,,,,,,,,,,,,,,,,,,,,,,,,,,,,,,,,,,,,,,,,,,,,,,
,,,,,,,,,,00001590554,2020-10-18_20h33.50.100,swahili,2020.2.4,MacIntel,60,,,,,,,,,,-0.143142361,-0.051318895,1,0,0,0.47878,unsorted_card,26,0,26,0,1,,,,,,,,,,,,,,,,,,,,,,,,,,,,,,,,,,,,,,,,,,,,,,,,,,,,,,,,,,,,,,,,,,,,,,,,,,,,,,,,,
,,,,,,,,,,00001590554,2020-10-18_20h33.50.100,swahili,2020.2.4,MacIntel,60,,,,,,,,,,0.353005642,-0.00655641,1,0,0,1.099285,test_pile,27,0,27,0,1,TREASURE - DAFINA,,,,,,,,,,,,,,,,,,,,,,,,,,,,,,,,,,,,,,,,,,,,,,,,,,,,,,,,,,,,,,,,,,,,,,,,,,,,,,,,
,,,,,,,,,,00001590554,2020-10-18_20h33.50.100,swahili,2020.2.4,MacIntel,60,,,,,,,,,,,,,,,,,,,,,,,,,,,,,,,,,,0,0,0,0,1,,,,,,,,,,,,,,,,,,,,,,,,,,,,,,,,,,,,,,,,,,,,,,,,,,,,,,,,,,,,,,,,
,,,,,,,,,,00001590554,2020-10-18_20h33.50.100,swahili,2020.2.4,MacIntel,60,,,,,,,,,,,,,,,,,,,,,,,,,,,,,,,,,,,,,,,return,,,,,,,,,,,1.23075,13.080125,0.411056858,-0.034913596,1,0,0,0.49989,yes,BULL,D,incorrect,0,0,0,0,1,,,,,,,,,,,,,,,,,,,,,,,,,,,,,,,,,,,,
,,,,,,,,,,00001590554,2020-10-18_20h33.50.100,swahili,2020.2.4,MacIntel,60,,,,,,,,,,,,,,,,,,,,,,,,,,,,,,,,,,,,,,,,,,,,,,,,,,,4.898765,0.508246528,-0.094397077,1,0,0,0.933705,yes,GRAVE,YABURI,incorrect,1,0,1,0,1,,,,,,,,,,,,,,,,,,,,,,,,,,,,,,,,,,,,
,,,,,,,,,,00001590554,2020-10-18_20h33.50.100,swahili,2020.2.4,MacIntel,60,,,,,,,,,,,,,,,,,,,,,,,,,,,,,,,,,,,,,,,,,,,,,,,,,,,2.93089,0.376133898,-0.181980816,1,0,0,0.701075,yes,BRIBE,RUSHWA,incorrect,2,0,2,0,1,,,,,,,,,,,,,,,,,,,,,,,,,,,,,,,,,,,,
,,,,,,,,,,00001590554,2020-10-18_20h33.50.100,swahili,2020.2.4,MacIntel,60,,,,,,,,,,,,,,,,,,,,,,,,,,,,,,,,,,,,,,,,,,,,,,,,,,,4.348265,0.524972873,0.002911845,1,0,0,0.482845,yes,BLAME,LAWANI,incorrect,3,0,3,0,1,,,,,,,,,,,,,,,,,,,,,,,,,,,,,,,,,,,,
,,,,,,,,,,00001590554,2020-10-18_20h33.50.100,swahili,2020.2.4,MacIntel,60,,,,,,,,,,,,,,,,,,,,,,,,,,,,,,,,,,,,,,,,,,,,,,,,,,,3.932205,0.495486111,-0.05651454,1,0,0,0.467015,yes,MERCHANT,S,incorrect,4,0,4,0,1,,,,,,,,,,,,,,,,,,,,,,,,,,,,,,,,,,,,
,,,,,,,,,,00001590554,2020-10-18_20h33.50.100,swahili,2020.2.4,MacIntel,60,,,,,,,,,,,,,,,,,,,,,,,,,,,,,,,,,,,,,,,,,,,,,,,,,,,6.146085,0.471549479,0.003720691,1,0,0,0.56746,yes,OATH,LA,incorrect,5,0,5,0,1,,,,,,,,,,,,,,,,,,,,,,,,,,,,,,,,,,,,
,,,,,,,,,,00001590554,2020-10-18_20h33.50.100,swahili,2020.2.4,MacIntel,60,,,,,,,,,,,,,,,,,,,,,,,,,,,,,,,,,,,,,,,,,,,,,,,,,,,3.48075,0.432324219,-0.101277025,1,0,0,0.48368,yes,TREASURE,D,incorrect,6,0,6,0,1,,,,,,,,,,,,,,,,,,,,,,,,,,,,,,,,,,,,
,,,,,,,,,,00001590554,2020-10-18_20h33.50.100,swahili,2020.2.4,MacIntel,60,,,,,,,,,,,,,,,,,,,,,,,,,,,,,,,,,,,,,,,,,,,,,,,,,,,5.23118,0.4453125,-0.066030375,1,0,0,0.50135,yes,PLATE,SAHADA,incorrect,7,0,7,0,1,,,,,,,,,,,,,,,,,,,,,,,,,,,,,,,,,,,,
,,,,,,,,,,00001590554,2020-10-18_20h33.50.100,swahili,2020.2.4,MacIntel,60,,,,,,,,,,,,,,,,,,,,,,,,,,,,,,,,,,,,,,,,,,,,,,,,,,,4.864515,0.525157335,-0.075860231,1,0,0,0.465895,yes,PARROT,KIBUW,incorrect,8,0,8,0,1,,,,,,,,,,,,,,,,,,,,,,,,,,,,,,,,,,,,
,,,,,,,,,,00001590554,2020-10-18_20h33.50.100,swahili,2020.2.4,MacIntel,60,,,,,,,,,,,,,,,,,,,,,,,,,,,,,,,,,,,,,,,,,,,,,,,,,,,5.432745,0.468174913,-0.040299558,1,0,0,0.467085,yes,CORN,YATAKA,incorrect,9,0,9,0,1,,,,,,,,,,,,,,,,,,,,,,,,,,,,,,,,,,,,
,,,,,,,,,,00001590554,2020-10-18_20h33.50.100,swahili,2020.2.4,MacIntel,60,,,,,,,,,,,,,,,,,,,,,,,,,,,,,,,,,,,,,,,,0,0,0,0,1,,,,,,,,,,,,,,,,,,,,,,,,,,,,,,,,,,,,,,,,,,,,,,,,,,,,,,,,,,
,,,,,,,,,,00001590554,2020-10-18_20h33.50.100,swahili,2020.2.4,MacIntel,60,,,,,,,,,,,,,,,,,,,,,,,,,,,,,,,,,,,,,,,,1,0,1,0,1,,,,,,,,,,,,,,,,,,,,,,,,,,,,,,,,,,,,,,,,,,,,,,,,,,,,,,,,,,
,,,,,,,,,,00001590554,2020-10-18_20h33.50.100,swahili,2020.2.4,MacIntel,60,,,,,,,,,,,,,,,,,,,,,,,,,,,,,,,,,,,,,,,,,,,,,4,0,4,0,1,,,,,,,,,,,,,,,,,,,,,,,,,,,,,,,,,,,,,,,,,,,,,,,,,,,,,
,,,,,,,,,,00001590554,2020-10-18_20h33.50.100,swahili,2020.2.4,MacIntel,60,,,,,,,,,,-0.190717231,-0.048340438,1,0,0,1.223925,unsorted_card,0,0,0,0,1,,,,,,,,,,,,,,,,,,,,,,,,,,,,,,,,,,,,,,,,,,,,,,,,,,,,,,,,,,,,,,,,,,,,,,,,,,,,,,,,,
,,,,,,,,,,00001590554,2020-10-18_20h33.50.100,swahili,2020.2.4,MacIntel,60,,,,,,,,,,-0.209971788,-0.059778471,1,0,0,1.279405,unsorted_card,1,0,1,0,1,MERCHANT - TAJIRI,,,,,,,,,,,,,,,,,,,,,,,,,,,,,,,,,,,,,,,,,,,,,,,,,,,,,,,,,,,,,,,,,,,,,,,,,,,,,,,,
,,,,,,,,,,00001590554,2020-10-18_20h33.50.100,swahili,2020.2.4,MacIntel,60,,,,,,,,,,0.451801215,-0.011390454,1,0,0,0.782135,test_pile,2,0,2,0,1,MERCHANT - TAJIRI,,,,,,,,,,,,,,,,,,,,,,,,,,,,,,,,,,,,,,,,,,,,,,,,,,,,,,,,,,,,,,,,,,,,,,,,,,,,,,,,
,,,,,,,,,,00001590554,2020-10-18_20h33.50.100,swahili,2020.2.4,MacIntel,60,,,,,,,,,,-0.302267795,-0.155612439,1,0,0,0.66356,unsorted_card,3,0,3,0,1,,,,,,,,,,,,,,,,,,,,,,,,,,,,,,,,,,,,,,,,,,,,,,,,,,,,,,,,,,,,,,,,,,,,,,,,,,,,,,,,,
,,,,,,,,,,00001590554,2020-10-18_20h33.50.100,swahili,2020.2.4,MacIntel,60,,,,,,,,,,0.519759115,-0.02987972,1,0,0,0.58352,test_pile,4,0,4,0,1,PARROT - KASUKU,,,,,,,,,,,,,,,,,,,,,,,,,,,,,,,,,,,,,,,,,,,,,,,,,,,,,,,,,,,,,,,,,,,,,,,,,,,,,,,,
,,,,,,,,,,00001590554,2020-10-18_20h33.50.100,swahili,2020.2.4,MacIntel,60,,,,,,,,,,-0.376936849,0.118367463,1,0,0,0.462485,unsorted_card,5,0,5,0,1,,,,,,,,,,,,,,,,,,,,,,,,,,,,,,,,,,,,,,,,,,,,,,,,,,,,,,,,,,,,,,,,,,,,,,,,,,,,,,,,,
,,,,,,,,,,00001590554,2020-10-18_20h33.50.100,swahili,2020.2.4,MacIntel,60,,,,,,,,,,0.586040582,-0.012741702,1,0,0,0.89938,test_pile,6,0,6,0,1,BULL - FAHILI,,,,,,,,,,,,,,,,,,,,,,,,,,,,,,,,,,,,,,,,,,,,,,,,,,,,,,,,,,,,,,,,,,,,,,,,,,,,,,,,
,,,,,,,,,,00001590554,2020-10-18_20h33.50.100,swahili,2020.2.4,MacIntel,60,,,,,,,,,,-0.441270616,-0.055315545,1,0,0,0.548075,unsorted_card,7,0,7,0,1,,,,,,,,,,,,,,,,,,,,,,,,,,,,,,,,,,,,,,,,,,,,,,,,,,,,,,,,,,,,,,,,,,,,,,,,,,,,,,,,,
,,,,,,,,,,00001590554,2020-10-18_20h33.50.100,swahili,2020.2.4,MacIntel,60,,,,,,,,,,0.470182292,-0.04088954,1,0,0,0.81419,test_pile,8,0,8,0,1,PLATE - SAHANI,,,,,,,,,,,,,,,,,,,,,,,,,,,,,,,,,,,,,,,,,,,,,,,,,,,,,,,,,,,,,,,,,,,,,,,,,,,,,,,,
,,,,,,,,,,00001590554,2020-10-18_20h33.50.100,swahili,2020.2.4,MacIntel,60,,,,,,,,,,-0.30039605,0.01516824,1,0,0,0.43225,unsorted_card,9,0,9,0,1,,,,,,,,,,,,,,,,,,,,,,,,,,,,,,,,,,,,,,,,,,,,,,,,,,,,,,,,,,,,,,,,,,,,,,,,,,,,,,,,,
,,,,,,,,,,00001590554,2020-10-18_20h33.50.100,swahili,2020.2.4,MacIntel,60,,,,,,,,,,0.450764974,0.033219778,1,0,0,0.664305,test_pile,10,0,10,0,1,BLAME - LAWAMA,,,,,,,,,,,,,,,,,,,,,,,,,,,,,,,,,,,,,,,,,,,,,,,,,,,,,,,,,,,,,,,,,,,,,,,,,,,,,,,,
,,,,,,,,,,00001590554,2020-10-18_20h33.50.100,swahili,2020.2.4,MacIntel,60,,,,,,,,,,-0.202435981,0.097537302,1,0,0,0.41491,unsorted_card,11,0,11,0,1,,,,,,,,,,,,,,,,,,,,,,,,,,,,,,,,,,,,,,,,,,,,,,,,,,,,,,,,,,,,,,,,,,,,,,,,,,,,,,,,,
,,,,,,,,,,00001590554,2020-10-18_20h33.50.100,swahili,2020.2.4,MacIntel,60,,,,,,,,,,0.459282769,0.073814327,1,0,0,0.49933,test_pile,12,0,12,0,1,OATH - YAMINI,,,,,,,,,,,,,,,,,,,,,,,,,,,,,,,,,,,,,,,,,,,,,,,,,,,,,,,,,,,,,,,,,,,,,,,,,,,,,,,,
,,,,,,,,,,00001590554,2020-10-18_20h33.50.100,swahili,2020.2.4,MacIntel,60,,,,,,,,,,-0.219742839,-0.061424711,1,0,0,0.378195,unsorted_card,13,0,13,0,1,,,,,,,,,,,,,,,,,,,,,,,,,,,,,,,,,,,,,,,,,,,,,,,,,,,,,,,,,,,,,,,,,,,,,,,,,,,,,,,,,
,,,,,,,,,,00001590554,2020-10-18_20h33.50.100,swahili,2020.2.4,MacIntel,60,,,,,,,,,,0.438243273,-0.049539434,1,0,0,0.531135,test_pile,14,0,14,0,1,CORN - NAFAKA,,,,,,,,,,,,,,,,,,,,,,,,,,,,,,,,,,,,,,,,,,,,,,,,,,,,,,,,,,,,,,,,,,,,,,,,,,,,,,,,
,,,,,,,,,,00001590554,2020-10-18_20h33.50.100,swahili,2020.2.4,MacIntel,60,,,,,,,,,,-0.136046007,0.032001751,1,0,0,0.34714,unsorted_card,15,0,15,0,1,,,,,,,,,,,,,,,,,,,,,,,,,,,,,,,,,,,,,,,,,,,,,,,,,,,,,,,,,,,,,,,,,,,,,,,,,,,,,,,,,
,,,,,,,,,,00001590554,2020-10-18_20h33.50.100,swahili,2020.2.4,MacIntel,60,,,,,,,,,,0.447764757,0.026958359,1,0,0,0.447615,test_pile,16,0,16,0,1,GRAVE - KABURI,,,,,,,,,,,,,,,,,,,,,,,,,,,,,,,,,,,,,,,,,,,,,,,,,,,,,,,,,,,,,,,,,,,,,,,,,,,,,,,,
,,,,,,,,,,00001590554,2020-10-18_20h33.50.100,swahili,2020.2.4,MacIntel,60,,,,,,,,,,-0.267399089,-0.037873021,1,0,0,0.33287,unsorted_card,17,0,17,0,1,,,,,,,,,,,,,,,,,,,,,,,,,,,,,,,,,,,,,,,,,,,,,,,,,,,,,,,,,,,,,,,,,,,,,,,,,,,,,,,,,
,,,,,,,,,,00001590554,2020-10-18_20h33.50.100,swahili,2020.2.4,MacIntel,60,,,,,,,,,,0.312825521,-0.006699147,1,0,0,0.5306,test_pile,18,0,18,0,1,BRIBE - RUSHWA,,,,,,,,,,,,,,,,,,,,,,,,,,,,,,,,,,,,,,,,,,,,,,,,,,,,,,,,,,,,,,,,,,,,,,,,,,,,,,,,
,,,,,,,,,,00001590554,2020-10-18_20h33.50.100,swahili,2020.2.4,MacIntel,60,,,,,,,,,,-0.184450955,0.005129035,1,0,0,0.38078,unsorted_card,19,0,19,0,1,,,,,,,,,,,,,,,,,,,,,,,,,,,,,,,,,,,,,,,,,,,,,,,,,,,,,,,,,,,,,,,,,,,,,,,,,,,,,,,,,
,,,,,,,,,,00001590554,2020-10-18_20h33.50.100,swahili,2020.2.4,MacIntel,60,,,,,,,,,,0.421571181,0.000218864,1,0,0,0.58107,test_pile,20,0,20,0,1,TREASURE - DAFINA,,,,,,,,,,,,,,,,,,,,,,,,,,,,,,,,,,,,,,,,,,,,,,,,,,,,,,,,,,,,,,,,,,,,,,,,,,,,,,,,
,,,,,,,,,,00001590554,2020-10-18_20h33.50.100,swahili,2020.2.4,MacIntel,60,,,,,,,,,,,,,,,,,,,,,,,,,,,,,,,,,,0,0,0,0,1,,,,,,,,,,,,,,,,,,,,,,,,,,,,,,,,,,,,,,,,,,,,,,,,,,,,,,,,,,,,,,,,
,,,,,,,,,,00001590554,2020-10-18_20h33.50.100,swahili,2020.2.4,MacIntel,60,,,,,,,,,,,,,,,,,,,,,,,,,,,,,,,,,,,,,,,return,,,,,,,,,,,1.318725,3.464985,0.428575304,-0.068951736,1,0,0,0.949495,yes,CORN,YAFAKA,incorrect,0,0,0,0,1,,,,,,,,,,,,,,,,,,,,,,,,,,,,,,,,,,,,
,,,,,,,,,,00001590554,2020-10-18_20h33.50.100,swahili,2020.2.4,MacIntel,60,,,,,,,,,,,,,,,,,,,,,,,,,,,,,,,,,,,,,,,,,,,,,,,,,,,4.07924,0.506239149,0.019231501,1,0,0,0.48383,yes,PARROT,S,incorrect,1,0,1,0,1,,,,,,,,,,,,,,,,,,,,,,,,,,,,,,,,,,,,
,,,,,,,,,,00001590554,2020-10-18_20h33.50.100,swahili,2020.2.4,MacIntel,60,,,,,,,,,,,,,,,,,,,,,,,,,,,,,,,,,,,,,,,,,,,,,,,,,,,6.41524,0.396717665,-0.136066915,1,0,0,0.45028,yes,MERCHANT,S,incorrect,2,0,2,0,1,,,,,,,,,,,,,,,,,,,,,,,,,,,,,,,,,,,,
,,,,,,,,,,00001590554,2020-10-18_20h33.50.100,swahili,2020.2.4,MacIntel,60,,,,,,,,,,,,,,,,,,,,,,,,,,,,,,,,,,,,,,,,,,,,,,,,,,,5.01676,0.460715061,0.115160627,1,0,0,0.600035,yes,PLATE,SAHADI,incorrect,3,0,3,0,1,,,,,,,,,,,,,,,,,,,,,,,,,,,,,,,,,,,,
,,,,,,,,,,00001590554,2020-10-18_20h33.50.100,swahili,2020.2.4,MacIntel,60,,,,,,,,,,,,,,,,,,,,,,,,,,,,,,,,,,,,,,,,,,,,,,,,,,,3.12996,0.433175998,-0.106168164,1,0,0,0.450195,yes,BLAME,S,incorrect,4,0,4,0,1,,,,,,,,,,,,,,,,,,,,,,,,,,,,,,,,,,,,
,,,,,,,,,,00001590554,2020-10-18_20h33.50.100,swahili,2020.2.4,MacIntel,60,,,,,,,,,,,,,,,,,,,,,,,,,,,,,,,,,,,,,,,,,,,,,,,,,,,2.814185,0.39672309,-0.186776797,1,0,0,0.866655,yes,BRIBE,RUSHWA,incorrect,5,0,5,0,1,,,,,,,,,,,,,,,,,,,,,,,,,,,,,,,,,,,,
,,,,,,,,,,00001590554,2020-10-18_20h33.50.100,swahili,2020.2.4,MacIntel,60,,,,,,,,,,,,,,,,,,,,,,,,,,,,,,,,,,,,,,,,,,,,,,,,,,,3.2813,0.523665365,-0.008754568,1,0,0,0.450695,yes,OATH,LAWANI,incorrect,6,0,6,0,1,,,,,,,,,,,,,,,,,,,,,,,,,,,,,,,,,,,,
,,,,,,,,,,00001590554,2020-10-18_20h33.50.100,swahili,2020.2.4,MacIntel,60,,,,,,,,,,,,,,,,,,,,,,,,,,,,,,,,,,,,,,,,,,,,,,,,,,,6.081265,0.406266276,-0.051870813,1,0,0,0.466935,yes,BULL,S,incorrect,7,0,7,0,1,,,,,,,,,,,,,,,,,,,,,,,,,,,,,,,,,,,,
,,,,,,,,,,00001590554,2020-10-18_20h33.50.100,swahili,2020.2.4,MacIntel,60,,,,,,,,,,,,,,,,,,,,,,,,,,,,,,,,,,,,,,,,,,,,,,,,,,,4.9317,0.427967665,0.064250914,1,0,0,0.48344,yes,GRAVE,LABURI,incorrect,8,0,8,0,1,,,,,,,,,,,,,,,,,,,,,,,,,,,,,,,,,,,,
,,,,,,,,,,00001590554,2020-10-18_20h33.50.100,swahili,2020.2.4,MacIntel,60,,,,,,,,,,,,,,,,,,,,,,,,,,,,,,,,,,,,,,,,,,,,,,,,,,,8.080905,0.558539497,0.034580542,1,0,0,0.4319,yes,TREASURE,TAJIRA,incorrect,9,0,9,0,1,,,,,,,,,,,,,,,,,,,,,,,,,,,,,,,,,,,,
,,,,,,,,,,00001590554,2020-10-18_20h33.50.100,swahili,2020.2.4,MacIntel,60,,,,,,,,,,,,,,,,,,,,,,,,,,,,,,,,,,,,,,,,0,0,0,0,1,,,,,,,,,,,,,,,,,,,,,,,,,,,,,,,,,,,,,,,,,,,,,,,,,,,,,,,,,,
,,,,,,,,,,00001590554,2020-10-18_20h33.50.100,swahili,2020.2.4,MacIntel,60,,,,,,,,,,,,,,,,,,,,,,,,,,,,,,,,,,,,,,,,1,0,1,0,1,,,,,,,,,,,,,,,,,,,,,,,,,,,,,,,,,,,,,,,,,,,,,,,,,,,,,,,,,,
,,,,,,,,,,00001590554,2020-10-18_20h33.50.100,swahili,2020.2.4,MacIntel,60,,,,,,,,,,,,,,,,,,,,,,,,,,,,,,,,,,,,,,,,,,,,,5,0,5,0,1,,,,,,,,,,,,,,,,,,,,,,,,,,,,,,,,,,,,,,,,,,,,,,,,,,,,,
,,,,,,,,,,00001590554,2020-10-18_20h33.50.100,swahili,2020.2.4,MacIntel,60,,,,,,,,,,-0.006759983,-0.149474726,1,0,0,1.069445,unsorted_card,0,0,0,0,1,,,,,,,,,,,,,,,,,,,,,,,,,,,,,,,,,,,,,,,,,,,,,,,,,,,,,,,,,,,,,,,,,,,,,,,,,,,,,,,,,
,,,,,,,,,,00001590554,2020-10-18_20h33.50.100,swahili,2020.2.4,MacIntel,60,,,,,,,,,,0.445589193,0.010153395,1,0,0,1.264175,test_pile,1,0,1,0,1,MERCHANT - TAJIRI,,,,,,,,,,,,,,,,,,,,,,,,,,,,,,,,,,,,,,,,,,,,,,,,,,,,,,,,,,,,,,,,,,,,,,,,,,,,,,,,
,,,,,,,,,,00001590554,2020-10-18_20h33.50.100,swahili,2020.2.4,MacIntel,60,,,,,,,,,,-0.25757921,-0.004120356,1,0,0,0.36296,unsorted_card,2,0,2,0,1,,,,,,,,,,,,,,,,,,,,,,,,,,,,,,,,,,,,,,,,,,,,,,,,,,,,,,,,,,,,,,,,,,,,,,,,,,,,,,,,,
,,,,,,,,,,00001590554,2020-10-18_20h33.50.100,swahili,2020.2.4,MacIntel,60,,,,,,,,,,0.531005859,-0.045571331,1,0,0,1.03275,test_pile,3,0,3,0,1,PARROT - KASUKU,,,,,,,,,,,,,,,,,,,,,,,,,,,,,,,,,,,,,,,,,,,,,,,,,,,,,,,,,,,,,,,,,,,,,,,,,,,,,,,,
,,,,,,,,,,00001590554,2020-10-18_20h33.50.100,swahili,2020.2.4,MacIntel,60,,,,,,,,,,-0.174023437,-0.098346148,1,0,0,0.4294,unsorted_card,4,0,4,0,1,,,,,,,,,,,,,,,,,,,,,,,,,,,,,,,,,,,,,,,,,,,,,,,,,,,,,,,,,,,,,,,,,,,,,,,,,,,,,,,,,
,,,,,,,,,,00001590554,2020-10-18_20h33.50.100,swahili,2020.2.4,MacIntel,60,,,,,,,,,,0.485020616,-0.026948843,1,0,0,0.982025,test_pile,5,0,5,0,1,BULL - FAHILI,,,,,,,,,,,,,,,,,,,,,,,,,,,,,,,,,,,,,,,,,,,,,,,,,,,,,,,,,,,,,,,,,,,,,,,,,,,,,,,,
,,,,,,,,,,00001590554,2020-10-18_20h33.50.100,swahili,2020.2.4,MacIntel,60,,,,,,,,,,-0.277837457,-0.011247716,1,0,0,0.3642,unsorted_card,6,0,6,0,1,,,,,,,,,,,,,,,,,,,,,,,,,,,,,,,,,,,,,,,,,,,,,,,,,,,,,,,,,,,,,,,,,,,,,,,,,,,,,,,,,
,,,,,,,,,,00001590554,2020-10-18_20h33.50.100,swahili,2020.2.4,MacIntel,60,,,,,,,,,,0.491758898,-0.571996803,1,0,0,1.39759,done_pile,7,0,7,0,1,PLATE - SAHANI,,,,,,,,,,,,,,,,,,,,,,,,,,,,,,,,,,,,,,,,,,,,,,,,,,,,,,,,,,,,,,,,,,,,,,,,,,,,,,,,
,,,,,,,,,,00001590554,2020-10-18_20h33.50.100,swahili,2020.2.4,MacIntel,60,,,,,,,,,,-0.335481771,-0.050062805,1,0,0,0.44679,unsorted_card,8,0,8,0,1,,,,,,,,,,,,,,,,,,,,,,,,,,,,,,,,,,,,,,,,,,,,,,,,,,,,,,,,,,,,,,,,,,,,,,,,,,,,,,,,,
,,,,,,,,,,00001590554,2020-10-18_20h33.50.100,swahili,2020.2.4,MacIntel,60,,,,,,,,,,0.519004991,-0.058379644,1,0,0,1.098635,test_pile,9,0,9,0,1,BLAME - LAWAMA,,,,,,,,,,,,,,,,,,,,,,,,,,,,,,,,,,,,,,,,,,,,,,,,,,,,,,,,,,,,,,,,,,,,,,,,,,,,,,,,
,,,,,,,,,,00001590554,2020-10-18_20h33.50.100,swahili,2020.2.4,MacIntel,60,,,,,,,,,,-0.207123481,-0.100820265,1,0,0,0.449635,unsorted_card,10,0,10,0,1,,,,,,,,,,,,,,,,,,,,,,,,,,,,,,,,,,,,,,,,,,,,,,,,,,,,,,,,,,,,,,,,,,,,,,,,,,,,,,,,,
,,,,,,,,,,00001590554,2020-10-18_20h33.50.100,swahili,2020.2.4,MacIntel,60,,,,,,,,,,0.422634549,-0.003273447,1,0,0,1.37995,test_pile,11,0,11,0,1,OATH - YAMINI,,,,,,,,,,,,,,,,,,,,,,,,,,,,,,,,,,,,,,,,,,,,,,,,,,,,,,,,,,,,,,,,,,,,,,,,,,,,,,,,
,,,,,,,,,,00001590554,2020-10-18_20h33.50.100,swahili,2020.2.4,MacIntel,60,,,,,,,,,,-0.078613281,-0.05365979,1,0,0,0.382905,unsorted_card,12,0,12,0,1,,,,,,,,,,,,,,,,,,,,,,,,,,,,,,,,,,,,,,,,,,,,,,,,,,,,,,,,,,,,,,,,,,,,,,,,,,,,,,,,,
,,,,,,,,,,00001590554,2020-10-18_20h33.50.100,swahili,2020.2.4,MacIntel,60,,,,,,,,,,0.36257053,0.003073614,1,0,0,1.061855,test_pile,13,0,13,0,1,CORN - NAFAKA,,,,,,,,,,,,,,,,,,,,,,,,,,,,,,,,,,,,,,,,,,,,,,,,,,,,,,,,,,,,,,,,,,,,,,,,,,,,,,,,
,,,,,,,,,,00001590554,2020-10-18_20h33.50.100,swahili,2020.2.4,MacIntel,60,,,,,,,,,,-0.238481988,-0.040594549,1,0,0,0.433705,unsorted_card,14,0,14,0,1,,,,,,,,,,,,,,,,,,,,,,,,,,,,,,,,,,,,,,,,,,,,,,,,,,,,,,,,,,,,,,,,,,,,,,,,,,,,,,,,,
,,,,,,,,,,00001590554,2020-10-18_20h33.50.100,swahili,2020.2.4,MacIntel,60,,,,,,,,,,0.39703776,-0.052118225,1,0,0,1.198175,test_pile,15,0,15,0,1,GRAVE - KABURI,,,,,,,,,,,,,,,,,,,,,,,,,,,,,,,,,,,,,,,,,,,,,,,,,,,,,,,,,,,,,,,,,,,,,,,,,,,,,,,,
,,,,,,,,,,00001590554,2020-10-18_20h33.50.100,swahili,2020.2.4,MacIntel,60,,,,,,,,,,-0.365066189,-0.016548036,1,0,0,0.4641,unsorted_card,16,0,16,0,1,,,,,,,,,,,,,,,,,,,,,,,,,,,,,,,,,,,,,,,,,,,,,,,,,,,,,,,,,,,,,,,,,,,,,,,,,,,,,,,,,
,,,,,,,,,,00001590554,2020-10-18_20h33.50.100,swahili,2020.2.4,MacIntel,60,,,,,,,,,,0.368690321,-0.475896392,1,0,0,1.281865,done_pile,17,0,17,0,1,BRIBE - RUSHWA,,,,,,,,,,,,,,,,,,,,,,,,,,,,,,,,,,,,,,,,,,,,,,,,,,,,,,,,,,,,,,,,,,,,,,,,,,,,,,,,
,,,,,,,,,,00001590554,2020-10-18_20h33.50.100,swahili,2020.2.4,MacIntel,60,,,,,,,,,,-0.358561198,0.039328943,1,0,0,0.432215,unsorted_card,18,0,18,0,1,,,,,,,,,,,,,,,,,,,,,,,,,,,,,,,,,,,,,,,,,,,,,,,,,,,,,,,,,,,,,,,,,,,,,,,,,,,,,,,,,
,,,,,,,,,,00001590554,2020-10-18_20h33.50.100,swahili,2020.2.4,MacIntel,60,,,,,,,,,,0.48344184,0.01916489,1,0,0,1.06424,test_pile,19,0,19,0,1,TREASURE - DAFINA,,,,,,,,,,,,,,,,,,,,,,,,,,,,,,,,,,,,,,,,,,,,,,,,,,,,,,,,,,,,,,,,,,,,,,,,,,,,,,,,
,,,,,,,,,,00001590554,2020-10-18_20h33.50.100,swahili,2020.2.4,MacIntel,60,,,,,,,,,,,,,,,,,,,,,,,,,,,,,,,,,,0,0,0,0,1,,,,,,,,,,,,,,,,,,,,,,,,,,,,,,,,,,,,,,,,,,,,,,,,,,,,,,,,,,,,,,,,
,,,,,,,,,,00001590554,2020-10-18_20h33.50.100,swahili,2020.2.4,MacIntel,60,,,,,,,,,,,,,,,,,,,,,,,,,,,,,,,,,,,,,,,return,,,,,,,,,,,1.948215,5.899635,0.464822049,-0.140605968,1,0,0,0.49986,yes,PARROT,YAMINI,incorrect,0,0,0,0,1,,,,,,,,,,,,,,,,,,,,,,,,,,,,,,,,,,,,
,,,,,,,,,,00001590554,2020-10-18_20h33.50.100,swahili,2020.2.4,MacIntel,60,,,,,,,,,,,,,,,,,,,,,,,,,,,,,,,,,,,,,,,,,,,,,,,,,,,5.016525,0.487055122,-0.054268803,1,0,0,0.4658,yes,BULL,YAMINI,incorrect,1,0,1,0,1,,,,,,,,,,,,,,,,,,,,,,,,,,,,,,,,,,,,
,,,,,,,,,,00001590554,2020-10-18_20h33.50.100,swahili,2020.2.4,MacIntel,60,,,,,,,,,,,,,,,,,,,,,,,,,,,,,,,,,,,,,,,,,,,,,,,,,,,3.112105,0.405289714,-0.168991702,1,0,0,0.566975,yes,CORN,NAFAKA,incorrect,2,0,2,0,1,,,,,,,,,,,,,,,,,,,,,,,,,,,,,,,,,,,,
,,,,,,,,,,00001590554,2020-10-18_20h33.50.100,swahili,2020.2.4,MacIntel,60,,,,,,,,,,,,,,,,,,,,,,,,,,,,,,,,,,,,,,,,,,,,,,,,,,,6.799005,0.364095052,-0.254053745,1,0,0,0.484035,yes,BLAME,LAWANI,incorrect,3,0,3,0,1,,,,,,,,,,,,,,,,,,,,,,,,,,,,,,,,,,,,
,,,,,,,,,,00001590554,2020-10-18_20h33.50.100,swahili,2020.2.4,MacIntel,60,,,,,,,,,,,,,,,,,,,,,,,,,,,,,,,,,,,,,,,,,,,,,,,,,,,7.39905,0.492740885,-0.132641215,1,0,0,0.498935,yes,MERCHANT,TAKINA,incorrect,4,0,4,0,1,,,,,,,,,,,,,,,,,,,,,,,,,,,,,,,,,,,,
,,,,,,,,,,00001590554,2020-10-18_20h33.50.100,swahili,2020.2.4,MacIntel,60,,,,,,,,,,,,,,,,,,,,,,,,,,,,,,,,,,,,,,,,,,,,,,,,,,,2.56636,0.488850911,-0.072729522,1,0,0,0.43282,yes,TREASURE,DAFINA,incorrect,5,0,5,0,1,,,,,,,,,,,,,,,,,,,,,,,,,,,,,,,,,,,,
,,,,,,,,,,00001590554,2020-10-18_20h33.50.100,swahili,2020.2.4,MacIntel,60,,,,,,,,,,,,,,,,,,,,,,,,,,,,,,,,,,,,,,,,,,,,,,,,,,,5.13099,0.566482205,-0.069589297,1,0,0,0.46716,yes,OATH,LAWINI,incorrect,6,0,6,0,1,,,,,,,,,,,,,,,,,,,,,,,,,,,,,,,,,,,,
,,,,,,,,,,00001590554,2020-10-18_20h33.50.100,swahili,2020.2.4,MacIntel,60,,,,,,,,,,,,,,,,,,,,,,,,,,,,,,,,,,,,,,,,,,,,,,,,,,,6.31281,0.655636936,0.136932856,1,0,0,0.46671,yes,GRAVE,NABURI,incorrect,7,0,7,0,1,,,,,,,,,,,,,,,,,,,,,,,,,,,,,,,,,,,,
,,,,,,,,,,00001590554,2020-10-18_20h33.50.100,swahili,2020.2.4,MacIntel,60,,,,,,,,,,,,,,,,,,,,,,,,,,,,,,,,,,,,,,,,0,0,0,0,1,,,,,,,,,,,,,,,,,,,,,,,,,,,,,,,,,,,,,,,,,,,,,,,,,,,,,,,,,,
,,,,,,,,,,00001590554,2020-10-18_20h33.50.100,swahili,2020.2.4,MacIntel,60,,,,,,,,,,,,,,,,,,,,,,,,,,,,,,,,,,,,,,,,1,0,1,0,1,,,,,,,,,,,,,,,,,,,,,,,,,,,,,,,,,,,,,,,,,,,,,,,,,,,,,,,,,,
,,,,,,,,,,00001590554,2020-10-18_20h33.50.100,swahili,2020.2.4,MacIntel,60,,,,,,,,,,,,,,,,,,,,,,,,,,,,,,,,,,,,,,,,,,,,,6,0,6,0,1,,,,,,,,,,,,,,,,,,,,,,,,,,,,,,,,,,,,,,,,,,,,,,,,,,,,,
,,,,,,,,,,00001590554,2020-10-18_20h33.50.100,swahili,2020.2.4,MacIntel,60,,,,,,,,,,-0.147281901,-0.049872488,1,0,0,1.23728,unsorted_card,0,0,0,0,1,,,,,,,,,,,,,,,,,,,,,,,,,,,,,,,,,,,,,,,,,,,,,,,,,,,,,,,,,,,,,,,,,,,,,,,,,,,,,,,,,
,,,,,,,,,,00001590554,2020-10-18_20h33.50.100,swahili,2020.2.4,MacIntel,60,,,,,,,,,,0.437619358,-0.076573919,1,0,0,1.698835,test_pile,1,0,1,0,1,MERCHANT - TAJIRI,,,,,,,,,,,,,,,,,,,,,,,,,,,,,,,,,,,,,,,,,,,,,,,,,,,,,,,,,,,,,,,,,,,,,,,,,,,,,,,,
,,,,,,,,,,00001590554,2020-10-18_20h33.50.100,swahili,2020.2.4,MacIntel,60,,,,,,,,,,-0.215516493,-0.056790499,1,0,0,0.363895,unsorted_card,2,0,2,0,1,,,,,,,,,,,,,,,,,,,,,,,,,,,,,,,,,,,,,,,,,,,,,,,,,,,,,,,,,,,,,,,,,,,,,,,,,,,,,,,,,
,,,,,,,,,,00001590554,2020-10-18_20h33.50.100,swahili,2020.2.4,MacIntel,60,,,,,,,,,,0.42562934,-0.046285018,1,0,0,0.91514,test_pile,3,0,3,0,1,PARROT - KASUKU,,,,,,,,,,,,,,,,,,,,,,,,,,,,,,,,,,,,,,,,,,,,,,,,,,,,,,,,,,,,,,,,,,,,,,,,,,,,,,,,
,,,,,,,,,,00001590554,2020-10-18_20h33.50.100,swahili,2020.2.4,MacIntel,60,,,,,,,,,,-0.142344835,-0.067676614,1,0,0,0.41696,unsorted_card,4,0,4,0,1,,,,,,,,,,,,,,,,,,,,,,,,,,,,,,,,,,,,,,,,,,,,,,,,,,,,,,,,,,,,,,,,,,,,,,,,,,,,,,,,,
,,,,,,,,,,00001590554,2020-10-18_20h33.50.100,swahili,2020.2.4,MacIntel,60,,,,,,,,,,0.386968316,0.060063946,1,0,0,2.929465,test_pile,5,0,5,0,1,BULL - FAHILI,,,,,,,,,,,,,,,,,,,,,,,,,,,,,,,,,,,,,,,,,,,,,,,,,,,,,,,,,,,,,,,,,,,,,,,,,,,,,,,,
,,,,,,,,,,00001590554,2020-10-18_20h33.50.100,swahili,2020.2.4,MacIntel,60,,,,,,,,,,-0.193793403,0.032287226,1,0,0,0.365245,unsorted_card,6,0,6,0,1,,,,,,,,,,,,,,,,,,,,,,,,,,,,,,,,,,,,,,,,,,,,,,,,,,,,,,,,,,,,,,,,,,,,,,,,,,,,,,,,,
,,,,,,,,,,00001590554,2020-10-18_20h33.50.100,swahili,2020.2.4,MacIntel,60,,,,,,,,,,0.370757378,-0.481044458,1,0,0,2.88196,done_pile,7,0,7,0,1,BLAME - LAWAMA,,,,,,,,,,,,,,,,,,,,,,,,,,,,,,,,,,,,,,,,,,,,,,,,,,,,,,,,,,,,,,,,,,,,,,,,,,,,,,,,
,,,,,,,,,,00001590554,2020-10-18_20h33.50.100,swahili,2020.2.4,MacIntel,60,,,,,,,,,,-0.276199002,-0.001113353,1,0,0,0.39733,unsorted_card,8,0,8,0,1,,,,,,,,,,,,,,,,,,,,,,,,,,,,,,,,,,,,,,,,,,,,,,,,,,,,,,,,,,,,,,,,,,,,,,,,,,,,,,,,,
,,,,,,,,,,00001590554,2020-10-18_20h33.50.100,swahili,2020.2.4,MacIntel,60,,,,,,,,,,0.455577257,-0.035541641,1,0,0,0.999825,test_pile,9,0,9,0,1,OATH - YAMINI,,,,,,,,,,,,,,,,,,,,,,,,,,,,,,,,,,,,,,,,,,,,,,,,,,,,,,,,,,,,,,,,,,,,,,,,,,,,,,,,
,,,,,,,,,,00001590554,2020-10-18_20h33.50.100,swahili,2020.2.4,MacIntel,60,,,,,,,,,,-0.257622613,0.135724345,1,0,0,0.51652,unsorted_card,10,0,10,0,1,,,,,,,,,,,,,,,,,,,,,,,,,,,,,,,,,,,,,,,,,,,,,,,,,,,,,,,,,,,,,,,,,,,,,,,,,,,,,,,,,
,,,,,,,,,,00001590554,2020-10-18_20h33.50.100,swahili,2020.2.4,MacIntel,60,,,,,,,,,,0.372238498,-0.444560749,1,0,0,1.04656,done_pile,11,0,11,0,1,CORN - NAFAKA,,,,,,,,,,,,,,,,,,,,,,,,,,,,,,,,,,,,,,,,,,,,,,,,,,,,,,,,,,,,,,,,,,,,,,,,,,,,,,,,
,,,,,,,,,,00001590554,2020-10-18_20h33.50.100,swahili,2020.2.4,MacIntel,60,,,,,,,,,,-0.179595269,-0.121907354,1,0,0,0.39568,unsorted_card,12,0,12,0,1,,,,,,,,,,,,,,,,,,,,,,,,,,,,,,,,,,,,,,,,,,,,,,,,,,,,,,,,,,,,,,,,,,,,,,,,,,,,,,,,,
,,,,,,,,,,00001590554,2020-10-18_20h33.50.100,swahili,2020.2.4,MacIntel,60,,,,,,,,,,0.371668837,-0.124724041,1,0,0,1.11574,test_pile,13,0,13,0,1,GRAVE - KABURI,,,,,,,,,,,,,,,,,,,,,,,,,,,,,,,,,,,,,,,,,,,,,,,,,,,,,,,,,,,,,,,,,,,,,,,,,,,,,,,,
,,,,,,,,,,00001590554,2020-10-18_20h33.50.100,swahili,2020.2.4,MacIntel,60,,,,,,,,,,-0.119618056,-0.07515606,1,0,0,0.88306,unsorted_card,14,0,14,0,1,,,,,,,,,,,,,,,,,,,,,,,,,,,,,,,,,,,,,,,,,,,,,,,,,,,,,,,,,,,,,,,,,,,,,,,,,,,,,,,,,
,,,,,,,,,,00001590554,2020-10-18_20h33.50.100,swahili,2020.2.4,MacIntel,60,,,,,,,,,,0.394308811,-0.460737667,1,0,0,1.065055,done_pile,15,0,15,0,1,TREASURE - DAFINA,,,,,,,,,,,,,,,,,,,,,,,,,,,,,,,,,,,,,,,,,,,,,,,,,,,,,,,,,,,,,,,,,,,,,,,,,,,,,,,,
,,,,,,,,,,00001590554,2020-10-18_20h33.50.100,swahili,2020.2.4,MacIntel,60,,,,,,,,,,,,,,,,,,,,,,,,,,,,,,,,,,0,0,0,0,1,,,,,,,,,,,,,,,,,,,,,,,,,,,,,,,,,,,,,,,,,,,,,,,,,,,,,,,,,,,,,,,,
,,,,,,,,,,00001590554,2020-10-18_20h33.50.100,swahili,2020.2.4,MacIntel,60,,,,,,,,,,,,,,,,,,,,,,,,,,,,,,,,,,,,,,,return,,,,,,,,,,,1.06586,2.43381,0.60031467,0.175452954,1,0,0,0.450095,yes,GRAVE,KABURI,incorrect,0,0,0,0,1,,,,,,,,,,,,,,,,,,,,,,,,,,,,,,,,,,,,
,,,,,,,,,,00001590554,2020-10-18_20h33.50.100,swahili,2020.2.4,MacIntel,60,,,,,,,,,,,,,,,,,,,,,,,,,,,,,,,,,,,,,,,,,,,,,,,,,,,5.24955,0.366308594,-0.107747792,1,0,0,0.450105,yes,BULL,S,incorrect,1,0,1,0,1,,,,,,,,,,,,,,,,,,,,,,,,,,,,,,,,,,,,
,,,,,,,,,,00001590554,2020-10-18_20h33.50.100,swahili,2020.2.4,MacIntel,60,,,,,,,,,,,,,,,,,,,,,,,,,,,,,,,,,,,,,,,,,,,,,,,,,,,4.43293,0.547336155,-0.011314327,1,0,0,0.46494,yes,OATH,LAWANA,incorrect,2,0,2,0,1,,,,,,,,,,,,,,,,,,,,,,,,,,,,,,,,,,,,
,,,,,,,,,,00001590554,2020-10-18_20h33.50.100,swahili,2020.2.4,MacIntel,60,,,,,,,,,,,,,,,,,,,,,,,,,,,,,,,,,,,,,,,,,,,,,,,,,,,4.147135,0.550412326,-0.150569047,1,0,0,0.46727,yes,PARROT,S,incorrect,3,0,3,0,1,,,,,,,,,,,,,,,,,,,,,,,,,,,,,,,,,,,,
,,,,,,,,,,00001590554,2020-10-18_20h33.50.100,swahili,2020.2.4,MacIntel,60,,,,,,,,,,,,,,,,,,,,,,,,,,,,,,,,,,,,,,,,,,,,,,,,,,,6.30077,0.406814236,-0.062480968,1,0,0,0.481005,yes,MERCHANT,TAJIRA,incorrect,4,0,4,0,1,,,,,,,,,,,,,,,,,,,,,,,,,,,,,,,,,,,,
,,,,,,,,,,00001590554,2020-10-18_20h33.50.100,swahili,2020.2.4,MacIntel,60,,,,,,,,,,,,,,,,,,,,,,,,,,,,,,,,,,,,,,,,0,0,0,0,1,,,,,,,,,,,,,,,,,,,,,,,,,,,,,,,,,,,,,,,,,,,,,,,,,,,,,,,,,,
,,,,,,,,,,00001590554,2020-10-18_20h33.50.100,swahili,2020.2.4,MacIntel,60,,,,,,,,,,,,,,,,,,,,,,,,,,,,,,,,,,,,,,,,1,0,1,0,1,,,,,,,,,,,,,,,,,,,,,,,,,,,,,,,,,,,,,,,,,,,,,,,,,,,,,,,,,,
,,,,,,,,,,00001590554,2020-10-18_20h33.50.100,swahili,2020.2.4,MacIntel,60,,,,,,,,,,,,,,,,,,,,,,,,,,,,,,,,,,,,,,,,,,,,,7,0,7,0,1,,,,,,,,,,,,,,,,,,,,,,,,,,,,,,,,,,,,,,,,,,,,,,,,,,,,,
,,,,,,,,,,00001590554,2020-10-18_20h33.50.100,swahili,2020.2.4,MacIntel,60,,,,,,,,,,-0.379801432,-0.088868377,1,0,0,0.8888,unsorted_card,0,0,0,0,1,,,,,,,,,,,,,,,,,,,,,,,,,,,,,,,,,,,,,,,,,,,,,,,,,,,,,,,,,,,,,,,,,,,,,,,,,,,,,,,,,
,,,,,,,,,,00001590554,2020-10-18_20h33.50.100,swahili,2020.2.4,MacIntel,60,,,,,,,,,,-0.336480035,-0.074061739,1,0,0,0.731915,unsorted_card,1,0,1,0,1,MERCHANT - TAJIRI,,,,,,,,,,,,,,,,,,,,,,,,,,,,,,,,,,,,,,,,,,,,,,,,,,,,,,,,,,,,,,,,,,,,,,,,,,,,,,,,
,,,,,,,,,,00001590554,2020-10-18_20h33.50.100,swahili,2020.2.4,MacIntel,60,,,,,,,,,,0.408582899,-0.514426005,1,0,0,0.73284,done_pile,2,0,2,0,1,MERCHANT - TAJIRI,,,,,,,,,,,,,,,,,,,,,,,,,,,,,,,,,,,,,,,,,,,,,,,,,,,,,,,,,,,,,,,,,,,,,,,,,,,,,,,,
,,,,,,,,,,00001590554,2020-10-18_20h33.50.100,swahili,2020.2.4,MacIntel,60,,,,,,,,,,-0.315375434,-0.138369747,1,0,0,0.445395,unsorted_card,3,0,3,0,1,,,,,,,,,,,,,,,,,,,,,,,,,,,,,,,,,,,,,,,,,,,,,,,,,,,,,,,,,,,,,,,,,,,,,,,,,,,,,,,,,
,,,,,,,,,,00001590554,2020-10-18_20h33.50.100,swahili,2020.2.4,MacIntel,60,,,,,,,,,,0.546896701,-0.088059531,1,0,0,1.51591,test_pile,4,0,4,0,1,PARROT - KASUKU,,,,,,,,,,,,,,,,,,,,,,,,,,,,,,,,,,,,,,,,,,,,,,,,,,,,,,,,,,,,,,,,,,,,,,,,,,,,,,,,
,,,,,,,,,,00001590554,2020-10-18_20h33.50.100,swahili,2020.2.4,MacIntel,60,,,,,,,,,,-0.189312066,-0.041584196,1,0,0,0.365485,unsorted_card,5,0,5,0,1,,,,,,,,,,,,,,,,,,,,,,,,,,,,,,,,,,,,,,,,,,,,,,,,,,,,,,,,,,,,,,,,,,,,,,,,,,,,,,,,,
,,,,,,,,,,00001590554,2020-10-18_20h33.50.100,swahili,2020.2.4,MacIntel,60,,,,,,,,,,0.407573785,-0.04271658,1,0,0,0.898825,test_pile,6,0,6,0,1,BULL - FAHILI,,,,,,,,,,,,,,,,,,,,,,,,,,,,,,,,,,,,,,,,,,,,,,,,,,,,,,,,,,,,,,,,,,,,,,,,,,,,,,,,
,,,,,,,,,,00001590554,2020-10-18_20h33.50.100,swahili,2020.2.4,MacIntel,60,,,,,,,,,,-0.108246528,-0.007022686,1,0,0,0.382115,unsorted_card,7,0,7,0,1,,,,,,,,,,,,,,,,,,,,,,,,,,,,,,,,,,,,,,,,,,,,,,,,,,,,,,,,,,,,,,,,,,,,,,,,,,,,,,,,,
,,,,,,,,,,00001590554,2020-10-18_20h33.50.100,swahili,2020.2.4,MacIntel,60,,,,,,,,,,0.489491102,-0.030479217,1,0,0,0.912535,test_pile,8,0,8,0,1,OATH - YAMINI,,,,,,,,,,,,,,,,,,,,,,,,,,,,,,,,,,,,,,,,,,,,,,,,,,,,,,,,,,,,,,,,,,,,,,,,,,,,,,,,
,,,,,,,,,,00001590554,2020-10-18_20h33.50.100,swahili,2020.2.4,MacIntel,60,,,,,,,,,,-0.321088325,0.111792022,1,0,0,0.38285,unsorted_card,9,0,9,0,1,,,,,,,,,,,,,,,,,,,,,,,,,,,,,,,,,,,,,,,,,,,,,,,,,,,,,,,,,,,,,,,,,,,,,,,,,,,,,,,,,
,,,,,,,,,,00001590554,2020-10-18_20h33.50.100,swahili,2020.2.4,MacIntel,60,,,,,,,,,,0.608913845,-0.047931258,1,0,0,0.846475,test_pile,10,0,10,0,1,GRAVE - KABURI,,,,,,,,,,,,,,,,,,,,,,,,,,,,,,,,,,,,,,,,,,,,,,,,,,,,,,,,,,,,,,,,,,,,,,,,,,,,,,,,
,,,,,,,,,,00001590554,2020-10-18_20h33.50.100,swahili,2020.2.4,MacIntel,60,,,,,,,,,,,,,,,,,,,,,,,,,,,,,,,,,,0,0,0,0,1,,,,,,,,,,,,,,,,,,,,,,,,,,,,,,,,,,,,,,,,,,,,,,,,,,,,,,,,,,,,,,,,
,,,,,,,,,,00001590554,2020-10-18_20h33.50.100,swahili,2020.2.4,MacIntel,60,,,,,,,,,,,,,,,,,,,,,,,,,,,,,,,,,,,,,,,return,,,,,,,,,,,0.813845,4.08059,0.447157118,-0.113619062,1,0,0,0.467335,yes,OATH,YAMINI,incorrect,0,0,0,0,1,,,,,,,,,,,,,,,,,,,,,,,,,,,,,,,,,,,,
