condition,consent_key.keys,consent_key.rt,done_with_instructions.keys,done_with_instructions.rt,instr_loop.thisRepN,instr_loop.thisTrialN,instr_loop.thisN,instr_loop.thisIndex,instr_loop.ran,Student ID #,date,expName,psychopyVersion,OS,frameRate,instr_learning_key.keys,instr_learning_key.rt,card_gen_loop.thisRepN,card_gen_loop.thisTrialN,card_gen_loop.thisN,card_gen_loop.thisIndex,card_gen_loop.ran,swa,eng,choose_pile.x,choose_pile.y,choose_pile.leftButton,choose_pile.midButton,choose_pile.rightButton,choose_pile.time,choose_pile.clicked_name,choices.thisRepN,choices.thisTrialN,choices.thisN,choices.thisIndex,choices.ran,card_to_show,mouse_pick.x,mouse_pick.y,mouse_pick.leftButton,mouse_pick.midButton,mouse_pick.rightButton,mouse_pick.time,mouse_pick.clicked_name,key_instr_study.keys,key_instr_study.rt,next_study.keys,next_study.rt,study_loop.thisRepN,study_loop.thisTrialN,study_loop.thisN,study_loop.thisIndex,study_loop.ran,key_instr_test.keys,learn_loop.thisRepN,learn_loop.thisTrialN,learn_loop.thisN,learn_loop.thisIndex,learn_loop.ran,trials.thisRepN,trials.thisTrialN,trials.thisN,trials.thisIndex,trials.ran,key_instr_test.rt,duration,yes_or_no.x,yes_or_no.y,yes_or_no.leftButton,yes_or_no.midButton,yes_or_no.rightButton,yes_or_no.time,yes_or_no.clicked_name,test_response.stim,test_response.resp,test_response.eval,test_loop.thisRepN,test_loop.thisTrialN,test_loop.thisN,test_loop.thisIndex,test_loop.ran,instr_movie_key.keys,instr_movie_key.rt,return_to_exp.keys,return_to_exp.rt,instr_assess_key.keys,instr_assess_key.rt,assess_loop.thisRepN,assess_loop.thisTrialN,assess_loop.thisN,assess_loop.thisIndex,assess_loop.ran,ans_gen_loop.thisRepN,ans_gen_loop.thisTrialN,ans_gen_loop.thisN,ans_gen_loop.thisIndex,ans_gen_loop.ran,sen,ans,instr_transfer_key.keys,instr_transfer_key.rt,transfer_response.resp,transfer_response.eval,select_word.x,select_word.y,select_word.leftButton,select_word.midButton,select_word.rightButton,select_word.time,select_word.clicked_name,transfers.thisRepN,transfers.thisTrialN,transfers.thisN,transfers.thisIndex,transfers.ran,end_experiment.keys,end_experiment.rt
1,return,33.916435,return,22.548235,0,0,0,0,1,1582915,2020-10-22_14h46.09.729,swahili,2020.2.4,MacIntel,60,,,,,,,,,,,,,,,,,,,,,,,,,,,,,,,,,,,,,,,,,,,,,,,,,,,,,,,,,,,,,,,,,,,,,,,,,,,,,,,,,,,,,,,,,,,,,,,,,,,,,,
,,,,,,,,,,1582915,2020-10-22_14h46.09.729,swahili,2020.2.4,MacIntel,60,return,17.082955,0,0,0,0,1,TAJIRI,MERCHANT,,,,,,,,,,,,,,,,,,,,,,,,,,,,,,,,,,,,,,,,,,,,,,,,,,,,,,,,,,,,,,,,,,,,,,,,,,,,,,,,,,,,,,,,,,,,,
,,,,,,,,,,1582915,2020-10-22_14h46.09.729,swahili,2020.2.4,MacIntel,60,,,0,1,1,1,1,KASUKU,PARROT,,,,,,,,,,,,,,,,,,,,,,,,,,,,,,,,,,,,,,,,,,,,,,,,,,,,,,,,,,,,,,,,,,,,,,,,,,,,,,,,,,,,,,,,,,,,,
,,,,,,,,,,1582915,2020-10-22_14h46.09.729,swahili,2020.2.4,MacIntel,60,,,0,2,2,2,1,FAHILI,BULL,,,,,,,,,,,,,,,,,,,,,,,,,,,,,,,,,,,,,,,,,,,,,,,,,,,,,,,,,,,,,,,,,,,,,,,,,,,,,,,,,,,,,,,,,,,,,
,,,,,,,,,,1582915,2020-10-22_14h46.09.729,swahili,2020.2.4,MacIntel,60,,,0,3,3,3,1,SAHANI,PLATE,,,,,,,,,,,,,,,,,,,,,,,,,,,,,,,,,,,,,,,,,,,,,,,,,,,,,,,,,,,,,,,,,,,,,,,,,,,,,,,,,,,,,,,,,,,,,
,,,,,,,,,,1582915,2020-10-22_14h46.09.729,swahili,2020.2.4,MacIntel,60,,,0,4,4,4,1,HAMIRA,YEAST,,,,,,,,,,,,,,,,,,,,,,,,,,,,,,,,,,,,,,,,,,,,,,,,,,,,,,,,,,,,,,,,,,,,,,,,,,,,,,,,,,,,,,,,,,,,,
,,,,,,,,,,1582915,2020-10-22_14h46.09.729,swahili,2020.2.4,MacIntel,60,,,0,5,5,5,1,LAWAMA,BLAME,,,,,,,,,,,,,,,,,,,,,,,,,,,,,,,,,,,,,,,,,,,,,,,,,,,,,,,,,,,,,,,,,,,,,,,,,,,,,,,,,,,,,,,,,,,,,
,,,,,,,,,,1582915,2020-10-22_14h46.09.729,swahili,2020.2.4,MacIntel,60,,,0,6,6,6,1,YAMINI,OATH,,,,,,,,,,,,,,,,,,,,,,,,,,,,,,,,,,,,,,,,,,,,,,,,,,,,,,,,,,,,,,,,,,,,,,,,,,,,,,,,,,,,,,,,,,,,,
,,,,,,,,,,1582915,2020-10-22_14h46.09.729,swahili,2020.2.4,MacIntel,60,,,0,7,7,7,1,NAFAKA,CORN,,,,,,,,,,,,,,,,,,,,,,,,,,,,,,,,,,,,,,,,,,,,,,,,,,,,,,,,,,,,,,,,,,,,,,,,,,,,,,,,,,,,,,,,,,,,,
,,,,,,,,,,1582915,2020-10-22_14h46.09.729,swahili,2020.2.4,MacIntel,60,,,0,8,8,8,1,UTENZI,POEM,,,,,,,,,,,,,,,,,,,,,,,,,,,,,,,,,,,,,,,,,,,,,,,,,,,,,,,,,,,,,,,,,,,,,,,,,,,,,,,,,,,,,,,,,,,,,
,,,,,,,,,,1582915,2020-10-22_14h46.09.729,swahili,2020.2.4,MacIntel,60,,,0,9,9,9,1,MSHONI,TAILOR,,,,,,,,,,,,,,,,,,,,,,,,,,,,,,,,,,,,,,,,,,,,,,,,,,,,,,,,,,,,,,,,,,,,,,,,,,,,,,,,,,,,,,,,,,,,,
,,,,,,,,,,1582915,2020-10-22_14h46.09.729,swahili,2020.2.4,MacIntel,60,,,0,10,10,10,1,JIBINI,CHEESE,,,,,,,,,,,,,,,,,,,,,,,,,,,,,,,,,,,,,,,,,,,,,,,,,,,,,,,,,,,,,,,,,,,,,,,,,,,,,,,,,,,,,,,,,,,,,
,,,,,,,,,,1582915,2020-10-22_14h46.09.729,swahili,2020.2.4,MacIntel,60,,,0,11,11,11,1,ZABIBU,GRAPES,,,,,,,,,,,,,,,,,,,,,,,,,,,,,,,,,,,,,,,,,,,,,,,,,,,,,,,,,,,,,,,,,,,,,,,,,,,,,,,,,,,,,,,,,,,,,
,,,,,,,,,,1582915,2020-10-22_14h46.09.729,swahili,2020.2.4,MacIntel,60,,,0,12,12,12,1,KABURI,GRAVE,,,,,,,,,,,,,,,,,,,,,,,,,,,,,,,,,,,,,,,,,,,,,,,,,,,,,,,,,,,,,,,,,,,,,,,,,,,,,,,,,,,,,,,,,,,,,
,,,,,,,,,,1582915,2020-10-22_14h46.09.729,swahili,2020.2.4,MacIntel,60,,,0,13,13,13,1,SAMADI,MANURE,,,,,,,,,,,,,,,,,,,,,,,,,,,,,,,,,,,,,,,,,,,,,,,,,,,,,,,,,,,,,,,,,,,,,,,,,,,,,,,,,,,,,,,,,,,,,
,,,,,,,,,,1582915,2020-10-22_14h46.09.729,swahili,2020.2.4,MacIntel,60,,,0,14,14,14,1,WAKILI,AGENT,,,,,,,,,,,,,,,,,,,,,,,,,,,,,,,,,,,,,,,,,,,,,,,,,,,,,,,,,,,,,,,,,,,,,,,,,,,,,,,,,,,,,,,,,,,,,
,,,,,,,,,,1582915,2020-10-22_14h46.09.729,swahili,2020.2.4,MacIntel,60,,,0,15,15,15,1,RUSHWA,BRIBE,,,,,,,,,,,,,,,,,,,,,,,,,,,,,,,,,,,,,,,,,,,,,,,,,,,,,,,,,,,,,,,,,,,,,,,,,,,,,,,,,,,,,,,,,,,,,
,,,,,,,,,,1582915,2020-10-22_14h46.09.729,swahili,2020.2.4,MacIntel,60,,,0,16,16,16,1,YATIMA,ORPHAN,,,,,,,,,,,,,,,,,,,,,,,,,,,,,,,,,,,,,,,,,,,,,,,,,,,,,,,,,,,,,,,,,,,,,,,,,,,,,,,,,,,,,,,,,,,,,
,,,,,,,,,,1582915,2020-10-22_14h46.09.729,swahili,2020.2.4,MacIntel,60,,,0,17,17,17,1,TALAKA,DIVORCE,,,,,,,,,,,,,,,,,,,,,,,,,,,,,,,,,,,,,,,,,,,,,,,,,,,,,,,,,,,,,,,,,,,,,,,,,,,,,,,,,,,,,,,,,,,,,
,,,,,,,,,,1582915,2020-10-22_14h46.09.729,swahili,2020.2.4,MacIntel,60,,,0,18,18,18,1,MASHUA,BOAT,,,,,,,,,,,,,,,,,,,,,,,,,,,,,,,,,,,,,,,,,,,,,,,,,,,,,,,,,,,,,,,,,,,,,,,,,,,,,,,,,,,,,,,,,,,,,
,,,,,,,,,,1582915,2020-10-22_14h46.09.729,swahili,2020.2.4,MacIntel,60,,,0,19,19,19,1,DAFINA,TREASURE,,,,,,,,,,,,,,,,,,,,,,,,,,,,,,,,,,,,,,,,,,,,,,,,,,,,,,,,,,,,,,,,,,,,,,,,,,,,,,,,,,,,,,,,,,,,,
,,,,,,,,,,1582915,2020-10-22_14h46.09.729,swahili,2020.2.4,MacIntel,60,,,,,,,,,,-0.179504395,-0.018535156,1,0,0,11.10976,unsorted_card,0,0,0,0,1,,,,,,,,,,,,,,,,,,,,,,,,,,,,,,,,,,,,,,,,,,,,,,,,,,,,,,,,,,,,,,,,,,,,,,,,,,,,,,,,,
,,,,,,,,,,1582915,2020-10-22_14h46.09.729,swahili,2020.2.4,MacIntel,60,,,,,,,,,,0.396057129,0.472236328,1,0,0,6.09512,study_pile,1,0,1,0,1,MERCHANT - TAJIRI,,,,,,,,,,,,,,,,,,,,,,,,,,,,,,,,,,,,,,,,,,,,,,,,,,,,,,,,,,,,,,,,,,,,,,,,,,,,,,,,
,,,,,,,,,,1582915,2020-10-22_14h46.09.729,swahili,2020.2.4,MacIntel,60,,,,,,,,,,-0.251062012,-0.136416016,1,0,0,0.777285,unsorted_card,2,0,2,0,1,,,,,,,,,,,,,,,,,,,,,,,,,,,,,,,,,,,,,,,,,,,,,,,,,,,,,,,,,,,,,,,,,,,,,,,,,,,,,,,,,
,,,,,,,,,,1582915,2020-10-22_14h46.09.729,swahili,2020.2.4,MacIntel,60,,,,,,,,,,0.540869141,0.488427734,1,0,0,2.56616,study_pile,3,0,3,0,1,PARROT - KASUKU,,,,,,,,,,,,,,,,,,,,,,,,,,,,,,,,,,,,,,,,,,,,,,,,,,,,,,,,,,,,,,,,,,,,,,,,,,,,,,,,
,,,,,,,,,,1582915,2020-10-22_14h46.09.729,swahili,2020.2.4,MacIntel,60,,,,,,,,,,-0.066241455,-0.036113281,1,0,0,0.789,unsorted_card,4,0,4,0,1,,,,,,,,,,,,,,,,,,,,,,,,,,,,,,,,,,,,,,,,,,,,,,,,,,,,,,,,,,,,,,,,,,,,,,,,,,,,,,,,,
,,,,,,,,,,1582915,2020-10-22_14h46.09.729,swahili,2020.2.4,MacIntel,60,,,,,,,,,,0.420355225,0.458691406,1,0,0,3.15543,study_pile,5,0,5,0,1,BULL - FAHILI,,,,,,,,,,,,,,,,,,,,,,,,,,,,,,,,,,,,,,,,,,,,,,,,,,,,,,,,,,,,,,,,,,,,,,,,,,,,,,,,
,,,,,,,,,,1582915,2020-10-22_14h46.09.729,swahili,2020.2.4,MacIntel,60,,,,,,,,,,-0.39586792,-0.090820313,1,0,0,0.716855,unsorted_card,6,0,6,0,1,,,,,,,,,,,,,,,,,,,,,,,,,,,,,,,,,,,,,,,,,,,,,,,,,,,,,,,,,,,,,,,,,,,,,,,,,,,,,,,,,
,,,,,,,,,,1582915,2020-10-22_14h46.09.729,swahili,2020.2.4,MacIntel,60,,,,,,,,,,0.482019043,0.423457031,1,0,0,1.86976,study_pile,7,0,7,0,1,PLATE - SAHANI,,,,,,,,,,,,,,,,,,,,,,,,,,,,,,,,,,,,,,,,,,,,,,,,,,,,,,,,,,,,,,,,,,,,,,,,,,,,,,,,
,,,,,,,,,,1582915,2020-10-22_14h46.09.729,swahili,2020.2.4,MacIntel,60,,,,,,,,,,-0.188818359,-0.125634766,1,0,0,1.042805,unsorted_card,8,0,8,0,1,,,,,,,,,,,,,,,,,,,,,,,,,,,,,,,,,,,,,,,,,,,,,,,,,,,,,,,,,,,,,,,,,,,,,,,,,,,,,,,,,
,,,,,,,,,,1582915,2020-10-22_14h46.09.729,swahili,2020.2.4,MacIntel,60,,,,,,,,,,0.569744873,0.488457031,1,0,0,3.369695,study_pile,9,0,9,0,1,YEAST - HAMIRA,,,,,,,,,,,,,,,,,,,,,,,,,,,,,,,,,,,,,,,,,,,,,,,,,,,,,,,,,,,,,,,,,,,,,,,,,,,,,,,,
,,,,,,,,,,1582915,2020-10-22_14h46.09.729,swahili,2020.2.4,MacIntel,60,,,,,,,,,,-0.168554687,-0.028320313,1,0,0,0.606125,unsorted_card,10,0,10,0,1,,,,,,,,,,,,,,,,,,,,,,,,,,,,,,,,,,,,,,,,,,,,,,,,,,,,,,,,,,,,,,,,,,,,,,,,,,,,,,,,,
,,,,,,,,,,1582915,2020-10-22_14h46.09.729,swahili,2020.2.4,MacIntel,60,,,,,,,,,,0.445684814,0.452177734,1,0,0,3.48983,study_pile,11,0,11,0,1,BLAME - LAWAMA,,,,,,,,,,,,,,,,,,,,,,,,,,,,,,,,,,,,,,,,,,,,,,,,,,,,,,,,,,,,,,,,,,,,,,,,,,,,,,,,
,,,,,,,,,,1582915,2020-10-22_14h46.09.729,swahili,2020.2.4,MacIntel,60,,,,,,,,,,-0.315252686,-0.266113281,1,0,0,0.56337,unsorted_card,12,0,12,0,1,,,,,,,,,,,,,,,,,,,,,,,,,,,,,,,,,,,,,,,,,,,,,,,,,,,,,,,,,,,,,,,,,,,,,,,,,,,,,,,,,
,,,,,,,,,,1582915,2020-10-22_14h46.09.729,swahili,2020.2.4,MacIntel,60,,,,,,,,,,0.437719727,0.45609375,1,0,0,1.815695,study_pile,13,0,13,0,1,OATH - YAMINI,,,,,,,,,,,,,,,,,,,,,,,,,,,,,,,,,,,,,,,,,,,,,,,,,,,,,,,,,,,,,,,,,,,,,,,,,,,,,,,,
,,,,,,,,,,1582915,2020-10-22_14h46.09.729,swahili,2020.2.4,MacIntel,60,,,,,,,,,,-0.147894287,-0.000859375,1,0,0,0.700715,unsorted_card,14,0,14,0,1,,,,,,,,,,,,,,,,,,,,,,,,,,,,,,,,,,,,,,,,,,,,,,,,,,,,,,,,,,,,,,,,,,,,,,,,,,,,,,,,,
,,,,,,,,,,1582915,2020-10-22_14h46.09.729,swahili,2020.2.4,MacIntel,60,,,,,,,,,,0.562097168,0.500986328,1,0,0,1.368475,study_pile,15,0,15,0,1,CORN - NAFAKA,,,,,,,,,,,,,,,,,,,,,,,,,,,,,,,,,,,,,,,,,,,,,,,,,,,,,,,,,,,,,,,,,,,,,,,,,,,,,,,,
,,,,,,,,,,1582915,2020-10-22_14h46.09.729,swahili,2020.2.4,MacIntel,60,,,,,,,,,,-0.161358643,0.093447266,1,0,0,0.6035,unsorted_card,16,0,16,0,1,,,,,,,,,,,,,,,,,,,,,,,,,,,,,,,,,,,,,,,,,,,,,,,,,,,,,,,,,,,,,,,,,,,,,,,,,,,,,,,,,
,,,,,,,,,,1582915,2020-10-22_14h46.09.729,swahili,2020.2.4,MacIntel,60,,,,,,,,,,0.396069336,0.416757812,1,0,0,2.23646,study_pile,17,0,17,0,1,POEM - UTENZI,,,,,,,,,,,,,,,,,,,,,,,,,,,,,,,,,,,,,,,,,,,,,,,,,,,,,,,,,,,,,,,,,,,,,,,,,,,,,,,,
,,,,,,,,,,1582915,2020-10-22_14h46.09.729,swahili,2020.2.4,MacIntel,60,,,,,,,,,,-0.239263916,-0.002646484,1,0,0,1.19078,unsorted_card,18,0,18,0,1,,,,,,,,,,,,,,,,,,,,,,,,,,,,,,,,,,,,,,,,,,,,,,,,,,,,,,,,,,,,,,,,,,,,,,,,,,,,,,,,,
,,,,,,,,,,1582915,2020-10-22_14h46.09.729,swahili,2020.2.4,MacIntel,60,,,,,,,,,,0.443200684,0.4546875,1,0,0,1.951705,study_pile,19,0,19,0,1,TAILOR - MSHONI,,,,,,,,,,,,,,,,,,,,,,,,,,,,,,,,,,,,,,,,,,,,,,,,,,,,,,,,,,,,,,,,,,,,,,,,,,,,,,,,
,,,,,,,,,,1582915,2020-10-22_14h46.09.729,swahili,2020.2.4,MacIntel,60,,,,,,,,,,-0.184552002,0.076855469,1,0,0,1.05209,unsorted_card,20,0,20,0,1,,,,,,,,,,,,,,,,,,,,,,,,,,,,,,,,,,,,,,,,,,,,,,,,,,,,,,,,,,,,,,,,,,,,,,,,,,,,,,,,,
,,,,,,,,,,1582915,2020-10-22_14h46.09.729,swahili,2020.2.4,MacIntel,60,,,,,,,,,,0.467767334,0.473115234,1,0,0,1.571295,study_pile,21,0,21,0,1,CHEESE - JIBINI,,,,,,,,,,,,,,,,,,,,,,,,,,,,,,,,,,,,,,,,,,,,,,,,,,,,,,,,,,,,,,,,,,,,,,,,,,,,,,,,
,,,,,,,,,,1582915,2020-10-22_14h46.09.729,swahili,2020.2.4,MacIntel,60,,,,,,,,,,-0.159130859,0.013388672,1,0,0,0.74241,unsorted_card,22,0,22,0,1,,,,,,,,,,,,,,,,,,,,,,,,,,,,,,,,,,,,,,,,,,,,,,,,,,,,,,,,,,,,,,,,,,,,,,,,,,,,,,,,,
,,,,,,,,,,1582915,2020-10-22_14h46.09.729,swahili,2020.2.4,MacIntel,60,,,,,,,,,,0.541119385,0.464355469,1,0,0,1.987375,study_pile,23,0,23,0,1,GRAPES - ZABIBU,,,,,,,,,,,,,,,,,,,,,,,,,,,,,,,,,,,,,,,,,,,,,,,,,,,,,,,,,,,,,,,,,,,,,,,,,,,,,,,,
,,,,,,,,,,1582915,2020-10-22_14h46.09.729,swahili,2020.2.4,MacIntel,60,,,,,,,,,,-0.237902832,-0.061347656,1,0,0,0.876175,unsorted_card,24,0,24,0,1,,,,,,,,,,,,,,,,,,,,,,,,,,,,,,,,,,,,,,,,,,,,,,,,,,,,,,,,,,,,,,,,,,,,,,,,,,,,,,,,,
,,,,,,,,,,1582915,2020-10-22_14h46.09.729,swahili,2020.2.4,MacIntel,60,,,,,,,,,,0.506616211,0.500068359,1,0,0,1.890395,study_pile,25,0,25,0,1,GRAVE - KABURI,,,,,,,,,,,,,,,,,,,,,,,,,,,,,,,,,,,,,,,,,,,,,,,,,,,,,,,,,,,,,,,,,,,,,,,,,,,,,,,,
,,,,,,,,,,1582915,2020-10-22_14h46.09.729,swahili,2020.2.4,MacIntel,60,,,,,,,,,,-0.118127441,-0.015234375,1,0,0,0.662015,unsorted_card,26,0,26,0,1,,,,,,,,,,,,,,,,,,,,,,,,,,,,,,,,,,,,,,,,,,,,,,,,,,,,,,,,,,,,,,,,,,,,,,,,,,,,,,,,,
,,,,,,,,,,1582915,2020-10-22_14h46.09.729,swahili,2020.2.4,MacIntel,60,,,,,,,,,,0.486828613,0.460761719,1,0,0,3.88026,study_pile,27,0,27,0,1,MANURE - SAMADI,,,,,,,,,,,,,,,,,,,,,,,,,,,,,,,,,,,,,,,,,,,,,,,,,,,,,,,,,,,,,,,,,,,,,,,,,,,,,,,,
,,,,,,,,,,1582915,2020-10-22_14h46.09.729,swahili,2020.2.4,MacIntel,60,,,,,,,,,,-0.387811279,-0.196289063,1,0,0,0.68248,unsorted_card,28,0,28,0,1,,,,,,,,,,,,,,,,,,,,,,,,,,,,,,,,,,,,,,,,,,,,,,,,,,,,,,,,,,,,,,,,,,,,,,,,,,,,,,,,,
,,,,,,,,,,1582915,2020-10-22_14h46.09.729,swahili,2020.2.4,MacIntel,60,,,,,,,,,,0.50647583,0.369335937,1,0,0,1.502285,study_pile,29,0,29,0,1,AGENT - WAKILI,,,,,,,,,,,,,,,,,,,,,,,,,,,,,,,,,,,,,,,,,,,,,,,,,,,,,,,,,,,,,,,,,,,,,,,,,,,,,,,,
,,,,,,,,,,1582915,2020-10-22_14h46.09.729,swahili,2020.2.4,MacIntel,60,,,,,,,,,,-0.214703369,-0.189667969,1,0,0,0.72474,unsorted_card,30,0,30,0,1,,,,,,,,,,,,,,,,,,,,,,,,,,,,,,,,,,,,,,,,,,,,,,,,,,,,,,,,,,,,,,,,,,,,,,,,,,,,,,,,,
,,,,,,,,,,1582915,2020-10-22_14h46.09.729,swahili,2020.2.4,MacIntel,60,,,,,,,,,,0.499237061,0.5403125,1,0,0,1.610945,study_pile,31,0,31,0,1,BRIBE - RUSHWA,,,,,,,,,,,,,,,,,,,,,,,,,,,,,,,,,,,,,,,,,,,,,,,,,,,,,,,,,,,,,,,,,,,,,,,,,,,,,,,,
,,,,,,,,,,1582915,2020-10-22_14h46.09.729,swahili,2020.2.4,MacIntel,60,,,,,,,,,,-0.292156982,-0.02140625,1,0,0,0.67316,unsorted_card,32,0,32,0,1,,,,,,,,,,,,,,,,,,,,,,,,,,,,,,,,,,,,,,,,,,,,,,,,,,,,,,,,,,,,,,,,,,,,,,,,,,,,,,,,,
,,,,,,,,,,1582915,2020-10-22_14h46.09.729,swahili,2020.2.4,MacIntel,60,,,,,,,,,,0.448449707,0.528378906,1,0,0,2.121715,study_pile,33,0,33,0,1,ORPHAN - YATIMA,,,,,,,,,,,,,,,,,,,,,,,,,,,,,,,,,,,,,,,,,,,,,,,,,,,,,,,,,,,,,,,,,,,,,,,,,,,,,,,,
,,,,,,,,,,1582915,2020-10-22_14h46.09.729,swahili,2020.2.4,MacIntel,60,,,,,,,,,,-0.269293213,0.180205078,1,0,0,0.74413,unsorted_card,34,0,34,0,1,,,,,,,,,,,,,,,,,,,,,,,,,,,,,,,,,,,,,,,,,,,,,,,,,,,,,,,,,,,,,,,,,,,,,,,,,,,,,,,,,
,,,,,,,,,,1582915,2020-10-22_14h46.09.729,swahili,2020.2.4,MacIntel,60,,,,,,,,,,0.502630615,0.480390625,1,0,0,1.903075,study_pile,35,0,35,0,1,DIVORCE - TALAKA,,,,,,,,,,,,,,,,,,,,,,,,,,,,,,,,,,,,,,,,,,,,,,,,,,,,,,,,,,,,,,,,,,,,,,,,,,,,,,,,
,,,,,,,,,,1582915,2020-10-22_14h46.09.729,swahili,2020.2.4,MacIntel,60,,,,,,,,,,-0.065710449,0.026767578,1,0,0,0.86813,unsorted_card,36,0,36,0,1,,,,,,,,,,,,,,,,,,,,,,,,,,,,,,,,,,,,,,,,,,,,,,,,,,,,,,,,,,,,,,,,,,,,,,,,,,,,,,,,,
,,,,,,,,,,1582915,2020-10-22_14h46.09.729,swahili,2020.2.4,MacIntel,60,,,,,,,,,,0.457940674,0.464990234,1,0,0,1.509725,study_pile,37,0,37,0,1,BOAT - MASHUA,,,,,,,,,,,,,,,,,,,,,,,,,,,,,,,,,,,,,,,,,,,,,,,,,,,,,,,,,,,,,,,,,,,,,,,,,,,,,,,,
,,,,,,,,,,1582915,2020-10-22_14h46.09.729,swahili,2020.2.4,MacIntel,60,,,,,,,,,,-0.062188721,0.050517578,1,0,0,0.854595,unsorted_card,38,0,38,0,1,,,,,,,,,,,,,,,,,,,,,,,,,,,,,,,,,,,,,,,,,,,,,,,,,,,,,,,,,,,,,,,,,,,,,,,,,,,,,,,,,
,,,,,,,,,,1582915,2020-10-22_14h46.09.729,swahili,2020.2.4,MacIntel,60,,,,,,,,,,0.502911377,0.5259375,1,0,0,1.29398,study_pile,39,0,39,0,1,TREASURE - DAFINA,,,,,,,,,,,,,,,,,,,,,,,,,,,,,,,,,,,,,,,,,,,,,,,,,,,,,,,,,,,,,,,,,,,,,,,,,,,,,,,,
,,,,,,,,,,1582915,2020-10-22_14h46.09.729,swahili,2020.2.4,MacIntel,60,,,,,,,,,,,,,,,,,,,,,,BOAT - MASHUA,,,,,,,,return,5.781135,return,5.516165,0,0,0,0,1,,,,,,,,,,,,,,,,,,,,,,,,,,,,,,,,,,,,,,,,,,,,,,,,,,,,,,,,,,,,,,,,
,,,,,,,,,,1582915,2020-10-22_14h46.09.729,swahili,2020.2.4,MacIntel,60,,,,,,,,,,,,,,,,,,,,,,MERCHANT - TAJIRI,,,,,,,,,,return,5.04933,1,0,1,0,1,,,,,,,,,,,,,,,,,,,,,,,,,,,,,,,,,,,,,,,,,,,,,,,,,,,,,,,,,,,,,,,,
,,,,,,,,,,1582915,2020-10-22_14h46.09.729,swahili,2020.2.4,MacIntel,60,,,,,,,,,,,,,,,,,,,,,,DIVORCE - TALAKA,,,,,,,,,,return,1.804055,2,0,2,0,1,,,,,,,,,,,,,,,,,,,,,,,,,,,,,,,,,,,,,,,,,,,,,,,,,,,,,,,,,,,,,,,,
,,,,,,,,,,1582915,2020-10-22_14h46.09.729,swahili,2020.2.4,MacIntel,60,,,,,,,,,,,,,,,,,,,,,,GRAVE - KABURI,,,,,,,,,,return,2.62088,3,0,3,0,1,,,,,,,,,,,,,,,,,,,,,,,,,,,,,,,,,,,,,,,,,,,,,,,,,,,,,,,,,,,,,,,,
,,,,,,,,,,1582915,2020-10-22_14h46.09.729,swahili,2020.2.4,MacIntel,60,,,,,,,,,,,,,,,,,,,,,,PARROT - KASUKU,,,,,,,,,,return,2.905455,4,0,4,0,1,,,,,,,,,,,,,,,,,,,,,,,,,,,,,,,,,,,,,,,,,,,,,,,,,,,,,,,,,,,,,,,,
,,,,,,,,,,1582915,2020-10-22_14h46.09.729,swahili,2020.2.4,MacIntel,60,,,,,,,,,,,,,,,,,,,,,,CORN - NAFAKA,,,,,,,,,,return,2.240525,5,0,5,0,1,,,,,,,,,,,,,,,,,,,,,,,,,,,,,,,,,,,,,,,,,,,,,,,,,,,,,,,,,,,,,,,,
,,,,,,,,,,1582915,2020-10-22_14h46.09.729,swahili,2020.2.4,MacIntel,60,,,,,,,,,,,,,,,,,,,,,,BLAME - LAWAMA,,,,,,,,,,return,2.337725,6,0,6,0,1,,,,,,,,,,,,,,,,,,,,,,,,,,,,,,,,,,,,,,,,,,,,,,,,,,,,,,,,,,,,,,,,
,,,,,,,,,,1582915,2020-10-22_14h46.09.729,swahili,2020.2.4,MacIntel,60,,,,,,,,,,,,,,,,,,,,,,ORPHAN - YATIMA,,,,,,,,,,return,1.573145,7,0,7,0,1,,,,,,,,,,,,,,,,,,,,,,,,,,,,,,,,,,,,,,,,,,,,,,,,,,,,,,,,,,,,,,,,
,,,,,,,,,,1582915,2020-10-22_14h46.09.729,swahili,2020.2.4,MacIntel,60,,,,,,,,,,,,,,,,,,,,,,MANURE - SAMADI,,,,,,,,,,return,6.14693,8,0,8,0,1,,,,,,,,,,,,,,,,,,,,,,,,,,,,,,,,,,,,,,,,,,,,,,,,,,,,,,,,,,,,,,,,
,,,,,,,,,,1582915,2020-10-22_14h46.09.729,swahili,2020.2.4,MacIntel,60,,,,,,,,,,,,,,,,,,,,,,POEM - UTENZI,,,,,,,,,,return,2.322495,9,0,9,0,1,,,,,,,,,,,,,,,,,,,,,,,,,,,,,,,,,,,,,,,,,,,,,,,,,,,,,,,,,,,,,,,,
,,,,,,,,,,1582915,2020-10-22_14h46.09.729,swahili,2020.2.4,MacIntel,60,,,,,,,,,,,,,,,,,,,,,,AGENT - WAKILI,,,,,,,,,,return,2.076505,10,0,10,0,1,,,,,,,,,,,,,,,,,,,,,,,,,,,,,,,,,,,,,,,,,,,,,,,,,,,,,,,,,,,,,,,,
,,,,,,,,,,1582915,2020-10-22_14h46.09.729,swahili,2020.2.4,MacIntel,60,,,,,,,,,,,,,,,,,,,,,,YEAST - HAMIRA,,,,,,,,,,return,2.024255,11,0,11,0,1,,,,,,,,,,,,,,,,,,,,,,,,,,,,,,,,,,,,,,,,,,,,,,,,,,,,,,,,,,,,,,,,
,,,,,,,,,,1582915,2020-10-22_14h46.09.729,swahili,2020.2.4,MacIntel,60,,,,,,,,,,,,,,,,,,,,,,CHEESE - JIBINI,,,,,,,,,,return,1.83623,12,0,12,0,1,,,,,,,,,,,,,,,,,,,,,,,,,,,,,,,,,,,,,,,,,,,,,,,,,,,,,,,,,,,,,,,,
,,,,,,,,,,1582915,2020-10-22_14h46.09.729,swahili,2020.2.4,MacIntel,60,,,,,,,,,,,,,,,,,,,,,,TREASURE - DAFINA,,,,,,,,,,return,2.44178,13,0,13,0,1,,,,,,,,,,,,,,,,,,,,,,,,,,,,,,,,,,,,,,,,,,,,,,,,,,,,,,,,,,,,,,,,
,,,,,,,,,,1582915,2020-10-22_14h46.09.729,swahili,2020.2.4,MacIntel,60,,,,,,,,,,,,,,,,,,,,,,OATH - YAMINI,,,,,,,,,,return,2.22763,14,0,14,0,1,,,,,,,,,,,,,,,,,,,,,,,,,,,,,,,,,,,,,,,,,,,,,,,,,,,,,,,,,,,,,,,,
,,,,,,,,,,1582915,2020-10-22_14h46.09.729,swahili,2020.2.4,MacIntel,60,,,,,,,,,,,,,,,,,,,,,,BULL - FAHILI,,,,,,,,,,return,3.794075,15,0,15,0,1,,,,,,,,,,,,,,,,,,,,,,,,,,,,,,,,,,,,,,,,,,,,,,,,,,,,,,,,,,,,,,,,
,,,,,,,,,,1582915,2020-10-22_14h46.09.729,swahili,2020.2.4,MacIntel,60,,,,,,,,,,,,,,,,,,,,,,BRIBE - RUSHWA,,,,,,,,,,return,2.71071,16,0,16,0,1,,,,,,,,,,,,,,,,,,,,,,,,,,,,,,,,,,,,,,,,,,,,,,,,,,,,,,,,,,,,,,,,
,,,,,,,,,,1582915,2020-10-22_14h46.09.729,swahili,2020.2.4,MacIntel,60,,,,,,,,,,,,,,,,,,,,,,TAILOR - MSHONI,,,,,,,,,,return,2.601255,17,0,17,0,1,,,,,,,,,,,,,,,,,,,,,,,,,,,,,,,,,,,,,,,,,,,,,,,,,,,,,,,,,,,,,,,,
,,,,,,,,,,1582915,2020-10-22_14h46.09.729,swahili,2020.2.4,MacIntel,60,,,,,,,,,,,,,,,,,,,,,,GRAPES - ZABIBU,,,,,,,,,,return,1.35354,18,0,18,0,1,,,,,,,,,,,,,,,,,,,,,,,,,,,,,,,,,,,,,,,,,,,,,,,,,,,,,,,,,,,,,,,,
,,,,,,,,,,1582915,2020-10-22_14h46.09.729,swahili,2020.2.4,MacIntel,60,,,,,,,,,,,,,,,,,,,,,,PLATE - SAHANI,,,,,,,,,,return,2.002135,19,0,19,0,1,,,,,,,,,,,,,,,,,,,,,,,,,,,,,,,,,,,,,,,,,,,,,,,,,,,,,,,,,,,,,,,,
,,,,,,,,,,1582915,2020-10-22_14h46.09.729,swahili,2020.2.4,MacIntel,60,,,,,,,,,,,,,,,,,,,,,,,,,,,,,,,,,,,,,,,,0,0,0,0,1,,,,,,,,,,,,,,,,,,,,,,,,,,,,,,,,,,,,,,,,,,,,,,,,,,,,,,,,,,
,,,,,,,,,,1582915,2020-10-22_14h46.09.729,swahili,2020.2.4,MacIntel,60,,,,,,,,,,,,,,,,,,,,,,,,,,,,,,,,,,,,,,,,1,0,1,0,1,,,,,,,,,,,,,,,,,,,,,,,,,,,,,,,,,,,,,,,,,,,,,,,,,,,,,,,,,,
,,,,,,,,,,1582915,2020-10-22_14h46.09.729,swahili,2020.2.4,MacIntel,60,,,,,,,,,,,,,,,,,,,,,,,,,,,,,,,,,,,,,,,,,,,,,0,0,0,0,1,,,,,,,,,,,,,,,,,,,,,,,,,,,,,,,,,,,,,,,,,,,,,,,,,,,,,
,,,,,,,,,,1582915,2020-10-22_14h46.09.729,swahili,2020.2.4,MacIntel,60,,,,,,,,,,-0.451092529,0.039707031,1,0,0,1.86548,unsorted_card,0,0,0,0,1,,,,,,,,,,,,,,,,,,,,,,,,,,,,,,,,,,,,,,,,,,,,,,,,,,,,,,,,,,,,,,,,,,,,,,,,,,,,,,,,,
,,,,,,,,,,1582915,2020-10-22_14h46.09.729,swahili,2020.2.4,MacIntel,60,,,,,,,,,,0.433868408,-0.016953125,1,0,0,4.02474,test_pile,1,0,1,0,1,MERCHANT - TAJIRI,,,,,,,,,,,,,,,,,,,,,,,,,,,,,,,,,,,,,,,,,,,,,,,,,,,,,,,,,,,,,,,,,,,,,,,,,,,,,,,,
,,,,,,,,,,1582915,2020-10-22_14h46.09.729,swahili,2020.2.4,MacIntel,60,,,,,,,,,,-0.274859619,0.049746094,1,0,0,0.649615,unsorted_card,2,0,2,0,1,,,,,,,,,,,,,,,,,,,,,,,,,,,,,,,,,,,,,,,,,,,,,,,,,,,,,,,,,,,,,,,,,,,,,,,,,,,,,,,,,
,,,,,,,,,,1582915,2020-10-22_14h46.09.729,swahili,2020.2.4,MacIntel,60,,,,,,,,,,0.337597656,-0.034326172,1,0,0,2.066515,test_pile,3,0,3,0,1,PARROT - KASUKU,,,,,,,,,,,,,,,,,,,,,,,,,,,,,,,,,,,,,,,,,,,,,,,,,,,,,,,,,,,,,,,,,,,,,,,,,,,,,,,,
,,,,,,,,,,1582915,2020-10-22_14h46.09.729,swahili,2020.2.4,MacIntel,60,,,,,,,,,,-0.187225342,0.045175781,1,0,0,0.48403,unsorted_card,4,0,4,0,1,,,,,,,,,,,,,,,,,,,,,,,,,,,,,,,,,,,,,,,,,,,,,,,,,,,,,,,,,,,,,,,,,,,,,,,,,,,,,,,,,
,,,,,,,,,,1582915,2020-10-22_14h46.09.729,swahili,2020.2.4,MacIntel,60,,,,,,,,,,0.511700439,0.523115234,1,0,0,1.727545,study_pile,5,0,5,0,1,BULL - FAHILI,,,,,,,,,,,,,,,,,,,,,,,,,,,,,,,,,,,,,,,,,,,,,,,,,,,,,,,,,,,,,,,,,,,,,,,,,,,,,,,,
,,,,,,,,,,1582915,2020-10-22_14h46.09.729,swahili,2020.2.4,MacIntel,60,,,,,,,,,,-0.262188721,-0.041640625,1,0,0,1.687075,unsorted_card,6,0,6,0,1,,,,,,,,,,,,,,,,,,,,,,,,,,,,,,,,,,,,,,,,,,,,,,,,,,,,,,,,,,,,,,,,,,,,,,,,,,,,,,,,,
,,,,,,,,,,1582915,2020-10-22_14h46.09.729,swahili,2020.2.4,MacIntel,60,,,,,,,,,,0.406555176,0.392382813,1,0,0,2.08446,study_pile,7,0,7,0,1,PLATE - SAHANI,,,,,,,,,,,,,,,,,,,,,,,,,,,,,,,,,,,,,,,,,,,,,,,,,,,,,,,,,,,,,,,,,,,,,,,,,,,,,,,,
,,,,,,,,,,1582915,2020-10-22_14h46.09.729,swahili,2020.2.4,MacIntel,60,,,,,,,,,,-0.206866455,-0.082529297,1,0,0,0.50271,unsorted_card,8,0,8,0,1,,,,,,,,,,,,,,,,,,,,,,,,,,,,,,,,,,,,,,,,,,,,,,,,,,,,,,,,,,,,,,,,,,,,,,,,,,,,,,,,,
,,,,,,,,,,1582915,2020-10-22_14h46.09.729,swahili,2020.2.4,MacIntel,60,,,,,,,,,,0.375341797,-0.078261719,1,0,0,1.304305,test_pile,9,0,9,0,1,YEAST - HAMIRA,,,,,,,,,,,,,,,,,,,,,,,,,,,,,,,,,,,,,,,,,,,,,,,,,,,,,,,,,,,,,,,,,,,,,,,,,,,,,,,,
,,,,,,,,,,1582915,2020-10-22_14h46.09.729,swahili,2020.2.4,MacIntel,60,,,,,,,,,,-0.288256836,-0.046308594,1,0,0,0.555735,unsorted_card,10,0,10,0,1,,,,,,,,,,,,,,,,,,,,,,,,,,,,,,,,,,,,,,,,,,,,,,,,,,,,,,,,,,,,,,,,,,,,,,,,,,,,,,,,,
,,,,,,,,,,1582915,2020-10-22_14h46.09.729,swahili,2020.2.4,MacIntel,60,,,,,,,,,,0.461907959,0.414179688,1,0,0,2.89737,study_pile,11,0,11,0,1,BLAME - LAWAMA,,,,,,,,,,,,,,,,,,,,,,,,,,,,,,,,,,,,,,,,,,,,,,,,,,,,,,,,,,,,,,,,,,,,,,,,,,,,,,,,
,,,,,,,,,,1582915,2020-10-22_14h46.09.729,swahili,2020.2.4,MacIntel,60,,,,,,,,,,-0.284295654,-0.060292969,1,0,0,0.542115,unsorted_card,12,0,12,0,1,,,,,,,,,,,,,,,,,,,,,,,,,,,,,,,,,,,,,,,,,,,,,,,,,,,,,,,,,,,,,,,,,,,,,,,,,,,,,,,,,
,,,,,,,,,,1582915,2020-10-22_14h46.09.729,swahili,2020.2.4,MacIntel,60,,,,,,,,,,0.488372803,0.404785156,1,0,0,7.08132,study_pile,13,0,13,0,1,OATH - YAMINI,,,,,,,,,,,,,,,,,,,,,,,,,,,,,,,,,,,,,,,,,,,,,,,,,,,,,,,,,,,,,,,,,,,,,,,,,,,,,,,,
,,,,,,,,,,1582915,2020-10-22_14h46.09.729,swahili,2020.2.4,MacIntel,60,,,,,,,,,,-0.220574951,-0.003486328,1,0,0,0.49633,unsorted_card,14,0,14,0,1,,,,,,,,,,,,,,,,,,,,,,,,,,,,,,,,,,,,,,,,,,,,,,,,,,,,,,,,,,,,,,,,,,,,,,,,,,,,,,,,,
,,,,,,,,,,1582915,2020-10-22_14h46.09.729,swahili,2020.2.4,MacIntel,60,,,,,,,,,,0.421972656,0.379951172,1,0,0,1.76627,study_pile,15,0,15,0,1,CORN - NAFAKA,,,,,,,,,,,,,,,,,,,,,,,,,,,,,,,,,,,,,,,,,,,,,,,,,,,,,,,,,,,,,,,,,,,,,,,,,,,,,,,,
,,,,,,,,,,1582915,2020-10-22_14h46.09.729,swahili,2020.2.4,MacIntel,60,,,,,,,,,,-0.227984619,0.037763672,1,0,0,0.533135,unsorted_card,16,0,16,0,1,,,,,,,,,,,,,,,,,,,,,,,,,,,,,,,,,,,,,,,,,,,,,,,,,,,,,,,,,,,,,,,,,,,,,,,,,,,,,,,,,
,,,,,,,,,,1582915,2020-10-22_14h46.09.729,swahili,2020.2.4,MacIntel,60,,,,,,,,,,0.418310547,0.020595703,1,0,0,1.292445,test_pile,17,0,17,0,1,POEM - UTENZI,,,,,,,,,,,,,,,,,,,,,,,,,,,,,,,,,,,,,,,,,,,,,,,,,,,,,,,,,,,,,,,,,,,,,,,,,,,,,,,,
,,,,,,,,,,1582915,2020-10-22_14h46.09.729,swahili,2020.2.4,MacIntel,60,,,,,,,,,,-0.141424561,0.017617187,1,0,0,0.5662,unsorted_card,18,0,18,0,1,,,,,,,,,,,,,,,,,,,,,,,,,,,,,,,,,,,,,,,,,,,,,,,,,,,,,,,,,,,,,,,,,,,,,,,,,,,,,,,,,
,,,,,,,,,,1582915,2020-10-22_14h46.09.729,swahili,2020.2.4,MacIntel,60,,,,,,,,,,0.499438477,0.05796875,1,0,0,1.496775,test_pile,19,0,19,0,1,TAILOR - MSHONI,,,,,,,,,,,,,,,,,,,,,,,,,,,,,,,,,,,,,,,,,,,,,,,,,,,,,,,,,,,,,,,,,,,,,,,,,,,,,,,,
,,,,,,,,,,1582915,2020-10-22_14h46.09.729,swahili,2020.2.4,MacIntel,60,,,,,,,,,,-0.169720459,0.049501953,1,0,0,0.55698,unsorted_card,20,0,20,0,1,,,,,,,,,,,,,,,,,,,,,,,,,,,,,,,,,,,,,,,,,,,,,,,,,,,,,,,,,,,,,,,,,,,,,,,,,,,,,,,,,
,,,,,,,,,,1582915,2020-10-22_14h46.09.729,swahili,2020.2.4,MacIntel,60,,,,,,,,,,0.526580811,0.056689453,1,0,0,1.071805,test_pile,21,0,21,0,1,CHEESE - JIBINI,,,,,,,,,,,,,,,,,,,,,,,,,,,,,,,,,,,,,,,,,,,,,,,,,,,,,,,,,,,,,,,,,,,,,,,,,,,,,,,,
,,,,,,,,,,1582915,2020-10-22_14h46.09.729,swahili,2020.2.4,MacIntel,60,,,,,,,,,,-0.212628174,0.060664062,1,0,0,0.558825,unsorted_card,22,0,22,0,1,,,,,,,,,,,,,,,,,,,,,,,,,,,,,,,,,,,,,,,,,,,,,,,,,,,,,,,,,,,,,,,,,,,,,,,,,,,,,,,,,
,,,,,,,,,,1582915,2020-10-22_14h46.09.729,swahili,2020.2.4,MacIntel,60,,,,,,,,,,0.394915771,-0.075205078,1,0,0,0.998685,test_pile,23,0,23,0,1,GRAPES - ZABIBU,,,,,,,,,,,,,,,,,,,,,,,,,,,,,,,,,,,,,,,,,,,,,,,,,,,,,,,,,,,,,,,,,,,,,,,,,,,,,,,,
,,,,,,,,,,1582915,2020-10-22_14h46.09.729,swahili,2020.2.4,MacIntel,60,,,,,,,,,,-0.402337646,-0.027949219,1,0,0,0.518245,unsorted_card,24,0,24,0,1,,,,,,,,,,,,,,,,,,,,,,,,,,,,,,,,,,,,,,,,,,,,,,,,,,,,,,,,,,,,,,,,,,,,,,,,,,,,,,,,,
,,,,,,,,,,1582915,2020-10-22_14h46.09.729,swahili,2020.2.4,MacIntel,60,,,,,,,,,,0.376385498,-0.03453125,1,0,0,1.294365,test_pile,25,0,25,0,1,GRAVE - KABURI,,,,,,,,,,,,,,,,,,,,,,,,,,,,,,,,,,,,,,,,,,,,,,,,,,,,,,,,,,,,,,,,,,,,,,,,,,,,,,,,
,,,,,,,,,,1582915,2020-10-22_14h46.09.729,swahili,2020.2.4,MacIntel,60,,,,,,,,,,-0.166491699,-0.003652344,1,0,0,0.577415,unsorted_card,26,0,26,0,1,,,,,,,,,,,,,,,,,,,,,,,,,,,,,,,,,,,,,,,,,,,,,,,,,,,,,,,,,,,,,,,,,,,,,,,,,,,,,,,,,
,,,,,,,,,,1582915,2020-10-22_14h46.09.729,swahili,2020.2.4,MacIntel,60,,,,,,,,,,0.37064209,0.513105469,1,0,0,1.287575,study_pile,27,0,27,0,1,MANURE - SAMADI,,,,,,,,,,,,,,,,,,,,,,,,,,,,,,,,,,,,,,,,,,,,,,,,,,,,,,,,,,,,,,,,,,,,,,,,,,,,,,,,
,,,,,,,,,,1582915,2020-10-22_14h46.09.729,swahili,2020.2.4,MacIntel,60,,,,,,,,,,-0.214691162,0.066992187,1,0,0,0.50033,unsorted_card,28,0,28,0,1,,,,,,,,,,,,,,,,,,,,,,,,,,,,,,,,,,,,,,,,,,,,,,,,,,,,,,,,,,,,,,,,,,,,,,,,,,,,,,,,,
,,,,,,,,,,1582915,2020-10-22_14h46.09.729,swahili,2020.2.4,MacIntel,60,,,,,,,,,,0.44543457,0.397548828,1,0,0,1.343445,study_pile,29,0,29,0,1,AGENT - WAKILI,,,,,,,,,,,,,,,,,,,,,,,,,,,,,,,,,,,,,,,,,,,,,,,,,,,,,,,,,,,,,,,,,,,,,,,,,,,,,,,,
,,,,,,,,,,1582915,2020-10-22_14h46.09.729,swahili,2020.2.4,MacIntel,60,,,,,,,,,,-0.168249512,0.078369141,1,0,0,0.491465,unsorted_card,30,0,30,0,1,,,,,,,,,,,,,,,,,,,,,,,,,,,,,,,,,,,,,,,,,,,,,,,,,,,,,,,,,,,,,,,,,,,,,,,,,,,,,,,,,
,,,,,,,,,,1582915,2020-10-22_14h46.09.729,swahili,2020.2.4,MacIntel,60,,,,,,,,,,0.383624268,-0.053701172,1,0,0,1.54614,test_pile,31,0,31,0,1,BRIBE - RUSHWA,,,,,,,,,,,,,,,,,,,,,,,,,,,,,,,,,,,,,,,,,,,,,,,,,,,,,,,,,,,,,,,,,,,,,,,,,,,,,,,,
,,,,,,,,,,1582915,2020-10-22_14h46.09.729,swahili,2020.2.4,MacIntel,60,,,,,,,,,,-0.193737793,-0.004550781,1,0,0,0.54233,unsorted_card,32,0,32,0,1,,,,,,,,,,,,,,,,,,,,,,,,,,,,,,,,,,,,,,,,,,,,,,,,,,,,,,,,,,,,,,,,,,,,,,,,,,,,,,,,,
,,,,,,,,,,1582915,2020-10-22_14h46.09.729,swahili,2020.2.4,MacIntel,60,,,,,,,,,,0.395501709,0.064824219,1,0,0,1.54753,test_pile,33,0,33,0,1,ORPHAN - YATIMA,,,,,,,,,,,,,,,,,,,,,,,,,,,,,,,,,,,,,,,,,,,,,,,,,,,,,,,,,,,,,,,,,,,,,,,,,,,,,,,,
,,,,,,,,,,1582915,2020-10-22_14h46.09.729,swahili,2020.2.4,MacIntel,60,,,,,,,,,,-0.21708374,0.073271484,1,0,0,0.601815,unsorted_card,34,0,34,0,1,,,,,,,,,,,,,,,,,,,,,,,,,,,,,,,,,,,,,,,,,,,,,,,,,,,,,,,,,,,,,,,,,,,,,,,,,,,,,,,,,
,,,,,,,,,,1582915,2020-10-22_14h46.09.729,swahili,2020.2.4,MacIntel,60,,,,,,,,,,0.334210205,-0.015673828,1,0,0,1.02441,test_pile,35,0,35,0,1,DIVORCE - TALAKA,,,,,,,,,,,,,,,,,,,,,,,,,,,,,,,,,,,,,,,,,,,,,,,,,,,,,,,,,,,,,,,,,,,,,,,,,,,,,,,,
,,,,,,,,,,1582915,2020-10-22_14h46.09.729,swahili,2020.2.4,MacIntel,60,,,,,,,,,,-0.158673096,0.008613281,1,0,0,0.598335,unsorted_card,36,0,36,0,1,,,,,,,,,,,,,,,,,,,,,,,,,,,,,,,,,,,,,,,,,,,,,,,,,,,,,,,,,,,,,,,,,,,,,,,,,,,,,,,,,
,,,,,,,,,,1582915,2020-10-22_14h46.09.729,swahili,2020.2.4,MacIntel,60,,,,,,,,,,0.495379639,0.530234375,1,0,0,1.68177,study_pile,37,0,37,0,1,BOAT - MASHUA,,,,,,,,,,,,,,,,,,,,,,,,,,,,,,,,,,,,,,,,,,,,,,,,,,,,,,,,,,,,,,,,,,,,,,,,,,,,,,,,
,,,,,,,,,,1582915,2020-10-22_14h46.09.729,swahili,2020.2.4,MacIntel,60,,,,,,,,,,-0.328759766,-0.039677734,1,0,0,0.51365,unsorted_card,38,0,38,0,1,,,,,,,,,,,,,,,,,,,,,,,,,,,,,,,,,,,,,,,,,,,,,,,,,,,,,,,,,,,,,,,,,,,,,,,,,,,,,,,,,
,,,,,,,,,,1582915,2020-10-22_14h46.09.729,swahili,2020.2.4,MacIntel,60,,,,,,,,,,0.427618408,0.428457031,1,0,0,1.45744,study_pile,39,0,39,0,1,TREASURE - DAFINA,,,,,,,,,,,,,,,,,,,,,,,,,,,,,,,,,,,,,,,,,,,,,,,,,,,,,,,,,,,,,,,,,,,,,,,,,,,,,,,,
,,,,,,,,,,1582915,2020-10-22_14h46.09.729,swahili,2020.2.4,MacIntel,60,,,,,,,,,,,,,,,,,,,,,,,0.272979736,-0.024970703,1,0,0,4.970795,test_first,,,,,0,0,0,0,1,,,,,,,,,,,,,,,,,,,,,,,,,,,,,,,,,,,,,,,,,,,,,,,,,,,,,,,,,,,,,,,,
,,,,,,,,,,1582915,2020-10-22_14h46.09.729,swahili,2020.2.4,MacIntel,60,,,,,,,,,,,,,,,,,,,,,,,,,,,,,,,,,,,,,,,return,,,,,,,,,,,4.43863,2.66056,0.349279785,-0.011318359,1,0,0,1.817615,yes,POEM,UTENZI,incorrect,0,0,0,0,1,,,,,,,,,,,,,,,,,,,,,,,,,,,,,,,,,,,,
,,,,,,,,,,1582915,2020-10-22_14h46.09.729,swahili,2020.2.4,MacIntel,60,,,,,,,,,,,,,,,,,,,,,,,,,,,,,,,,,,,,,,,,,,,,,,,,,,,3.01374,0.342370605,-0.107333984,1,0,0,0.7702,yes,PARROT,KASUKU,incorrect,1,0,1,0,1,,,,,,,,,,,,,,,,,,,,,,,,,,,,,,,,,,,,
,,,,,,,,,,1582915,2020-10-22_14h46.09.729,swahili,2020.2.4,MacIntel,60,,,,,,,,,,,,,,,,,,,,,,,,,,,,,,,,,,,,,,,,,,,,,,,,,,,2.58199,0.461932373,-0.021572266,1,0,0,1.371355,yes,TAILOR,MSHONI,incorrect,2,0,2,0,1,,,,,,,,,,,,,,,,,,,,,,,,,,,,,,,,,,,,
,,,,,,,,,,1582915,2020-10-22_14h46.09.729,swahili,2020.2.4,MacIntel,60,,,,,,,,,,,,,,,,,,,,,,,,,,,,,,,,,,,,,,,,,,,,,,,,,,,5.284535,0.382165527,-0.132695312,1,0,0,0.610335,yes,DIVORCE,TAKALA,incorrect,3,0,3,0,1,,,,,,,,,,,,,,,,,,,,,,,,,,,,,,,,,,,,
,,,,,,,,,,1582915,2020-10-22_14h46.09.729,swahili,2020.2.4,MacIntel,60,,,,,,,,,,,,,,,,,,,,,,,,,,,,,,,,,,,,,,,,,,,,,,,,,,,2.70078,0.382165527,-0.132695312,1,0,0,0.712295,yes,ORPHAN,YATIMA,incorrect,4,0,4,0,1,,,,,,,,,,,,,,,,,,,,,,,,,,,,,,,,,,,,
,,,,,,,,,,1582915,2020-10-22_14h46.09.729,swahili,2020.2.4,MacIntel,60,,,,,,,,,,,,,,,,,,,,,,,,,,,,,,,,,,,,,,,,,,,,,,,,,,,3.08719,0.382165527,-0.132695312,1,0,0,0.668045,yes,BRIBE,RUSHWA,incorrect,5,0,5,0,1,,,,,,,,,,,,,,,,,,,,,,,,,,,,,,,,,,,,
,,,,,,,,,,1582915,2020-10-22_14h46.09.729,swahili,2020.2.4,MacIntel,60,,,,,,,,,,,,,,,,,,,,,,,,,,,,,,,,,,,,,,,,,,,,,,,,,,,3.90025,0.382165527,-0.132695312,1,0,0,0.63177,yes,GRAVE,BARUBI,incorrect,6,0,6,0,1,,,,,,,,,,,,,,,,,,,,,,,,,,,,,,,,,,,,
,,,,,,,,,,1582915,2020-10-22_14h46.09.729,swahili,2020.2.4,MacIntel,60,,,,,,,,,,,,,,,,,,,,,,,,,,,,,,,,,,,,,,,,,,,,,,,,,,,3.145955,0.379553223,0.0059375,1,0,0,0.630875,yes,YEAST,HAMIRA,incorrect,7,0,7,0,1,,,,,,,,,,,,,,,,,,,,,,,,,,,,,,,,,,,,
,,,,,,,,,,1582915,2020-10-22_14h46.09.729,swahili,2020.2.4,MacIntel,60,,,,,,,,,,,,,,,,,,,,,,,,,,,,,,,,,,,,,,,,,,,,,,,,,,,2.883015,0.379553223,0.0059375,1,0,0,0.52152,yes,CHEESE,JIBINI,incorrect,8,0,8,0,1,,,,,,,,,,,,,,,,,,,,,,,,,,,,,,,,,,,,
,,,,,,,,,,1582915,2020-10-22_14h46.09.729,swahili,2020.2.4,MacIntel,60,,,,,,,,,,,,,,,,,,,,,,,,,,,,,,,,,,,,,,,,,,,,,,,,,,,3.896055,0.379553223,0.0059375,1,0,0,0.582055,yes,GRAPES,ZABUBI,incorrect,9,0,9,0,1,,,,,,,,,,,,,,,,,,,,,,,,,,,,,,,,,,,,
,,,,,,,,,,1582915,2020-10-22_14h46.09.729,swahili,2020.2.4,MacIntel,60,,,,,,,,,,,,,,,,,,,,,,,,,,,,,,,,,,,,,,,,,,,,,,,,,,,16.28553,0.379553223,0.0059375,1,0,0,0.804895,yes,MERCHANT,M,incorrect,10,0,10,0,1,,,,,,,,,,,,,,,,,,,,,,,,,,,,,,,,,,,,
,,,,,,,,,,1582915,2020-10-22_14h46.09.729,swahili,2020.2.4,MacIntel,60,,,,,,,,,,,,,,,,,,,,,,,,,,,,,,,,,,,,,,,,0,0,0,0,1,,,,,,,,,,,,,,,,,,,,,,,,,,,,,,,,,,,,,,,,,,,,,,,,,,,,,,,,,,
,,,,,,,,,,1582915,2020-10-22_14h46.09.729,swahili,2020.2.4,MacIntel,60,,,,,,,,,,,,,,,,,,,,,,AGENT - WAKILI,,,,,,,,return,5.96887,return,2.719735,0,0,0,0,1,,,,,,,,,,,,,,,,,,,,,,,,,,,,,,,,,,,,,,,,,,,,,,,,,,,,,,,,,,,,,,,,
,,,,,,,,,,1582915,2020-10-22_14h46.09.729,swahili,2020.2.4,MacIntel,60,,,,,,,,,,,,,,,,,,,,,,PLATE - SAHANI,,,,,,,,,,return,5.06297,1,0,1,0,1,,,,,,,,,,,,,,,,,,,,,,,,,,,,,,,,,,,,,,,,,,,,,,,,,,,,,,,,,,,,,,,,
,,,,,,,,,,1582915,2020-10-22_14h46.09.729,swahili,2020.2.4,MacIntel,60,,,,,,,,,,,,,,,,,,,,,,BLAME - LAWAMA,,,,,,,,,,return,7.541805,2,0,2,0,1,,,,,,,,,,,,,,,,,,,,,,,,,,,,,,,,,,,,,,,,,,,,,,,,,,,,,,,,,,,,,,,,
,,,,,,,,,,1582915,2020-10-22_14h46.09.729,swahili,2020.2.4,MacIntel,60,,,,,,,,,,,,,,,,,,,,,,OATH - YAMINI,,,,,,,,,,return,2.62633,3,0,3,0,1,,,,,,,,,,,,,,,,,,,,,,,,,,,,,,,,,,,,,,,,,,,,,,,,,,,,,,,,,,,,,,,,
,,,,,,,,,,1582915,2020-10-22_14h46.09.729,swahili,2020.2.4,MacIntel,60,,,,,,,,,,,,,,,,,,,,,,CORN - NAFAKA,,,,,,,,,,return,2.55312,4,0,4,0,1,,,,,,,,,,,,,,,,,,,,,,,,,,,,,,,,,,,,,,,,,,,,,,,,,,,,,,,,,,,,,,,,
,,,,,,,,,,1582915,2020-10-22_14h46.09.729,swahili,2020.2.4,MacIntel,60,,,,,,,,,,,,,,,,,,,,,,BULL - FAHILI,,,,,,,,,,return,2.40755,5,0,5,0,1,,,,,,,,,,,,,,,,,,,,,,,,,,,,,,,,,,,,,,,,,,,,,,,,,,,,,,,,,,,,,,,,
,,,,,,,,,,1582915,2020-10-22_14h46.09.729,swahili,2020.2.4,MacIntel,60,,,,,,,,,,,,,,,,,,,,,,BOAT - MASHUA,,,,,,,,,,return,1.48992,6,0,6,0,1,,,,,,,,,,,,,,,,,,,,,,,,,,,,,,,,,,,,,,,,,,,,,,,,,,,,,,,,,,,,,,,,
,,,,,,,,,,1582915,2020-10-22_14h46.09.729,swahili,2020.2.4,MacIntel,60,,,,,,,,,,,,,,,,,,,,,,MANURE - SAMADI,,,,,,,,,,return,2.45126,7,0,7,0,1,,,,,,,,,,,,,,,,,,,,,,,,,,,,,,,,,,,,,,,,,,,,,,,,,,,,,,,,,,,,,,,,
,,,,,,,,,,1582915,2020-10-22_14h46.09.729,swahili,2020.2.4,MacIntel,60,,,,,,,,,,,,,,,,,,,,,,TREASURE - DAFINA,,,,,,,,,,return,1.90165,8,0,8,0,1,,,,,,,,,,,,,,,,,,,,,,,,,,,,,,,,,,,,,,,,,,,,,,,,,,,,,,,,,,,,,,,,
,,,,,,,,,,1582915,2020-10-22_14h46.09.729,swahili,2020.2.4,MacIntel,60,,,,,,,,,,,,,,,,,,,,,,,,,,,,,,,,,,,,,,,,1,0,1,0,1,,,,,,,,,,,,,,,,,,,,,,,,,,,,,,,,,,,,,,,,,,,,,,,,,,,,,,,,,,
,,,,,,,,,,1582915,2020-10-22_14h46.09.729,swahili,2020.2.4,MacIntel,60,,,,,,,,,,,,,,,,,,,,,,,,,,,,,,,,,,,,,,,,,,,,,1,0,1,0,1,,,,,,,,,,,,,,,,,,,,,,,,,,,,,,,,,,,,,,,,,,,,,,,,,,,,,
,,,,,,,,,,1582915,2020-10-22_14h46.09.729,swahili,2020.2.4,MacIntel,60,,,,,,,,,,-0.139904785,-0.090654297,1,0,0,1.335995,unsorted_card,0,0,0,0,1,,,,,,,,,,,,,,,,,,,,,,,,,,,,,,,,,,,,,,,,,,,,,,,,,,,,,,,,,,,,,,,,,,,,,,,,,,,,,,,,,
,,,,,,,,,,1582915,2020-10-22_14h46.09.729,swahili,2020.2.4,MacIntel,60,,,,,,,,,,0.365179443,-0.075830078,1,0,0,1.71303,test_pile,1,0,1,0,1,MERCHANT - TAJIRI,,,,,,,,,,,,,,,,,,,,,,,,,,,,,,,,,,,,,,,,,,,,,,,,,,,,,,,,,,,,,,,,,,,,,,,,,,,,,,,,
,,,,,,,,,,1582915,2020-10-22_14h46.09.729,swahili,2020.2.4,MacIntel,60,,,,,,,,,,-0.22833252,-0.097578125,1,0,0,0.789385,unsorted_card,2,0,2,0,1,,,,,,,,,,,,,,,,,,,,,,,,,,,,,,,,,,,,,,,,,,,,,,,,,,,,,,,,,,,,,,,,,,,,,,,,,,,,,,,,,
,,,,,,,,,,1582915,2020-10-22_14h46.09.729,swahili,2020.2.4,MacIntel,60,,,,,,,,,,0.457043457,0.060361328,1,0,0,2.382135,test_pile,3,0,3,0,1,PARROT - KASUKU,,,,,,,,,,,,,,,,,,,,,,,,,,,,,,,,,,,,,,,,,,,,,,,,,,,,,,,,,,,,,,,,,,,,,,,,,,,,,,,,
,,,,,,,,,,1582915,2020-10-22_14h46.09.729,swahili,2020.2.4,MacIntel,60,,,,,,,,,,-0.240185547,-0.032783203,1,0,0,0.6171,unsorted_card,4,0,4,0,1,,,,,,,,,,,,,,,,,,,,,,,,,,,,,,,,,,,,,,,,,,,,,,,,,,,,,,,,,,,,,,,,,,,,,,,,,,,,,,,,,
,,,,,,,,,,1582915,2020-10-22_14h46.09.729,swahili,2020.2.4,MacIntel,60,,,,,,,,,,0.405975342,-0.041279297,1,0,0,3.635395,test_pile,5,0,5,0,1,BULL - FAHILI,,,,,,,,,,,,,,,,,,,,,,,,,,,,,,,,,,,,,,,,,,,,,,,,,,,,,,,,,,,,,,,,,,,,,,,,,,,,,,,,
,,,,,,,,,,1582915,2020-10-22_14h46.09.729,swahili,2020.2.4,MacIntel,60,,,,,,,,,,-0.204772949,-0.104746094,1,0,0,0.691775,unsorted_card,6,0,6,0,1,,,,,,,,,,,,,,,,,,,,,,,,,,,,,,,,,,,,,,,,,,,,,,,,,,,,,,,,,,,,,,,,,,,,,,,,,,,,,,,,,
,,,,,,,,,,1582915,2020-10-22_14h46.09.729,swahili,2020.2.4,MacIntel,60,,,,,,,,,,0.389233398,-0.071943359,1,0,0,1.91461,test_pile,7,0,7,0,1,PLATE - SAHANI,,,,,,,,,,,,,,,,,,,,,,,,,,,,,,,,,,,,,,,,,,,,,,,,,,,,,,,,,,,,,,,,,,,,,,,,,,,,,,,,
,,,,,,,,,,1582915,2020-10-22_14h46.09.729,swahili,2020.2.4,MacIntel,60,,,,,,,,,,-0.242382812,-0.061835938,1,0,0,0.59733,unsorted_card,8,0,8,0,1,,,,,,,,,,,,,,,,,,,,,,,,,,,,,,,,,,,,,,,,,,,,,,,,,,,,,,,,,,,,,,,,,,,,,,,,,,,,,,,,,
,,,,,,,,,,1582915,2020-10-22_14h46.09.729,swahili,2020.2.4,MacIntel,60,,,,,,,,,,0.458105469,-0.029365234,1,0,0,1.673005,test_pile,9,0,9,0,1,YEAST - HAMIRA,,,,,,,,,,,,,,,,,,,,,,,,,,,,,,,,,,,,,,,,,,,,,,,,,,,,,,,,,,,,,,,,,,,,,,,,,,,,,,,,
,,,,,,,,,,1582915,2020-10-22_14h46.09.729,swahili,2020.2.4,MacIntel,60,,,,,,,,,,-0.151483154,-0.021240234,1,0,0,0.614285,unsorted_card,10,0,10,0,1,,,,,,,,,,,,,,,,,,,,,,,,,,,,,,,,,,,,,,,,,,,,,,,,,,,,,,,,,,,,,,,,,,,,,,,,,,,,,,,,,
,,,,,,,,,,1582915,2020-10-22_14h46.09.729,swahili,2020.2.4,MacIntel,60,,,,,,,,,,0.393585205,-0.009208984,1,0,0,1.677395,test_pile,11,0,11,0,1,BLAME - LAWAMA,,,,,,,,,,,,,,,,,,,,,,,,,,,,,,,,,,,,,,,,,,,,,,,,,,,,,,,,,,,,,,,,,,,,,,,,,,,,,,,,
,,,,,,,,,,1582915,2020-10-22_14h46.09.729,swahili,2020.2.4,MacIntel,60,,,,,,,,,,-0.189086914,-0.023964844,1,0,0,0.615975,unsorted_card,12,0,12,0,1,,,,,,,,,,,,,,,,,,,,,,,,,,,,,,,,,,,,,,,,,,,,,,,,,,,,,,,,,,,,,,,,,,,,,,,,,,,,,,,,,
,,,,,,,,,,1582915,2020-10-22_14h46.09.729,swahili,2020.2.4,MacIntel,60,,,,,,,,,,0.389782715,-0.046171875,1,0,0,1.61324,test_pile,13,0,13,0,1,OATH - YAMINI,,,,,,,,,,,,,,,,,,,,,,,,,,,,,,,,,,,,,,,,,,,,,,,,,,,,,,,,,,,,,,,,,,,,,,,,,,,,,,,,
,,,,,,,,,,1582915,2020-10-22_14h46.09.729,swahili,2020.2.4,MacIntel,60,,,,,,,,,,-0.153857422,-0.102392578,1,0,0,0.576395,unsorted_card,14,0,14,0,1,,,,,,,,,,,,,,,,,,,,,,,,,,,,,,,,,,,,,,,,,,,,,,,,,,,,,,,,,,,,,,,,,,,,,,,,,,,,,,,,,
,,,,,,,,,,1582915,2020-10-22_14h46.09.729,swahili,2020.2.4,MacIntel,60,,,,,,,,,,0.397998047,-0.023330078,1,0,0,2.13974,test_pile,15,0,15,0,1,CORN - NAFAKA,,,,,,,,,,,,,,,,,,,,,,,,,,,,,,,,,,,,,,,,,,,,,,,,,,,,,,,,,,,,,,,,,,,,,,,,,,,,,,,,
,,,,,,,,,,1582915,2020-10-22_14h46.09.729,swahili,2020.2.4,MacIntel,60,,,,,,,,,,-0.156658936,-0.076396484,1,0,0,0.549125,unsorted_card,16,0,16,0,1,,,,,,,,,,,,,,,,,,,,,,,,,,,,,,,,,,,,,,,,,,,,,,,,,,,,,,,,,,,,,,,,,,,,,,,,,,,,,,,,,
,,,,,,,,,,1582915,2020-10-22_14h46.09.729,swahili,2020.2.4,MacIntel,60,,,,,,,,,,0.464251709,-0.005166016,1,0,0,1.333165,test_pile,17,0,17,0,1,POEM - UTENZI,,,,,,,,,,,,,,,,,,,,,,,,,,,,,,,,,,,,,,,,,,,,,,,,,,,,,,,,,,,,,,,,,,,,,,,,,,,,,,,,
,,,,,,,,,,1582915,2020-10-22_14h46.09.729,swahili,2020.2.4,MacIntel,60,,,,,,,,,,-0.23772583,-0.072148437,1,0,0,0.79973,unsorted_card,18,0,18,0,1,,,,,,,,,,,,,,,,,,,,,,,,,,,,,,,,,,,,,,,,,,,,,,,,,,,,,,,,,,,,,,,,,,,,,,,,,,,,,,,,,
,,,,,,,,,,1582915,2020-10-22_14h46.09.729,swahili,2020.2.4,MacIntel,60,,,,,,,,,,0.425994873,-0.045712891,1,0,0,1.66881,test_pile,19,0,19,0,1,TAILOR - MSHONI,,,,,,,,,,,,,,,,,,,,,,,,,,,,,,,,,,,,,,,,,,,,,,,,,,,,,,,,,,,,,,,,,,,,,,,,,,,,,,,,
,,,,,,,,,,1582915,2020-10-22_14h46.09.729,swahili,2020.2.4,MacIntel,60,,,,,,,,,,-0.22208252,-0.069023438,1,0,0,0.729385,unsorted_card,20,0,20,0,1,,,,,,,,,,,,,,,,,,,,,,,,,,,,,,,,,,,,,,,,,,,,,,,,,,,,,,,,,,,,,,,,,,,,,,,,,,,,,,,,,
,,,,,,,,,,1582915,2020-10-22_14h46.09.729,swahili,2020.2.4,MacIntel,60,,,,,,,,,,0.358764648,-0.062998047,1,0,0,1.233865,test_pile,21,0,21,0,1,CHEESE - JIBINI,,,,,,,,,,,,,,,,,,,,,,,,,,,,,,,,,,,,,,,,,,,,,,,,,,,,,,,,,,,,,,,,,,,,,,,,,,,,,,,,
,,,,,,,,,,1582915,2020-10-22_14h46.09.729,swahili,2020.2.4,MacIntel,60,,,,,,,,,,-0.251794434,-0.061943359,1,0,0,0.675155,unsorted_card,22,0,22,0,1,,,,,,,,,,,,,,,,,,,,,,,,,,,,,,,,,,,,,,,,,,,,,,,,,,,,,,,,,,,,,,,,,,,,,,,,,,,,,,,,,
,,,,,,,,,,1582915,2020-10-22_14h46.09.729,swahili,2020.2.4,MacIntel,60,,,,,,,,,,0.371002197,-0.010234375,1,0,0,2.340005,test_pile,23,0,23,0,1,GRAPES - ZABIBU,,,,,,,,,,,,,,,,,,,,,,,,,,,,,,,,,,,,,,,,,,,,,,,,,,,,,,,,,,,,,,,,,,,,,,,,,,,,,,,,
,,,,,,,,,,1582915,2020-10-22_14h46.09.729,swahili,2020.2.4,MacIntel,60,,,,,,,,,,-0.127307129,0.031005859,1,0,0,0.88183,unsorted_card,24,0,24,0,1,,,,,,,,,,,,,,,,,,,,,,,,,,,,,,,,,,,,,,,,,,,,,,,,,,,,,,,,,,,,,,,,,,,,,,,,,,,,,,,,,
,,,,,,,,,,1582915,2020-10-22_14h46.09.729,swahili,2020.2.4,MacIntel,60,,,,,,,,,,0.437182617,0.04375,1,0,0,2.369685,test_pile,25,0,25,0,1,GRAVE - KABURI,,,,,,,,,,,,,,,,,,,,,,,,,,,,,,,,,,,,,,,,,,,,,,,,,,,,,,,,,,,,,,,,,,,,,,,,,,,,,,,,
,,,,,,,,,,1582915,2020-10-22_14h46.09.729,swahili,2020.2.4,MacIntel,60,,,,,,,,,,-0.084716797,-0.045849609,1,0,0,0.789815,unsorted_card,26,0,26,0,1,,,,,,,,,,,,,,,,,,,,,,,,,,,,,,,,,,,,,,,,,,,,,,,,,,,,,,,,,,,,,,,,,,,,,,,,,,,,,,,,,
,,,,,,,,,,1582915,2020-10-22_14h46.09.729,swahili,2020.2.4,MacIntel,60,,,,,,,,,,0.399261475,0.015722656,1,0,0,4.49706,test_pile,27,0,27,0,1,MANURE - SAMADI,,,,,,,,,,,,,,,,,,,,,,,,,,,,,,,,,,,,,,,,,,,,,,,,,,,,,,,,,,,,,,,,,,,,,,,,,,,,,,,,
,,,,,,,,,,1582915,2020-10-22_14h46.09.729,swahili,2020.2.4,MacIntel,60,,,,,,,,,,-0.37387085,-0.043408203,1,0,0,1.0013,unsorted_card,28,0,28,0,1,,,,,,,,,,,,,,,,,,,,,,,,,,,,,,,,,,,,,,,,,,,,,,,,,,,,,,,,,,,,,,,,,,,,,,,,,,,,,,,,,
,,,,,,,,,,1582915,2020-10-22_14h46.09.729,swahili,2020.2.4,MacIntel,60,,,,,,,,,,0.37543335,-0.022587891,1,0,0,1.50174,test_pile,29,0,29,0,1,AGENT - WAKILI,,,,,,,,,,,,,,,,,,,,,,,,,,,,,,,,,,,,,,,,,,,,,,,,,,,,,,,,,,,,,,,,,,,,,,,,,,,,,,,,
,,,,,,,,,,1582915,2020-10-22_14h46.09.729,swahili,2020.2.4,MacIntel,60,,,,,,,,,,-0.184210205,-0.166103516,1,0,0,0.894805,unsorted_card,30,0,30,0,1,,,,,,,,,,,,,,,,,,,,,,,,,,,,,,,,,,,,,,,,,,,,,,,,,,,,,,,,,,,,,,,,,,,,,,,,,,,,,,,,,
,,,,,,,,,,1582915,2020-10-22_14h46.09.729,swahili,2020.2.4,MacIntel,60,,,,,,,,,,0.399230957,-0.027714844,1,0,0,2.029205,test_pile,31,0,31,0,1,BRIBE - RUSHWA,,,,,,,,,,,,,,,,,,,,,,,,,,,,,,,,,,,,,,,,,,,,,,,,,,,,,,,,,,,,,,,,,,,,,,,,,,,,,,,,
,,,,,,,,,,1582915,2020-10-22_14h46.09.729,swahili,2020.2.4,MacIntel,60,,,,,,,,,,-0.161096191,-0.053427734,1,0,0,0.88264,unsorted_card,32,0,32,0,1,,,,,,,,,,,,,,,,,,,,,,,,,,,,,,,,,,,,,,,,,,,,,,,,,,,,,,,,,,,,,,,,,,,,,,,,,,,,,,,,,
,,,,,,,,,,1582915,2020-10-22_14h46.09.729,swahili,2020.2.4,MacIntel,60,,,,,,,,,,0.394927979,-0.004775391,1,0,0,1.273415,test_pile,33,0,33,0,1,ORPHAN - YATIMA,,,,,,,,,,,,,,,,,,,,,,,,,,,,,,,,,,,,,,,,,,,,,,,,,,,,,,,,,,,,,,,,,,,,,,,,,,,,,,,,
,,,,,,,,,,1582915,2020-10-22_14h46.09.729,swahili,2020.2.4,MacIntel,60,,,,,,,,,,-0.284033203,-0.083466797,1,0,0,0.64609,unsorted_card,34,0,34,0,1,,,,,,,,,,,,,,,,,,,,,,,,,,,,,,,,,,,,,,,,,,,,,,,,,,,,,,,,,,,,,,,,,,,,,,,,,,,,,,,,,
,,,,,,,,,,1582915,2020-10-22_14h46.09.729,swahili,2020.2.4,MacIntel,60,,,,,,,,,,0.362127686,-0.021044922,1,0,0,1.418375,test_pile,35,0,35,0,1,DIVORCE - TALAKA,,,,,,,,,,,,,,,,,,,,,,,,,,,,,,,,,,,,,,,,,,,,,,,,,,,,,,,,,,,,,,,,,,,,,,,,,,,,,,,,
,,,,,,,,,,1582915,2020-10-22_14h46.09.729,swahili,2020.2.4,MacIntel,60,,,,,,,,,,-0.24206543,0.001962891,1,0,0,0.491475,unsorted_card,36,0,36,0,1,,,,,,,,,,,,,,,,,,,,,,,,,,,,,,,,,,,,,,,,,,,,,,,,,,,,,,,,,,,,,,,,,,,,,,,,,,,,,,,,,
,,,,,,,,,,1582915,2020-10-22_14h46.09.729,swahili,2020.2.4,MacIntel,60,,,,,,,,,,0.364013672,0.000820312,1,0,0,4.172,test_pile,37,0,37,0,1,BOAT - MASHUA,,,,,,,,,,,,,,,,,,,,,,,,,,,,,,,,,,,,,,,,,,,,,,,,,,,,,,,,,,,,,,,,,,,,,,,,,,,,,,,,
,,,,,,,,,,1582915,2020-10-22_14h46.09.729,swahili,2020.2.4,MacIntel,60,,,,,,,,,,-0.098962402,-0.107050781,1,0,0,0.582535,unsorted_card,38,0,38,0,1,,,,,,,,,,,,,,,,,,,,,,,,,,,,,,,,,,,,,,,,,,,,,,,,,,,,,,,,,,,,,,,,,,,,,,,,,,,,,,,,,
,,,,,,,,,,1582915,2020-10-22_14h46.09.729,swahili,2020.2.4,MacIntel,60,,,,,,,,,,0.421948242,0.047949219,1,0,0,1.36569,test_pile,39,0,39,0,1,TREASURE - DAFINA,,,,,,,,,,,,,,,,,,,,,,,,,,,,,,,,,,,,,,,,,,,,,,,,,,,,,,,,,,,,,,,,,,,,,,,,,,,,,,,,
,,,,,,,,,,1582915,2020-10-22_14h46.09.729,swahili,2020.2.4,MacIntel,60,,,,,,,,,,,,,,,,,,,,,,,,,,,,,,,,,,0,0,0,0,1,,,,,,,,,,,,,,,,,,,,,,,,,,,,,,,,,,,,,,,,,,,,,,,,,,,,,,,,,,,,,,,,
,,,,,,,,,,1582915,2020-10-22_14h46.09.729,swahili,2020.2.4,MacIntel,60,,,,,,,,,,,,,,,,,,,,,,,,,,,,,,,,,,,,,,,return,,,,,,,,,,,2.32317,4.398975,0.440563965,-0.025947266,1,0,0,0.940975,yes,PLATE,SAHANI,incorrect,0,0,0,0,1,,,,,,,,,,,,,,,,,,,,,,,,,,,,,,,,,,,,
,,,,,,,,,,1582915,2020-10-22_14h46.09.729,swahili,2020.2.4,MacIntel,60,,,,,,,,,,,,,,,,,,,,,,,,,,,,,,,,,,,,,,,,,,,,,,,,,,,2.08443,0.440563965,-0.025947266,1,0,0,0.613935,yes,YEAST,HAMIRA,incorrect,1,0,1,0,1,,,,,,,,,,,,,,,,,,,,,,,,,,,,,,,,,,,,
,,,,,,,,,,1582915,2020-10-22_14h46.09.729,swahili,2020.2.4,MacIntel,60,,,,,,,,,,,,,,,,,,,,,,,,,,,,,,,,,,,,,,,,,,,,,,,,,,,5.916955,0.440563965,-0.025947266,1,0,0,0.604345,yes,GRAPES,ZABIBU,incorrect,2,0,2,0,1,,,,,,,,,,,,,,,,,,,,,,,,,,,,,,,,,,,,
,,,,,,,,,,1582915,2020-10-22_14h46.09.729,swahili,2020.2.4,MacIntel,60,,,,,,,,,,,,,,,,,,,,,,,,,,,,,,,,,,,,,,,,,,,,,,,,,,,3.650565,0.440563965,-0.025947266,1,0,0,0.67751,yes,AGENT,WAKILI,incorrect,3,0,3,0,1,,,,,,,,,,,,,,,,,,,,,,,,,,,,,,,,,,,,
,,,,,,,,,,1582915,2020-10-22_14h46.09.729,swahili,2020.2.4,MacIntel,60,,,,,,,,,,,,,,,,,,,,,,,,,,,,,,,,,,,,,,,,,,,,,,,,,,,2.186735,0.413372803,-0.080751953,1,0,0,1.79016,yes,POEM,UTENZI,incorrect,4,0,4,0,1,,,,,,,,,,,,,,,,,,,,,,,,,,,,,,,,,,,,
,,,,,,,,,,1582915,2020-10-22_14h46.09.729,swahili,2020.2.4,MacIntel,60,,,,,,,,,,,,,,,,,,,,,,,,,,,,,,,,,,,,,,,,,,,,,,,,,,,2.89804,0.413372803,-0.080751953,1,0,0,0.77656,yes,BRIBE,RUSHWA,incorrect,5,0,5,0,1,,,,,,,,,,,,,,,,,,,,,,,,,,,,,,,,,,,,
,,,,,,,,,,1582915,2020-10-22_14h46.09.729,swahili,2020.2.4,MacIntel,60,,,,,,,,,,,,,,,,,,,,,,,,,,,,,,,,,,,,,,,,,,,,,,,,,,,2.125845,0.413372803,-0.080751953,1,0,0,0.62261,yes,CHEESE,JIBINI,incorrect,6,0,6,0,1,,,,,,,,,,,,,,,,,,,,,,,,,,,,,,,,,,,,
,,,,,,,,,,1582915,2020-10-22_14h46.09.729,swahili,2020.2.4,MacIntel,60,,,,,,,,,,,,,,,,,,,,,,,,,,,,,,,,,,,,,,,,,,,,,,,,,,,3.30811,0.413372803,-0.080751953,1,0,0,0.56957,yes,MANURE,SAMADI,incorrect,7,0,7,0,1,,,,,,,,,,,,,,,,,,,,,,,,,,,,,,,,,,,,
,,,,,,,,,,1582915,2020-10-22_14h46.09.729,swahili,2020.2.4,MacIntel,60,,,,,,,,,,,,,,,,,,,,,,,,,,,,,,,,,,,,,,,,,,,,,,,,,,,6.768755,0.413372803,-0.080751953,1,0,0,0.638455,yes,BULL,ZI,incorrect,8,0,8,0,1,,,,,,,,,,,,,,,,,,,,,,,,,,,,,,,,,,,,
,,,,,,,,,,1582915,2020-10-22_14h46.09.729,swahili,2020.2.4,MacIntel,60,,,,,,,,,,,,,,,,,,,,,,,,,,,,,,,,,,,,,,,,,,,,,,,,,,,3.44501,0.412719727,-0.11046875,1,0,0,0.589925,yes,CORN,WAFAKA,incorrect,9,0,9,0,1,,,,,,,,,,,,,,,,,,,,,,,,,,,,,,,,,,,,
,,,,,,,,,,1582915,2020-10-22_14h46.09.729,swahili,2020.2.4,MacIntel,60,,,,,,,,,,,,,,,,,,,,,,,,,,,,,,,,,,,,,,,,,,,,,,,,,,,2.29396,0.412719727,-0.109228516,1,0,0,0.466735,yes,BOAT,MASHUA,incorrect,10,0,10,0,1,,,,,,,,,,,,,,,,,,,,,,,,,,,,,,,,,,,,
,,,,,,,,,,1582915,2020-10-22_14h46.09.729,swahili,2020.2.4,MacIntel,60,,,,,,,,,,,,,,,,,,,,,,,,,,,,,,,,,,,,,,,,,,,,,,,,,,,5.163255,0.406646729,-0.114003906,1,0,0,2.528265,yes,BLAME,LAWAMA,incorrect,11,0,11,0,1,,,,,,,,,,,,,,,,,,,,,,,,,,,,,,,,,,,,
,,,,,,,,,,1582915,2020-10-22_14h46.09.729,swahili,2020.2.4,MacIntel,60,,,,,,,,,,,,,,,,,,,,,,,,,,,,,,,,,,,,,,,,,,,,,,,,,,,2.881105,0.406646729,-0.114003906,1,0,0,0.514295,yes,DIVORCE,TAKALA,incorrect,12,0,12,0,1,,,,,,,,,,,,,,,,,,,,,,,,,,,,,,,,,,,,
,,,,,,,,,,1582915,2020-10-22_14h46.09.729,swahili,2020.2.4,MacIntel,60,,,,,,,,,,,,,,,,,,,,,,,,,,,,,,,,,,,,,,,,,,,,,,,,,,,5.75219,0.406646729,-0.130517578,1,0,0,0.571975,yes,GRAVE,BABURI,incorrect,13,0,13,0,1,,,,,,,,,,,,,,,,,,,,,,,,,,,,,,,,,,,,
,,,,,,,,,,1582915,2020-10-22_14h46.09.729,swahili,2020.2.4,MacIntel,60,,,,,,,,,,,,,,,,,,,,,,,,,,,,,,,,,,,,,,,,,,,,,,,,,,,5.206545,0.406646729,-0.130517578,1,0,0,0.517095,yes,TAILOR,MSHONI,incorrect,14,0,14,0,1,,,,,,,,,,,,,,,,,,,,,,,,,,,,,,,,,,,,
,,,,,,,,,,1582915,2020-10-22_14h46.09.729,swahili,2020.2.4,MacIntel,60,,,,,,,,,,,,,,,,,,,,,,,,,,,,,,,,,,,,,,,,,,,,,,,,,,,2.264745,0.406646729,-0.130517578,1,0,0,0.551065,yes,TREASURE,DAFINI,incorrect,15,0,15,0,1,,,,,,,,,,,,,,,,,,,,,,,,,,,,,,,,,,,,
,,,,,,,,,,1582915,2020-10-22_14h46.09.729,swahili,2020.2.4,MacIntel,60,,,,,,,,,,,,,,,,,,,,,,,,,,,,,,,,,,,,,,,,,,,,,,,,,,,3.88971,0.406646729,-0.130517578,1,0,0,0.55851,yes,OATH,MINI,incorrect,16,0,16,0,1,,,,,,,,,,,,,,,,,,,,,,,,,,,,,,,,,,,,
,,,,,,,,,,1582915,2020-10-22_14h46.09.729,swahili,2020.2.4,MacIntel,60,,,,,,,,,,,,,,,,,,,,,,,,,,,,,,,,,,,,,,,,,,,,,,,,,,,5.82936,0.406646729,-0.130517578,1,0,0,0.599435,yes,MERCHANT,J,incorrect,17,0,17,0,1,,,,,,,,,,,,,,,,,,,,,,,,,,,,,,,,,,,,
,,,,,,,,,,1582915,2020-10-22_14h46.09.729,swahili,2020.2.4,MacIntel,60,,,,,,,,,,,,,,,,,,,,,,,,,,,,,,,,,,,,,,,,,,,,,,,,,,,3.045655,0.406646729,-0.125292969,1,0,0,0.547495,yes,PARROT,KASUKU,incorrect,18,0,18,0,1,,,,,,,,,,,,,,,,,,,,,,,,,,,,,,,,,,,,
,,,,,,,,,,1582915,2020-10-22_14h46.09.729,swahili,2020.2.4,MacIntel,60,,,,,,,,,,,,,,,,,,,,,,,,,,,,,,,,,,,,,,,,,,,,,,,,,,,2.647865,0.406646729,-0.125292969,1,0,0,0.959405,yes,ORPHAN,YATIMA,incorrect,19,0,19,0,1,,,,,,,,,,,,,,,,,,,,,,,,,,,,,,,,,,,,
,,,,,,,,,,1582915,2020-10-22_14h46.09.729,swahili,2020.2.4,MacIntel,60,,,,,,,,,,,,,,,,,,,,,,,,,,,,,,,,,,,,,,,,0,0,0,0,1,,,,,,,,,,,,,,,,,,,,,,,,,,,,,,,,,,,,,,,,,,,,,,,,,,,,,,,,,,
,,,,,,,,,,1582915,2020-10-22_14h46.09.729,swahili,2020.2.4,MacIntel,60,,,,,,,,,,,,,,,,,,,,,,,,,,,,,,,,,,,,,,,,1,0,1,0,1,,,,,,,,,,,,,,,,,,,,,,,,,,,,,,,,,,,,,,,,,,,,,,,,,,,,,,,,,,
,,,,,,,,,,1582915,2020-10-22_14h46.09.729,swahili,2020.2.4,MacIntel,60,,,,,,,,,,,,,,,,,,,,,,,,,,,,,,,,,,,,,,,,,,,,,2,0,2,0,1,,,,,,,,,,,,,,,,,,,,,,,,,,,,,,,,,,,,,,,,,,,,,,,,,,,,,
,,,,,,,,,,1582915,2020-10-22_14h46.09.729,swahili,2020.2.4,MacIntel,60,,,,,,,,,,-0.401898193,-0.031494141,1,0,0,1.39725,unsorted_card,0,0,0,0,1,,,,,,,,,,,,,,,,,,,,,,,,,,,,,,,,,,,,,,,,,,,,,,,,,,,,,,,,,,,,,,,,,,,,,,,,,,,,,,,,,
,,,,,,,,,,1582915,2020-10-22_14h46.09.729,swahili,2020.2.4,MacIntel,60,,,,,,,,,,-0.140423584,-0.112832031,1,0,0,3.11145,unsorted_card,1,0,1,0,1,MERCHANT - TAJIRI,,,,,,,,,,,,,,,,,,,,,,,,,,,,,,,,,,,,,,,,,,,,,,,,,,,,,,,,,,,,,,,,,,,,,,,,,,,,,,,,
,,,,,,,,,,1582915,2020-10-22_14h46.09.729,swahili,2020.2.4,MacIntel,60,,,,,,,,,,0.467694092,0.005429687,1,0,0,1.812775,test_pile,2,0,2,0,1,MERCHANT - TAJIRI,,,,,,,,,,,,,,,,,,,,,,,,,,,,,,,,,,,,,,,,,,,,,,,,,,,,,,,,,,,,,,,,,,,,,,,,,,,,,,,,
,,,,,,,,,,1582915,2020-10-22_14h46.09.729,swahili,2020.2.4,MacIntel,60,,,,,,,,,,-0.169067383,-0.062460938,1,0,0,0.78324,unsorted_card,3,0,3,0,1,,,,,,,,,,,,,,,,,,,,,,,,,,,,,,,,,,,,,,,,,,,,,,,,,,,,,,,,,,,,,,,,,,,,,,,,,,,,,,,,,
,,,,,,,,,,1582915,2020-10-22_14h46.09.729,swahili,2020.2.4,MacIntel,60,,,,,,,,,,0.427209473,0.028779297,1,0,0,1.89973,test_pile,4,0,4,0,1,PARROT - KASUKU,,,,,,,,,,,,,,,,,,,,,,,,,,,,,,,,,,,,,,,,,,,,,,,,,,,,,,,,,,,,,,,,,,,,,,,,,,,,,,,,
,,,,,,,,,,1582915,2020-10-22_14h46.09.729,swahili,2020.2.4,MacIntel,60,,,,,,,,,,-0.192169189,-0.037392578,1,0,0,0.481005,unsorted_card,5,0,5,0,1,,,,,,,,,,,,,,,,,,,,,,,,,,,,,,,,,,,,,,,,,,,,,,,,,,,,,,,,,,,,,,,,,,,,,,,,,,,,,,,,,
,,,,,,,,,,1582915,2020-10-22_14h46.09.729,swahili,2020.2.4,MacIntel,60,,,,,,,,,,0.349212646,-0.034697266,1,0,0,0.947735,test_pile,6,0,6,0,1,BULL - FAHILI,,,,,,,,,,,,,,,,,,,,,,,,,,,,,,,,,,,,,,,,,,,,,,,,,,,,,,,,,,,,,,,,,,,,,,,,,,,,,,,,
,,,,,,,,,,1582915,2020-10-22_14h46.09.729,swahili,2020.2.4,MacIntel,60,,,,,,,,,,-0.261999512,-0.044052734,1,0,0,0.463295,unsorted_card,7,0,7,0,1,,,,,,,,,,,,,,,,,,,,,,,,,,,,,,,,,,,,,,,,,,,,,,,,,,,,,,,,,,,,,,,,,,,,,,,,,,,,,,,,,
,,,,,,,,,,1582915,2020-10-22_14h46.09.729,swahili,2020.2.4,MacIntel,60,,,,,,,,,,0.534222412,-0.027236328,1,0,0,1.011735,test_pile,8,0,8,0,1,PLATE - SAHANI,,,,,,,,,,,,,,,,,,,,,,,,,,,,,,,,,,,,,,,,,,,,,,,,,,,,,,,,,,,,,,,,,,,,,,,,,,,,,,,,
,,,,,,,,,,1582915,2020-10-22_14h46.09.729,swahili,2020.2.4,MacIntel,60,,,,,,,,,,-0.139276123,-0.066279297,1,0,0,0.51821,unsorted_card,9,0,9,0,1,,,,,,,,,,,,,,,,,,,,,,,,,,,,,,,,,,,,,,,,,,,,,,,,,,,,,,,,,,,,,,,,,,,,,,,,,,,,,,,,,
,,,,,,,,,,1582915,2020-10-22_14h46.09.729,swahili,2020.2.4,MacIntel,60,,,,,,,,,,0.375476074,-0.450029297,1,0,0,2.02173,done_pile,10,0,10,0,1,YEAST - HAMIRA,,,,,,,,,,,,,,,,,,,,,,,,,,,,,,,,,,,,,,,,,,,,,,,,,,,,,,,,,,,,,,,,,,,,,,,,,,,,,,,,
,,,,,,,,,,1582915,2020-10-22_14h46.09.729,swahili,2020.2.4,MacIntel,60,,,,,,,,,,-0.206982422,-0.120566406,1,0,0,0.53459,unsorted_card,11,0,11,0,1,,,,,,,,,,,,,,,,,,,,,,,,,,,,,,,,,,,,,,,,,,,,,,,,,,,,,,,,,,,,,,,,,,,,,,,,,,,,,,,,,
,,,,,,,,,,1582915,2020-10-22_14h46.09.729,swahili,2020.2.4,MacIntel,60,,,,,,,,,,0.434716797,0.025117187,1,0,0,1.478575,test_pile,12,0,12,0,1,BLAME - LAWAMA,,,,,,,,,,,,,,,,,,,,,,,,,,,,,,,,,,,,,,,,,,,,,,,,,,,,,,,,,,,,,,,,,,,,,,,,,,,,,,,,
,,,,,,,,,,1582915,2020-10-22_14h46.09.729,swahili,2020.2.4,MacIntel,60,,,,,,,,,,-0.246881104,0.002724609,1,0,0,0.486,unsorted_card,13,0,13,0,1,,,,,,,,,,,,,,,,,,,,,,,,,,,,,,,,,,,,,,,,,,,,,,,,,,,,,,,,,,,,,,,,,,,,,,,,,,,,,,,,,
,,,,,,,,,,1582915,2020-10-22_14h46.09.729,swahili,2020.2.4,MacIntel,60,,,,,,,,,,0.405096436,-0.021298828,1,0,0,1.524565,test_pile,14,0,14,0,1,OATH - YAMINI,,,,,,,,,,,,,,,,,,,,,,,,,,,,,,,,,,,,,,,,,,,,,,,,,,,,,,,,,,,,,,,,,,,,,,,,,,,,,,,,
,,,,,,,,,,1582915,2020-10-22_14h46.09.729,swahili,2020.2.4,MacIntel,60,,,,,,,,,,-0.342858887,-0.054511719,1,0,0,0.496875,unsorted_card,15,0,15,0,1,,,,,,,,,,,,,,,,,,,,,,,,,,,,,,,,,,,,,,,,,,,,,,,,,,,,,,,,,,,,,,,,,,,,,,,,,,,,,,,,,
,,,,,,,,,,1582915,2020-10-22_14h46.09.729,swahili,2020.2.4,MacIntel,60,,,,,,,,,,0.566693115,-0.06109375,1,0,0,1.12703,test_pile,16,0,16,0,1,CORN - NAFAKA,,,,,,,,,,,,,,,,,,,,,,,,,,,,,,,,,,,,,,,,,,,,,,,,,,,,,,,,,,,,,,,,,,,,,,,,,,,,,,,,
,,,,,,,,,,1582915,2020-10-22_14h46.09.729,swahili,2020.2.4,MacIntel,60,,,,,,,,,,-0.143792725,-0.016083984,1,0,0,0.749195,unsorted_card,17,0,17,0,1,,,,,,,,,,,,,,,,,,,,,,,,,,,,,,,,,,,,,,,,,,,,,,,,,,,,,,,,,,,,,,,,,,,,,,,,,,,,,,,,,
,,,,,,,,,,1582915,2020-10-22_14h46.09.729,swahili,2020.2.4,MacIntel,60,,,,,,,,,,0.506958008,-0.509814453,1,0,0,1.21275,done_pile,18,0,18,0,1,POEM - UTENZI,,,,,,,,,,,,,,,,,,,,,,,,,,,,,,,,,,,,,,,,,,,,,,,,,,,,,,,,,,,,,,,,,,,,,,,,,,,,,,,,
,,,,,,,,,,1582915,2020-10-22_14h46.09.729,swahili,2020.2.4,MacIntel,60,,,,,,,,,,-0.169854736,-0.130585937,1,0,0,0.57643,unsorted_card,19,0,19,0,1,,,,,,,,,,,,,,,,,,,,,,,,,,,,,,,,,,,,,,,,,,,,,,,,,,,,,,,,,,,,,,,,,,,,,,,,,,,,,,,,,
,,,,,,,,,,1582915,2020-10-22_14h46.09.729,swahili,2020.2.4,MacIntel,60,,,,,,,,,,0.357501221,-0.486533203,1,0,0,2.493875,done_pile,20,0,20,0,1,TAILOR - MSHONI,,,,,,,,,,,,,,,,,,,,,,,,,,,,,,,,,,,,,,,,,,,,,,,,,,,,,,,,,,,,,,,,,,,,,,,,,,,,,,,,
,,,,,,,,,,1582915,2020-10-22_14h46.09.729,swahili,2020.2.4,MacIntel,60,,,,,,,,,,-0.2628479,-0.131826172,1,0,0,0.52988,unsorted_card,21,0,21,0,1,,,,,,,,,,,,,,,,,,,,,,,,,,,,,,,,,,,,,,,,,,,,,,,,,,,,,,,,,,,,,,,,,,,,,,,,,,,,,,,,,
,,,,,,,,,,1582915,2020-10-22_14h46.09.729,swahili,2020.2.4,MacIntel,60,,,,,,,,,,0.315637207,-0.490976562,1,0,0,1.44667,done_pile,22,0,22,0,1,CHEESE - JIBINI,,,,,,,,,,,,,,,,,,,,,,,,,,,,,,,,,,,,,,,,,,,,,,,,,,,,,,,,,,,,,,,,,,,,,,,,,,,,,,,,
,,,,,,,,,,1582915,2020-10-22_14h46.09.729,swahili,2020.2.4,MacIntel,60,,,,,,,,,,-0.11071167,-0.125117188,1,0,0,0.54375,unsorted_card,23,0,23,0,1,,,,,,,,,,,,,,,,,,,,,,,,,,,,,,,,,,,,,,,,,,,,,,,,,,,,,,,,,,,,,,,,,,,,,,,,,,,,,,,,,
,,,,,,,,,,1582915,2020-10-22_14h46.09.729,swahili,2020.2.4,MacIntel,60,,,,,,,,,,0.465997314,0.040302734,1,0,0,1.70278,test_pile,24,0,24,0,1,GRAPES - ZABIBU,,,,,,,,,,,,,,,,,,,,,,,,,,,,,,,,,,,,,,,,,,,,,,,,,,,,,,,,,,,,,,,,,,,,,,,,,,,,,,,,
,,,,,,,,,,1582915,2020-10-22_14h46.09.729,swahili,2020.2.4,MacIntel,60,,,,,,,,,,-0.112988281,0.043105469,1,0,0,0.54043,unsorted_card,25,0,25,0,1,,,,,,,,,,,,,,,,,,,,,,,,,,,,,,,,,,,,,,,,,,,,,,,,,,,,,,,,,,,,,,,,,,,,,,,,,,,,,,,,,
,,,,,,,,,,1582915,2020-10-22_14h46.09.729,swahili,2020.2.4,MacIntel,60,,,,,,,,,,0.42010498,-0.103144531,1,0,0,1.11536,test_pile,26,0,26,0,1,GRAVE - KABURI,,,,,,,,,,,,,,,,,,,,,,,,,,,,,,,,,,,,,,,,,,,,,,,,,,,,,,,,,,,,,,,,,,,,,,,,,,,,,,,,
,,,,,,,,,,1582915,2020-10-22_14h46.09.729,swahili,2020.2.4,MacIntel,60,,,,,,,,,,-0.271881104,0.002294922,1,0,0,0.57081,unsorted_card,27,0,27,0,1,,,,,,,,,,,,,,,,,,,,,,,,,,,,,,,,,,,,,,,,,,,,,,,,,,,,,,,,,,,,,,,,,,,,,,,,,,,,,,,,,
,,,,,,,,,,1582915,2020-10-22_14h46.09.729,swahili,2020.2.4,MacIntel,60,,,,,,,,,,0.370281982,-0.064482422,1,0,0,1.554415,test_pile,28,0,28,0,1,MANURE - SAMADI,,,,,,,,,,,,,,,,,,,,,,,,,,,,,,,,,,,,,,,,,,,,,,,,,,,,,,,,,,,,,,,,,,,,,,,,,,,,,,,,
,,,,,,,,,,1582915,2020-10-22_14h46.09.729,swahili,2020.2.4,MacIntel,60,,,,,,,,,,-0.144482422,-0.064921875,1,0,0,0.536765,unsorted_card,29,0,29,0,1,,,,,,,,,,,,,,,,,,,,,,,,,,,,,,,,,,,,,,,,,,,,,,,,,,,,,,,,,,,,,,,,,,,,,,,,,,,,,,,,,
,,,,,,,,,,1582915,2020-10-22_14h46.09.729,swahili,2020.2.4,MacIntel,60,,,,,,,,,,0.34352417,-0.042236328,1,0,0,1.86418,test_pile,30,0,30,0,1,AGENT - WAKILI,,,,,,,,,,,,,,,,,,,,,,,,,,,,,,,,,,,,,,,,,,,,,,,,,,,,,,,,,,,,,,,,,,,,,,,,,,,,,,,,
,,,,,,,,,,1582915,2020-10-22_14h46.09.729,swahili,2020.2.4,MacIntel,60,,,,,,,,,,-0.274023438,-0.088955078,1,0,0,0.64311,unsorted_card,31,0,31,0,1,,,,,,,,,,,,,,,,,,,,,,,,,,,,,,,,,,,,,,,,,,,,,,,,,,,,,,,,,,,,,,,,,,,,,,,,,,,,,,,,,
,,,,,,,,,,1582915,2020-10-22_14h46.09.729,swahili,2020.2.4,MacIntel,60,,,,,,,,,,0.371069336,-0.603056641,1,0,0,1.700925,done_pile,32,0,32,0,1,BRIBE - RUSHWA,,,,,,,,,,,,,,,,,,,,,,,,,,,,,,,,,,,,,,,,,,,,,,,,,,,,,,,,,,,,,,,,,,,,,,,,,,,,,,,,
,,,,,,,,,,1582915,2020-10-22_14h46.09.729,swahili,2020.2.4,MacIntel,60,,,,,,,,,,-0.238537598,-0.0903125,1,0,0,0.482615,unsorted_card,33,0,33,0,1,,,,,,,,,,,,,,,,,,,,,,,,,,,,,,,,,,,,,,,,,,,,,,,,,,,,,,,,,,,,,,,,,,,,,,,,,,,,,,,,,
,,,,,,,,,,1582915,2020-10-22_14h46.09.729,swahili,2020.2.4,MacIntel,60,,,,,,,,,,0.35302124,-0.517412109,1,0,0,1.5827,done_pile,34,0,34,0,1,ORPHAN - YATIMA,,,,,,,,,,,,,,,,,,,,,,,,,,,,,,,,,,,,,,,,,,,,,,,,,,,,,,,,,,,,,,,,,,,,,,,,,,,,,,,,
,,,,,,,,,,1582915,2020-10-22_14h46.09.729,swahili,2020.2.4,MacIntel,60,,,,,,,,,,-0.148260498,-0.122744141,1,0,0,0.477605,unsorted_card,35,0,35,0,1,,,,,,,,,,,,,,,,,,,,,,,,,,,,,,,,,,,,,,,,,,,,,,,,,,,,,,,,,,,,,,,,,,,,,,,,,,,,,,,,,
,,,,,,,,,,1582915,2020-10-22_14h46.09.729,swahili,2020.2.4,MacIntel,60,,,,,,,,,,0.333447266,-0.055693359,1,0,0,3.73425,test_pile,36,0,36,0,1,DIVORCE - TALAKA,,,,,,,,,,,,,,,,,,,,,,,,,,,,,,,,,,,,,,,,,,,,,,,,,,,,,,,,,,,,,,,,,,,,,,,,,,,,,,,,
,,,,,,,,,,1582915,2020-10-22_14h46.09.729,swahili,2020.2.4,MacIntel,60,,,,,,,,,,-0.170257568,-0.046728516,1,0,0,0.448895,unsorted_card,37,0,37,0,1,,,,,,,,,,,,,,,,,,,,,,,,,,,,,,,,,,,,,,,,,,,,,,,,,,,,,,,,,,,,,,,,,,,,,,,,,,,,,,,,,
,,,,,,,,,,1582915,2020-10-22_14h46.09.729,swahili,2020.2.4,MacIntel,60,,,,,,,,,,0.363952637,-0.020224609,1,0,0,0.92616,test_pile,38,0,38,0,1,BOAT - MASHUA,,,,,,,,,,,,,,,,,,,,,,,,,,,,,,,,,,,,,,,,,,,,,,,,,,,,,,,,,,,,,,,,,,,,,,,,,,,,,,,,
,,,,,,,,,,1582915,2020-10-22_14h46.09.729,swahili,2020.2.4,MacIntel,60,,,,,,,,,,-0.170507812,0.009072266,1,0,0,0.53993,unsorted_card,39,0,39,0,1,,,,,,,,,,,,,,,,,,,,,,,,,,,,,,,,,,,,,,,,,,,,,,,,,,,,,,,,,,,,,,,,,,,,,,,,,,,,,,,,,
,,,,,,,,,,1582915,2020-10-22_14h46.09.729,swahili,2020.2.4,MacIntel,60,,,,,,,,,,0.412127686,-0.025595703,1,0,0,2.22611,test_pile,40,0,40,0,1,TREASURE - DAFINA,,,,,,,,,,,,,,,,,,,,,,,,,,,,,,,,,,,,,,,,,,,,,,,,,,,,,,,,,,,,,,,,,,,,,,,,,,,,,,,,
,,,,,,,,,,1582915,2020-10-22_14h46.09.729,swahili,2020.2.4,MacIntel,60,,,,,,,,,,,,,,,,,,,,,,,,,,,,,,,,,,0,0,0,0,1,,,,,,,,,,,,,,,,,,,,,,,,,,,,,,,,,,,,,,,,,,,,,,,,,,,,,,,,,,,,,,,,
,,,,,,,,,,1582915,2020-10-22_14h46.09.729,swahili,2020.2.4,MacIntel,60,,,,,,,,,,,,,,,,,,,,,,,,,,,,,,,,,,,,,,,return,,,,,,,,,,,2.29307,4.131445,0.417388916,-0.107402344,1,0,0,0.578325,yes,PLATE,SAHAMI,incorrect,0,0,0,0,1,,,,,,,,,,,,,,,,,,,,,,,,,,,,,,,,,,,,
,,,,,,,,,,1582915,2020-10-22_14h46.09.729,swahili,2020.2.4,MacIntel,60,,,,,,,,,,,,,,,,,,,,,,,,,,,,,,,,,,,,,,,,,,,,,,,,,,,2.22098,0.417388916,-0.107402344,1,0,0,0.442885,yes,AGENT,WAKILI,incorrect,1,0,1,0,1,,,,,,,,,,,,,,,,,,,,,,,,,,,,,,,,,,,,
,,,,,,,,,,1582915,2020-10-22_14h46.09.729,swahili,2020.2.4,MacIntel,60,,,,,,,,,,,,,,,,,,,,,,,,,,,,,,,,,,,,,,,,,,,,,,,,,,,3.99219,0.417388916,-0.107402344,1,0,0,0.487455,yes,TREASURE,DAFINA,incorrect,2,0,2,0,1,,,,,,,,,,,,,,,,,,,,,,,,,,,,,,,,,,,,
,,,,,,,,,,1582915,2020-10-22_14h46.09.729,swahili,2020.2.4,MacIntel,60,,,,,,,,,,,,,,,,,,,,,,,,,,,,,,,,,,,,,,,,,,,,,,,,,,,2.54895,0.417388916,-0.107402344,1,0,0,0.47209,yes,CORN,NAFAKA,incorrect,3,0,3,0,1,,,,,,,,,,,,,,,,,,,,,,,,,,,,,,,,,,,,
,,,,,,,,,,1582915,2020-10-22_14h46.09.729,swahili,2020.2.4,MacIntel,60,,,,,,,,,,,,,,,,,,,,,,,,,,,,,,,,,,,,,,,,,,,,,,,,,,,2.279765,0.417388916,-0.107402344,1,0,0,0.426655,yes,PARROT,KASUKU,incorrect,4,0,4,0,1,,,,,,,,,,,,,,,,,,,,,,,,,,,,,,,,,,,,
,,,,,,,,,,1582915,2020-10-22_14h46.09.729,swahili,2020.2.4,MacIntel,60,,,,,,,,,,,,,,,,,,,,,,,,,,,,,,,,,,,,,,,,,,,,,,,,,,,6.768535,0.417388916,-0.107402344,1,0,0,0.49952,yes,DIVORCE,TALAKA,incorrect,5,0,5,0,1,,,,,,,,,,,,,,,,,,,,,,,,,,,,,,,,,,,,
,,,,,,,,,,1582915,2020-10-22_14h46.09.729,swahili,2020.2.4,MacIntel,60,,,,,,,,,,,,,,,,,,,,,,,,,,,,,,,,,,,,,,,,,,,,,,,,,,,4.83559,0.417388916,-0.107402344,1,0,0,0.513345,yes,BULL,JI,incorrect,6,0,6,0,1,,,,,,,,,,,,,,,,,,,,,,,,,,,,,,,,,,,,
,,,,,,,,,,1582915,2020-10-22_14h46.09.729,swahili,2020.2.4,MacIntel,60,,,,,,,,,,,,,,,,,,,,,,,,,,,,,,,,,,,,,,,,,,,,,,,,,,,5.40103,0.417388916,-0.107402344,1,0,0,0.475775,yes,MERCHANT,FAJIRI,incorrect,7,0,7,0,1,,,,,,,,,,,,,,,,,,,,,,,,,,,,,,,,,,,,
,,,,,,,,,,1582915,2020-10-22_14h46.09.729,swahili,2020.2.4,MacIntel,60,,,,,,,,,,,,,,,,,,,,,,,,,,,,,,,,,,,,,,,,,,,,,,,,,,,1.97848,0.417388916,-0.107402344,1,0,0,0.437055,yes,BOAT,MASHUA,incorrect,8,0,8,0,1,,,,,,,,,,,,,,,,,,,,,,,,,,,,,,,,,,,,
,,,,,,,,,,1582915,2020-10-22_14h46.09.729,swahili,2020.2.4,MacIntel,60,,,,,,,,,,,,,,,,,,,,,,,,,,,,,,,,,,,,,,,,,,,,,,,,,,,10.33747,0.417388916,-0.107402344,1,0,0,0.521935,yes,GRAVE,BABURI,incorrect,9,0,9,0,1,,,,,,,,,,,,,,,,,,,,,,,,,,,,,,,,,,,,
,,,,,,,,,,1582915,2020-10-22_14h46.09.729,swahili,2020.2.4,MacIntel,60,,,,,,,,,,,,,,,,,,,,,,,,,,,,,,,,,,,,,,,,,,,,,,,,,,,2.28033,0.417388916,-0.107402344,1,0,0,0.65099,yes,OATH,YAMINI,incorrect,10,0,10,0,1,,,,,,,,,,,,,,,,,,,,,,,,,,,,,,,,,,,,
,,,,,,,,,,1582915,2020-10-22_14h46.09.729,swahili,2020.2.4,MacIntel,60,,,,,,,,,,,,,,,,,,,,,,,,,,,,,,,,,,,,,,,,,,,,,,,,,,,3.24574,0.417388916,-0.107402344,1,0,0,2.016855,yes,BLAME,LAWAMA,incorrect,11,0,11,0,1,,,,,,,,,,,,,,,,,,,,,,,,,,,,,,,,,,,,
,,,,,,,,,,1582915,2020-10-22_14h46.09.729,swahili,2020.2.4,MacIntel,60,,,,,,,,,,,,,,,,,,,,,,,,,,,,,,,,,,,,,,,,,,,,,,,,,,,3.15374,0.417388916,-0.107402344,1,0,0,0.672065,yes,MANURE,SAMADI,incorrect,12,0,12,0,1,,,,,,,,,,,,,,,,,,,,,,,,,,,,,,,,,,,,
,,,,,,,,,,1582915,2020-10-22_14h46.09.729,swahili,2020.2.4,MacIntel,60,,,,,,,,,,,,,,,,,,,,,,,,,,,,,,,,,,,,,,,,,,,,,,,,,,,7.015125,0.417388916,-0.104179688,1,0,0,0.599035,yes,GRAPES,ZABIBU,incorrect,13,0,13,0,1,,,,,,,,,,,,,,,,,,,,,,,,,,,,,,,,,,,,
,,,,,,,,,,1582915,2020-10-22_14h46.09.729,swahili,2020.2.4,MacIntel,60,,,,,,,,,,,,,,,,,,,,,,,,,,,,,,,,,,,,,,,,0,0,0,0,1,,,,,,,,,,,,,,,,,,,,,,,,,,,,,,,,,,,,,,,,,,,,,,,,,,,,,,,,,,
,,,,,,,,,,1582915,2020-10-22_14h46.09.729,swahili,2020.2.4,MacIntel,60,,,,,,,,,,,,,,,,,,,,,,,,,,,,,,,,,,,,,,,,1,0,1,0,1,,,,,,,,,,,,,,,,,,,,,,,,,,,,,,,,,,,,,,,,,,,,,,,,,,,,,,,,,,
,,,,,,,,,,1582915,2020-10-22_14h46.09.729,swahili,2020.2.4,MacIntel,60,,,,,,,,,,,,,,,,,,,,,,,,,,,,,,,,,,,,,,,,,,,,,3,0,3,0,1,,,,,,,,,,,,,,,,,,,,,,,,,,,,,,,,,,,,,,,,,,,,,,,,,,,,,
,,,,,,,,,,1582915,2020-10-22_14h46.09.729,swahili,2020.2.4,MacIntel,60,,,,,,,,,,-0.248449707,-0.107314453,1,0,0,2.25967,unsorted_card,0,0,0,0,1,,,,,,,,,,,,,,,,,,,,,,,,,,,,,,,,,,,,,,,,,,,,,,,,,,,,,,,,,,,,,,,,,,,,,,,,,,,,,,,,,
,,,,,,,,,,1582915,2020-10-22_14h46.09.729,swahili,2020.2.4,MacIntel,60,,,,,,,,,,0.500799561,-0.040224609,1,0,0,1.73397,test_pile,1,0,1,0,1,MERCHANT - TAJIRI,,,,,,,,,,,,,,,,,,,,,,,,,,,,,,,,,,,,,,,,,,,,,,,,,,,,,,,,,,,,,,,,,,,,,,,,,,,,,,,,
,,,,,,,,,,1582915,2020-10-22_14h46.09.729,swahili,2020.2.4,MacIntel,60,,,,,,,,,,-0.283563232,-0.128740234,1,0,0,0.864305,unsorted_card,2,0,2,0,1,,,,,,,,,,,,,,,,,,,,,,,,,,,,,,,,,,,,,,,,,,,,,,,,,,,,,,,,,,,,,,,,,,,,,,,,,,,,,,,,,
,,,,,,,,,,1582915,2020-10-22_14h46.09.729,swahili,2020.2.4,MacIntel,60,,,,,,,,,,0.383752441,-0.028164062,1,0,0,2.865935,test_pile,3,0,3,0,1,PARROT - KASUKU,,,,,,,,,,,,,,,,,,,,,,,,,,,,,,,,,,,,,,,,,,,,,,,,,,,,,,,,,,,,,,,,,,,,,,,,,,,,,,,,
,,,,,,,,,,1582915,2020-10-22_14h46.09.729,swahili,2020.2.4,MacIntel,60,,,,,,,,,,-0.212145996,-0.081044922,1,0,0,1.521335,unsorted_card,4,0,4,0,1,,,,,,,,,,,,,,,,,,,,,,,,,,,,,,,,,,,,,,,,,,,,,,,,,,,,,,,,,,,,,,,,,,,,,,,,,,,,,,,,,
,,,,,,,,,,1582915,2020-10-22_14h46.09.729,swahili,2020.2.4,MacIntel,60,,,,,,,,,,0.465539551,-0.065136719,1,0,0,1.066355,test_pile,5,0,5,0,1,BULL - FAHILI,,,,,,,,,,,,,,,,,,,,,,,,,,,,,,,,,,,,,,,,,,,,,,,,,,,,,,,,,,,,,,,,,,,,,,,,,,,,,,,,
,,,,,,,,,,1582915,2020-10-22_14h46.09.729,swahili,2020.2.4,MacIntel,60,,,,,,,,,,-0.14284668,-0.075292969,1,0,0,3.976595,unsorted_card,6,0,6,0,1,,,,,,,,,,,,,,,,,,,,,,,,,,,,,,,,,,,,,,,,,,,,,,,,,,,,,,,,,,,,,,,,,,,,,,,,,,,,,,,,,
,,,,,,,,,,1582915,2020-10-22_14h46.09.729,swahili,2020.2.4,MacIntel,60,,,,,,,,,,0.433282471,-0.021152344,1,0,0,1.97251,test_pile,7,0,7,0,1,PLATE - SAHANI,,,,,,,,,,,,,,,,,,,,,,,,,,,,,,,,,,,,,,,,,,,,,,,,,,,,,,,,,,,,,,,,,,,,,,,,,,,,,,,,
,,,,,,,,,,1582915,2020-10-22_14h46.09.729,swahili,2020.2.4,MacIntel,60,,,,,,,,,,-0.10178833,-0.052460937,1,0,0,0.55751,unsorted_card,8,0,8,0,1,,,,,,,,,,,,,,,,,,,,,,,,,,,,,,,,,,,,,,,,,,,,,,,,,,,,,,,,,,,,,,,,,,,,,,,,,,,,,,,,,
,,,,,,,,,,1582915,2020-10-22_14h46.09.729,swahili,2020.2.4,MacIntel,60,,,,,,,,,,0.429992676,0.008066406,1,0,0,0.835275,test_pile,9,0,9,0,1,BLAME - LAWAMA,,,,,,,,,,,,,,,,,,,,,,,,,,,,,,,,,,,,,,,,,,,,,,,,,,,,,,,,,,,,,,,,,,,,,,,,,,,,,,,,
,,,,,,,,,,1582915,2020-10-22_14h46.09.729,swahili,2020.2.4,MacIntel,60,,,,,,,,,,-0.237994385,-0.070078125,1,0,0,0.510205,unsorted_card,10,0,10,0,1,,,,,,,,,,,,,,,,,,,,,,,,,,,,,,,,,,,,,,,,,,,,,,,,,,,,,,,,,,,,,,,,,,,,,,,,,,,,,,,,,
,,,,,,,,,,1582915,2020-10-22_14h46.09.729,swahili,2020.2.4,MacIntel,60,,,,,,,,,,0.512713623,-0.085673828,1,0,0,2.23365,test_pile,11,0,11,0,1,OATH - YAMINI,,,,,,,,,,,,,,,,,,,,,,,,,,,,,,,,,,,,,,,,,,,,,,,,,,,,,,,,,,,,,,,,,,,,,,,,,,,,,,,,
,,,,,,,,,,1582915,2020-10-22_14h46.09.729,swahili,2020.2.4,MacIntel,60,,,,,,,,,,-0.343371582,-0.11828125,1,0,0,0.569275,unsorted_card,12,0,12,0,1,,,,,,,,,,,,,,,,,,,,,,,,,,,,,,,,,,,,,,,,,,,,,,,,,,,,,,,,,,,,,,,,,,,,,,,,,,,,,,,,,
,,,,,,,,,,1582915,2020-10-22_14h46.09.729,swahili,2020.2.4,MacIntel,60,,,,,,,,,,0.415447998,-0.043925781,1,0,0,1.028785,test_pile,13,0,13,0,1,CORN - NAFAKA,,,,,,,,,,,,,,,,,,,,,,,,,,,,,,,,,,,,,,,,,,,,,,,,,,,,,,,,,,,,,,,,,,,,,,,,,,,,,,,,
,,,,,,,,,,1582915,2020-10-22_14h46.09.729,swahili,2020.2.4,MacIntel,60,,,,,,,,,,-0.234570312,-0.162558594,1,0,0,0.503235,unsorted_card,14,0,14,0,1,,,,,,,,,,,,,,,,,,,,,,,,,,,,,,,,,,,,,,,,,,,,,,,,,,,,,,,,,,,,,,,,,,,,,,,,,,,,,,,,,
,,,,,,,,,,1582915,2020-10-22_14h46.09.729,swahili,2020.2.4,MacIntel,60,,,,,,,,,,0.379199219,-0.064628906,1,0,0,1.74326,test_pile,15,0,15,0,1,GRAPES - ZABIBU,,,,,,,,,,,,,,,,,,,,,,,,,,,,,,,,,,,,,,,,,,,,,,,,,,,,,,,,,,,,,,,,,,,,,,,,,,,,,,,,
,,,,,,,,,,1582915,2020-10-22_14h46.09.729,swahili,2020.2.4,MacIntel,60,,,,,,,,,,-0.207922363,-0.056748047,1,0,0,0.599185,unsorted_card,16,0,16,0,1,,,,,,,,,,,,,,,,,,,,,,,,,,,,,,,,,,,,,,,,,,,,,,,,,,,,,,,,,,,,,,,,,,,,,,,,,,,,,,,,,
,,,,,,,,,,1582915,2020-10-22_14h46.09.729,swahili,2020.2.4,MacIntel,60,,,,,,,,,,0.435375977,0.035986328,1,0,0,1.91598,test_pile,17,0,17,0,1,GRAVE - KABURI,,,,,,,,,,,,,,,,,,,,,,,,,,,,,,,,,,,,,,,,,,,,,,,,,,,,,,,,,,,,,,,,,,,,,,,,,,,,,,,,
,,,,,,,,,,1582915,2020-10-22_14h46.09.729,swahili,2020.2.4,MacIntel,60,,,,,,,,,,-0.217022705,0.054472656,1,0,0,0.670175,unsorted_card,18,0,18,0,1,,,,,,,,,,,,,,,,,,,,,,,,,,,,,,,,,,,,,,,,,,,,,,,,,,,,,,,,,,,,,,,,,,,,,,,,,,,,,,,,,
,,,,,,,,,,1582915,2020-10-22_14h46.09.729,swahili,2020.2.4,MacIntel,60,,,,,,,,,,0.355371094,-0.016738281,1,0,0,2.22453,test_pile,19,0,19,0,1,MANURE - SAMADI,,,,,,,,,,,,,,,,,,,,,,,,,,,,,,,,,,,,,,,,,,,,,,,,,,,,,,,,,,,,,,,,,,,,,,,,,,,,,,,,
,,,,,,,,,,1582915,2020-10-22_14h46.09.729,swahili,2020.2.4,MacIntel,60,,,,,,,,,,-0.164007568,-0.008505859,1,0,0,0.46545,unsorted_card,20,0,20,0,1,,,,,,,,,,,,,,,,,,,,,,,,,,,,,,,,,,,,,,,,,,,,,,,,,,,,,,,,,,,,,,,,,,,,,,,,,,,,,,,,,
,,,,,,,,,,1582915,2020-10-22_14h46.09.729,swahili,2020.2.4,MacIntel,60,,,,,,,,,,0.44006958,-0.040800781,1,0,0,2.606345,test_pile,21,0,21,0,1,AGENT - WAKILI,,,,,,,,,,,,,,,,,,,,,,,,,,,,,,,,,,,,,,,,,,,,,,,,,,,,,,,,,,,,,,,,,,,,,,,,,,,,,,,,
,,,,,,,,,,1582915,2020-10-22_14h46.09.729,swahili,2020.2.4,MacIntel,60,,,,,,,,,,-0.200592041,-0.091445313,1,0,0,0.608,unsorted_card,22,0,22,0,1,,,,,,,,,,,,,,,,,,,,,,,,,,,,,,,,,,,,,,,,,,,,,,,,,,,,,,,,,,,,,,,,,,,,,,,,,,,,,,,,,
,,,,,,,,,,1582915,2020-10-22_14h46.09.729,swahili,2020.2.4,MacIntel,60,,,,,,,,,,0.403466797,-0.10328125,1,0,0,4.09285,test_pile,23,0,23,0,1,DIVORCE - TALAKA,,,,,,,,,,,,,,,,,,,,,,,,,,,,,,,,,,,,,,,,,,,,,,,,,,,,,,,,,,,,,,,,,,,,,,,,,,,,,,,,
,,,,,,,,,,1582915,2020-10-22_14h46.09.729,swahili,2020.2.4,MacIntel,60,,,,,,,,,,-0.204974365,-0.023173828,1,0,0,0.7699,unsorted_card,24,0,24,0,1,,,,,,,,,,,,,,,,,,,,,,,,,,,,,,,,,,,,,,,,,,,,,,,,,,,,,,,,,,,,,,,,,,,,,,,,,,,,,,,,,
,,,,,,,,,,1582915,2020-10-22_14h46.09.729,swahili,2020.2.4,MacIntel,60,,,,,,,,,,0.366668701,-0.070351563,1,0,0,1.87063,test_pile,25,0,25,0,1,BOAT - MASHUA,,,,,,,,,,,,,,,,,,,,,,,,,,,,,,,,,,,,,,,,,,,,,,,,,,,,,,,,,,,,,,,,,,,,,,,,,,,,,,,,
,,,,,,,,,,1582915,2020-10-22_14h46.09.729,swahili,2020.2.4,MacIntel,60,,,,,,,,,,-0.237207031,-0.088232422,1,0,0,0.57995,unsorted_card,26,0,26,0,1,,,,,,,,,,,,,,,,,,,,,,,,,,,,,,,,,,,,,,,,,,,,,,,,,,,,,,,,,,,,,,,,,,,,,,,,,,,,,,,,,
,,,,,,,,,,1582915,2020-10-22_14h46.09.729,swahili,2020.2.4,MacIntel,60,,,,,,,,,,0.452575684,-0.044189453,1,0,0,0.82071,test_pile,27,0,27,0,1,TREASURE - DAFINA,,,,,,,,,,,,,,,,,,,,,,,,,,,,,,,,,,,,,,,,,,,,,,,,,,,,,,,,,,,,,,,,,,,,,,,,,,,,,,,,
,,,,,,,,,,1582915,2020-10-22_14h46.09.729,swahili,2020.2.4,MacIntel,60,,,,,,,,,,,,,,,,,,,,,,,,,,,,,,,,,,0,0,0,0,1,,,,,,,,,,,,,,,,,,,,,,,,,,,,,,,,,,,,,,,,,,,,,,,,,,,,,,,,,,,,,,,,
,,,,,,,,,,1582915,2020-10-22_14h46.09.729,swahili,2020.2.4,MacIntel,60,,,,,,,,,,,,,,,,,,,,,,,,,,,,,,,,,,,,,,,return,,,,,,,,,,,1.54021,3.251915,0.371130371,-0.121621094,1,0,0,0.89381,yes,CORN,NAFAKA,incorrect,0,0,0,0,1,,,,,,,,,,,,,,,,,,,,,,,,,,,,,,,,,,,,
,,,,,,,,,,1582915,2020-10-22_14h46.09.729,swahili,2020.2.4,MacIntel,60,,,,,,,,,,,,,,,,,,,,,,,,,,,,,,,,,,,,,,,,,,,,,,,,,,,5.90838,0.371130371,-0.121621094,1,0,0,0.578515,yes,GRAPES,ZABIBU,incorrect,1,0,1,0,1,,,,,,,,,,,,,,,,,,,,,,,,,,,,,,,,,,,,
,,,,,,,,,,1582915,2020-10-22_14h46.09.729,swahili,2020.2.4,MacIntel,60,,,,,,,,,,,,,,,,,,,,,,,,,,,,,,,,,,,,,,,,,,,,,,,,,,,2.780545,0.371130371,-0.121621094,1,0,0,0.502595,yes,PLATE,SAHANI,incorrect,2,0,2,0,1,,,,,,,,,,,,,,,,,,,,,,,,,,,,,,,,,,,,
,,,,,,,,,,1582915,2020-10-22_14h46.09.729,swahili,2020.2.4,MacIntel,60,,,,,,,,,,,,,,,,,,,,,,,,,,,,,,,,,,,,,,,,,,,,,,,,,,,1.63483,0.371130371,-0.121621094,1,0,0,0.44852,yes,BOAT,MASHUA,incorrect,3,0,3,0,1,,,,,,,,,,,,,,,,,,,,,,,,,,,,,,,,,,,,
,,,,,,,,,,1582915,2020-10-22_14h46.09.729,swahili,2020.2.4,MacIntel,60,,,,,,,,,,,,,,,,,,,,,,,,,,,,,,,,,,,,,,,,,,,,,,,,,,,4.574675,0.367999268,-0.134570313,1,0,0,0.66136,yes,DIVORCE,TALAKA,incorrect,4,0,4,0,1,,,,,,,,,,,,,,,,,,,,,,,,,,,,,,,,,,,,
,,,,,,,,,,1582915,2020-10-22_14h46.09.729,swahili,2020.2.4,MacIntel,60,,,,,,,,,,,,,,,,,,,,,,,,,,,,,,,,,,,,,,,,,,,,,,,,,,,3.42458,0.367999268,-0.134570313,1,0,0,0.450475,yes,MERCHANT,TJIRI,incorrect,5,0,5,0,1,,,,,,,,,,,,,,,,,,,,,,,,,,,,,,,,,,,,
,,,,,,,,,,1582915,2020-10-22_14h46.09.729,swahili,2020.2.4,MacIntel,60,,,,,,,,,,,,,,,,,,,,,,,,,,,,,,,,,,,,,,,,,,,,,,,,,,,2.98668,0.370843506,-0.144121094,1,0,0,0.766215,yes,MANURE,SAMADI,incorrect,6,0,6,0,1,,,,,,,,,,,,,,,,,,,,,,,,,,,,,,,,,,,,
,,,,,,,,,,1582915,2020-10-22_14h46.09.729,swahili,2020.2.4,MacIntel,60,,,,,,,,,,,,,,,,,,,,,,,,,,,,,,,,,,,,,,,,,,,,,,,,,,,2.40351,0.370843506,-0.144121094,1,0,0,0.534245,yes,OATH,YAMINI,incorrect,7,0,7,0,1,,,,,,,,,,,,,,,,,,,,,,,,,,,,,,,,,,,,
,,,,,,,,,,1582915,2020-10-22_14h46.09.729,swahili,2020.2.4,MacIntel,60,,,,,,,,,,,,,,,,,,,,,,,,,,,,,,,,,,,,,,,,,,,,,,,,,,,2.225495,0.370843506,-0.144121094,1,0,0,0.53774,yes,AGENT,WAKILI,incorrect,8,0,8,0,1,,,,,,,,,,,,,,,,,,,,,,,,,,,,,,,,,,,,
,,,,,,,,,,1582915,2020-10-22_14h46.09.729,swahili,2020.2.4,MacIntel,60,,,,,,,,,,,,,,,,,,,,,,,,,,,,,,,,,,,,,,,,,,,,,,,,,,,2.42897,0.37164917,-0.149189453,1,0,0,0.60379,yes,BLAME,LAWAMA,incorrect,9,0,9,0,1,,,,,,,,,,,,,,,,,,,,,,,,,,,,,,,,,,,,
,,,,,,,,,,1582915,2020-10-22_14h46.09.729,swahili,2020.2.4,MacIntel,60,,,,,,,,,,,,,,,,,,,,,,,,,,,,,,,,,,,,,,,,,,,,,,,,,,,4.723005,0.37164917,-0.149189453,1,0,0,0.50876,yes,GRAVE,KABURI,incorrect,10,0,10,0,1,,,,,,,,,,,,,,,,,,,,,,,,,,,,,,,,,,,,
,,,,,,,,,,1582915,2020-10-22_14h46.09.729,swahili,2020.2.4,MacIntel,60,,,,,,,,,,,,,,,,,,,,,,,,,,,,,,,,,,,,,,,,,,,,,,,,,,,2.597525,0.37164917,-0.149189453,1,0,0,0.787105,yes,PARROT,KASUKU,incorrect,11,0,11,0,1,,,,,,,,,,,,,,,,,,,,,,,,,,,,,,,,,,,,
,,,,,,,,,,1582915,2020-10-22_14h46.09.729,swahili,2020.2.4,MacIntel,60,,,,,,,,,,,,,,,,,,,,,,,,,,,,,,,,,,,,,,,,,,,,,,,,,,,3.925455,0.37164917,-0.149189453,1,0,0,0.479465,yes,BULL,TAHINI,incorrect,12,0,12,0,1,,,,,,,,,,,,,,,,,,,,,,,,,,,,,,,,,,,,
,,,,,,,,,,1582915,2020-10-22_14h46.09.729,swahili,2020.2.4,MacIntel,60,,,,,,,,,,,,,,,,,,,,,,,,,,,,,,,,,,,,,,,,,,,,,,,,,,,3.9637,0.37164917,-0.149189453,1,0,0,0.592185,yes,TREASURE,DAFINA,incorrect,13,0,13,0,1,,,,,,,,,,,,,,,,,,,,,,,,,,,,,,,,,,,,
,,,,,,,,,,1582915,2020-10-22_14h46.09.729,swahili,2020.2.4,MacIntel,60,,,,,,,,,,,,,,,,,,,,,,,,,,,,,,,,,,,,,,,,0,0,0,0,1,,,,,,,,,,,,,,,,,,,,,,,,,,,,,,,,,,,,,,,,,,,,,,,,,,,,,,,,,,
,,,,,,,,,,1582915,2020-10-22_14h46.09.729,swahili,2020.2.4,MacIntel,60,,,,,,,,,,,,,,,,,,,,,,,,,,,,,,,,,,,,,,,,1,0,1,0,1,,,,,,,,,,,,,,,,,,,,,,,,,,,,,,,,,,,,,,,,,,,,,,,,,,,,,,,,,,
,,,,,,,,,,1582915,2020-10-22_14h46.09.729,swahili,2020.2.4,MacIntel,60,,,,,,,,,,,,,,,,,,,,,,,,,,,,,,,,,,,,,,,,,,,,,4,0,4,0,1,,,,,,,,,,,,,,,,,,,,,,,,,,,,,,,,,,,,,,,,,,,,,,,,,,,,,
,,,,,,,,,,1582915,2020-10-22_14h46.09.729,swahili,2020.2.4,MacIntel,60,,,,,,,,,,-0.468096924,-0.001347656,1,0,0,2.256835,unsorted_card,0,0,0,0,1,,,,,,,,,,,,,,,,,,,,,,,,,,,,,,,,,,,,,,,,,,,,,,,,,,,,,,,,,,,,,,,,,,,,,,,,,,,,,,,,,
,,,,,,,,,,1582915,2020-10-22_14h46.09.729,swahili,2020.2.4,MacIntel,60,,,,,,,,,,0.336297607,-0.062382813,1,0,0,1.285145,test_pile,1,0,1,0,1,MERCHANT - TAJIRI,,,,,,,,,,,,,,,,,,,,,,,,,,,,,,,,,,,,,,,,,,,,,,,,,,,,,,,,,,,,,,,,,,,,,,,,,,,,,,,,
,,,,,,,,,,1582915,2020-10-22_14h46.09.729,swahili,2020.2.4,MacIntel,60,,,,,,,,,,-0.179449463,-0.095537109,1,0,0,0.43991,unsorted_card,2,0,2,0,1,,,,,,,,,,,,,,,,,,,,,,,,,,,,,,,,,,,,,,,,,,,,,,,,,,,,,,,,,,,,,,,,,,,,,,,,,,,,,,,,,
,,,,,,,,,,1582915,2020-10-22_14h46.09.729,swahili,2020.2.4,MacIntel,60,,,,,,,,,,0.525201416,-0.464951172,1,0,0,1.3143,done_pile,3,0,3,0,1,PARROT - KASUKU,,,,,,,,,,,,,,,,,,,,,,,,,,,,,,,,,,,,,,,,,,,,,,,,,,,,,,,,,,,,,,,,,,,,,,,,,,,,,,,,
,,,,,,,,,,1582915,2020-10-22_14h46.09.729,swahili,2020.2.4,MacIntel,60,,,,,,,,,,-0.28404541,-0.119267578,1,0,0,0.44882,unsorted_card,4,0,4,0,1,,,,,,,,,,,,,,,,,,,,,,,,,,,,,,,,,,,,,,,,,,,,,,,,,,,,,,,,,,,,,,,,,,,,,,,,,,,,,,,,,
,,,,,,,,,,1582915,2020-10-22_14h46.09.729,swahili,2020.2.4,MacIntel,60,,,,,,,,,,0.31751709,-0.048076172,1,0,0,1.165325,test_pile,5,0,5,0,1,BULL - FAHILI,,,,,,,,,,,,,,,,,,,,,,,,,,,,,,,,,,,,,,,,,,,,,,,,,,,,,,,,,,,,,,,,,,,,,,,,,,,,,,,,
,,,,,,,,,,1582915,2020-10-22_14h46.09.729,swahili,2020.2.4,MacIntel,60,,,,,,,,,,-0.210845947,-0.075478516,1,0,0,0.621755,unsorted_card,6,0,6,0,1,,,,,,,,,,,,,,,,,,,,,,,,,,,,,,,,,,,,,,,,,,,,,,,,,,,,,,,,,,,,,,,,,,,,,,,,,,,,,,,,,
,,,,,,,,,,1582915,2020-10-22_14h46.09.729,swahili,2020.2.4,MacIntel,60,,,,,,,,,,0.456408691,-0.435390625,1,0,0,1.378915,done_pile,7,0,7,0,1,PLATE - SAHANI,,,,,,,,,,,,,,,,,,,,,,,,,,,,,,,,,,,,,,,,,,,,,,,,,,,,,,,,,,,,,,,,,,,,,,,,,,,,,,,,
,,,,,,,,,,1582915,2020-10-22_14h46.09.729,swahili,2020.2.4,MacIntel,60,,,,,,,,,,-0.406274414,-0.002978516,1,0,0,0.47632,unsorted_card,8,0,8,0,1,,,,,,,,,,,,,,,,,,,,,,,,,,,,,,,,,,,,,,,,,,,,,,,,,,,,,,,,,,,,,,,,,,,,,,,,,,,,,,,,,
,,,,,,,,,,1582915,2020-10-22_14h46.09.729,swahili,2020.2.4,MacIntel,60,,,,,,,,,,0.326806641,-0.468964844,1,0,0,1.61797,done_pile,9,0,9,0,1,BLAME - LAWAMA,,,,,,,,,,,,,,,,,,,,,,,,,,,,,,,,,,,,,,,,,,,,,,,,,,,,,,,,,,,,,,,,,,,,,,,,,,,,,,,,
,,,,,,,,,,1582915,2020-10-22_14h46.09.729,swahili,2020.2.4,MacIntel,60,,,,,,,,,,-0.15546875,-0.177607422,1,0,0,0.46332,unsorted_card,10,0,10,0,1,,,,,,,,,,,,,,,,,,,,,,,,,,,,,,,,,,,,,,,,,,,,,,,,,,,,,,,,,,,,,,,,,,,,,,,,,,,,,,,,,
,,,,,,,,,,1582915,2020-10-22_14h46.09.729,swahili,2020.2.4,MacIntel,60,,,,,,,,,,0.361346436,-0.517666016,1,0,0,0.996735,done_pile,11,0,11,0,1,OATH - YAMINI,,,,,,,,,,,,,,,,,,,,,,,,,,,,,,,,,,,,,,,,,,,,,,,,,,,,,,,,,,,,,,,,,,,,,,,,,,,,,,,,
,,,,,,,,,,1582915,2020-10-22_14h46.09.729,swahili,2020.2.4,MacIntel,60,,,,,,,,,,-0.250958252,-0.132207031,1,0,0,0.484275,unsorted_card,12,0,12,0,1,,,,,,,,,,,,,,,,,,,,,,,,,,,,,,,,,,,,,,,,,,,,,,,,,,,,,,,,,,,,,,,,,,,,,,,,,,,,,,,,,
,,,,,,,,,,1582915,2020-10-22_14h46.09.729,swahili,2020.2.4,MacIntel,60,,,,,,,,,,0.407556152,-0.091425781,1,0,0,2.410945,test_pile,13,0,13,0,1,CORN - NAFAKA,,,,,,,,,,,,,,,,,,,,,,,,,,,,,,,,,,,,,,,,,,,,,,,,,,,,,,,,,,,,,,,,,,,,,,,,,,,,,,,,
,,,,,,,,,,1582915,2020-10-22_14h46.09.729,swahili,2020.2.4,MacIntel,60,,,,,,,,,,-0.205865479,-0.174453125,1,0,0,0.46379,unsorted_card,14,0,14,0,1,,,,,,,,,,,,,,,,,,,,,,,,,,,,,,,,,,,,,,,,,,,,,,,,,,,,,,,,,,,,,,,,,,,,,,,,,,,,,,,,,
,,,,,,,,,,1582915,2020-10-22_14h46.09.729,swahili,2020.2.4,MacIntel,60,,,,,,,,,,0.447808838,-0.068613281,1,0,0,1.96011,test_pile,15,0,15,0,1,GRAPES - ZABIBU,,,,,,,,,,,,,,,,,,,,,,,,,,,,,,,,,,,,,,,,,,,,,,,,,,,,,,,,,,,,,,,,,,,,,,,,,,,,,,,,
,,,,,,,,,,1582915,2020-10-22_14h46.09.729,swahili,2020.2.4,MacIntel,60,,,,,,,,,,-0.129315186,-0.112285156,1,0,0,0.576125,unsorted_card,16,0,16,0,1,,,,,,,,,,,,,,,,,,,,,,,,,,,,,,,,,,,,,,,,,,,,,,,,,,,,,,,,,,,,,,,,,,,,,,,,,,,,,,,,,
,,,,,,,,,,1582915,2020-10-22_14h46.09.729,swahili,2020.2.4,MacIntel,60,,,,,,,,,,0.345495605,-0.066865234,1,0,0,1.22784,test_pile,17,0,17,0,1,GRAVE - KABURI,,,,,,,,,,,,,,,,,,,,,,,,,,,,,,,,,,,,,,,,,,,,,,,,,,,,,,,,,,,,,,,,,,,,,,,,,,,,,,,,
,,,,,,,,,,1582915,2020-10-22_14h46.09.729,swahili,2020.2.4,MacIntel,60,,,,,,,,,,-0.17935791,-0.034941406,1,0,0,0.43783,unsorted_card,18,0,18,0,1,,,,,,,,,,,,,,,,,,,,,,,,,,,,,,,,,,,,,,,,,,,,,,,,,,,,,,,,,,,,,,,,,,,,,,,,,,,,,,,,,
,,,,,,,,,,1582915,2020-10-22_14h46.09.729,swahili,2020.2.4,MacIntel,60,,,,,,,,,,0.509332275,-0.049794922,1,0,0,0.70685,test_pile,19,0,19,0,1,MANURE - SAMADI,,,,,,,,,,,,,,,,,,,,,,,,,,,,,,,,,,,,,,,,,,,,,,,,,,,,,,,,,,,,,,,,,,,,,,,,,,,,,,,,
,,,,,,,,,,1582915,2020-10-22_14h46.09.729,swahili,2020.2.4,MacIntel,60,,,,,,,,,,-0.279779053,-0.116113281,1,0,0,0.433285,unsorted_card,20,0,20,0,1,,,,,,,,,,,,,,,,,,,,,,,,,,,,,,,,,,,,,,,,,,,,,,,,,,,,,,,,,,,,,,,,,,,,,,,,,,,,,,,,,
,,,,,,,,,,1582915,2020-10-22_14h46.09.729,swahili,2020.2.4,MacIntel,60,,,,,,,,,,0.523168945,-0.121621094,1,0,0,0.664175,test_pile,21,0,21,0,1,AGENT - WAKILI,,,,,,,,,,,,,,,,,,,,,,,,,,,,,,,,,,,,,,,,,,,,,,,,,,,,,,,,,,,,,,,,,,,,,,,,,,,,,,,,
,,,,,,,,,,1582915,2020-10-22_14h46.09.729,swahili,2020.2.4,MacIntel,60,,,,,,,,,,-0.262640381,-0.167080078,1,0,0,0.381255,unsorted_card,22,0,22,0,1,,,,,,,,,,,,,,,,,,,,,,,,,,,,,,,,,,,,,,,,,,,,,,,,,,,,,,,,,,,,,,,,,,,,,,,,,,,,,,,,,
,,,,,,,,,,1582915,2020-10-22_14h46.09.729,swahili,2020.2.4,MacIntel,60,,,,,,,,,,0.35012207,-0.02296875,1,0,0,0.885765,test_pile,23,0,23,0,1,DIVORCE - TALAKA,,,,,,,,,,,,,,,,,,,,,,,,,,,,,,,,,,,,,,,,,,,,,,,,,,,,,,,,,,,,,,,,,,,,,,,,,,,,,,,,
,,,,,,,,,,1582915,2020-10-22_14h46.09.729,swahili,2020.2.4,MacIntel,60,,,,,,,,,,-0.026226807,-0.044511719,1,0,0,0.39134,unsorted_card,24,0,24,0,1,,,,,,,,,,,,,,,,,,,,,,,,,,,,,,,,,,,,,,,,,,,,,,,,,,,,,,,,,,,,,,,,,,,,,,,,,,,,,,,,,
,,,,,,,,,,1582915,2020-10-22_14h46.09.729,swahili,2020.2.4,MacIntel,60,,,,,,,,,,0.615966797,-0.001455078,1,0,0,0.64252,test_pile,25,0,25,0,1,BOAT - MASHUA,,,,,,,,,,,,,,,,,,,,,,,,,,,,,,,,,,,,,,,,,,,,,,,,,,,,,,,,,,,,,,,,,,,,,,,,,,,,,,,,
,,,,,,,,,,1582915,2020-10-22_14h46.09.729,swahili,2020.2.4,MacIntel,60,,,,,,,,,,-0.314068604,-0.188974609,1,0,0,0.476265,unsorted_card,26,0,26,0,1,,,,,,,,,,,,,,,,,,,,,,,,,,,,,,,,,,,,,,,,,,,,,,,,,,,,,,,,,,,,,,,,,,,,,,,,,,,,,,,,,
,,,,,,,,,,1582915,2020-10-22_14h46.09.729,swahili,2020.2.4,MacIntel,60,,,,,,,,,,0.45390625,-0.118769531,1,0,0,0.77443,test_pile,27,0,27,0,1,TREASURE - DAFINA,,,,,,,,,,,,,,,,,,,,,,,,,,,,,,,,,,,,,,,,,,,,,,,,,,,,,,,,,,,,,,,,,,,,,,,,,,,,,,,,
,,,,,,,,,,1582915,2020-10-22_14h46.09.729,swahili,2020.2.4,MacIntel,60,,,,,,,,,,,,,,,,,,,,,,,,,,,,,,,,,,0,0,0,0,1,,,,,,,,,,,,,,,,,,,,,,,,,,,,,,,,,,,,,,,,,,,,,,,,,,,,,,,,,,,,,,,,
,,,,,,,,,,1582915,2020-10-22_14h46.09.729,swahili,2020.2.4,MacIntel,60,,,,,,,,,,,,,,,,,,,,,,,,,,,,,,,,,,,,,,,return,,,,,,,,,,,0.981545,2.447275,0.45390625,-0.118769531,1,0,0,0.65848,yes,BOAT,MASHUA,incorrect,0,0,0,0,1,,,,,,,,,,,,,,,,,,,,,,,,,,,,,,,,,,,,
,,,,,,,,,,1582915,2020-10-22_14h46.09.729,swahili,2020.2.4,MacIntel,60,,,,,,,,,,,,,,,,,,,,,,,,,,,,,,,,,,,,,,,,,,,,,,,,,,,4.41761,0.45390625,-0.118769531,1,0,0,0.60691,yes,GRAPES,ZABIBU,incorrect,1,0,1,0,1,,,,,,,,,,,,,,,,,,,,,,,,,,,,,,,,,,,,
,,,,,,,,,,1582915,2020-10-22_14h46.09.729,swahili,2020.2.4,MacIntel,60,,,,,,,,,,,,,,,,,,,,,,,,,,,,,,,,,,,,,,,,,,,,,,,,,,,2.344355,0.45390625,-0.118769531,1,0,0,0.50833,yes,BULL,FAHILI,incorrect,2,0,2,0,1,,,,,,,,,,,,,,,,,,,,,,,,,,,,,,,,,,,,
,,,,,,,,,,1582915,2020-10-22_14h46.09.729,swahili,2020.2.4,MacIntel,60,,,,,,,,,,,,,,,,,,,,,,,,,,,,,,,,,,,,,,,,,,,,,,,,,,,3.379395,0.45390625,-0.118769531,1,0,0,0.53707,yes,AGENT,WAKILI,incorrect,3,0,3,0,1,,,,,,,,,,,,,,,,,,,,,,,,,,,,,,,,,,,,
,,,,,,,,,,1582915,2020-10-22_14h46.09.729,swahili,2020.2.4,MacIntel,60,,,,,,,,,,,,,,,,,,,,,,,,,,,,,,,,,,,,,,,,,,,,,,,,,,,2.499775,0.456298828,-0.122539063,1,0,0,0.703145,yes,TREASURE,DAFINA,incorrect,4,0,4,0,1,,,,,,,,,,,,,,,,,,,,,,,,,,,,,,,,,,,,
,,,,,,,,,,1582915,2020-10-22_14h46.09.729,swahili,2020.2.4,MacIntel,60,,,,,,,,,,,,,,,,,,,,,,,,,,,,,,,,,,,,,,,,,,,,,,,,,,,3.47463,0.456298828,-0.122539063,1,0,0,0.46782,yes,GRAVE,KABURI,incorrect,5,0,5,0,1,,,,,,,,,,,,,,,,,,,,,,,,,,,,,,,,,,,,
,,,,,,,,,,1582915,2020-10-22_14h46.09.729,swahili,2020.2.4,MacIntel,60,,,,,,,,,,,,,,,,,,,,,,,,,,,,,,,,,,,,,,,,,,,,,,,,,,,3.18556,0.456298828,-0.122539063,1,0,0,0.6483,yes,DIVORCE,TALAKA,incorrect,6,0,6,0,1,,,,,,,,,,,,,,,,,,,,,,,,,,,,,,,,,,,,
,,,,,,,,,,1582915,2020-10-22_14h46.09.729,swahili,2020.2.4,MacIntel,60,,,,,,,,,,,,,,,,,,,,,,,,,,,,,,,,,,,,,,,,,,,,,,,,,,,2.415985,0.456298828,-0.122539063,1,0,0,0.589005,yes,MANURE,SAMADI,incorrect,7,0,7,0,1,,,,,,,,,,,,,,,,,,,,,,,,,,,,,,,,,,,,
,,,,,,,,,,1582915,2020-10-22_14h46.09.729,swahili,2020.2.4,MacIntel,60,,,,,,,,,,,,,,,,,,,,,,,,,,,,,,,,,,,,,,,,,,,,,,,,,,,6.651325,0.456298828,-0.122539063,1,0,0,0.453475,yes,MERCHANT,TAJIRI,incorrect,8,0,8,0,1,,,,,,,,,,,,,,,,,,,,,,,,,,,,,,,,,,,,
,,,,,,,,,,1582915,2020-10-22_14h46.09.729,swahili,2020.2.4,MacIntel,60,,,,,,,,,,,,,,,,,,,,,,,,,,,,,,,,,,,,,,,,,,,,,,,,,,,2.00407,0.456298828,-0.122539063,1,0,0,0.48654,yes,CORN,NAFAKA,incorrect,9,0,9,0,1,,,,,,,,,,,,,,,,,,,,,,,,,,,,,,,,,,,,
,,,,,,,,,,1582915,2020-10-22_14h46.09.729,swahili,2020.2.4,MacIntel,60,,,,,,,,,,,,,,,,,,,,,,,,,,,,,,,,,,,,,,,,0,0,0,0,1,,,,,,,,,,,,,,,,,,,,,,,,,,,,,,,,,,,,,,,,,,,,,,,,,,,,,,,,,,
,,,,,,,,,,1582915,2020-10-22_14h46.09.729,swahili,2020.2.4,MacIntel,60,,,,,,,,,,,,,,,,,,,,,,,,,,,,,,,,,,,,,,,,1,0,1,0,1,,,,,,,,,,,,,,,,,,,,,,,,,,,,,,,,,,,,,,,,,,,,,,,,,,,,,,,,,,
,,,,,,,,,,1582915,2020-10-22_14h46.09.729,swahili,2020.2.4,MacIntel,60,,,,,,,,,,,,,,,,,,,,,,,,,,,,,,,,,,,,,,,,,,,,,5,0,5,0,1,,,,,,,,,,,,,,,,,,,,,,,,,,,,,,,,,,,,,,,,,,,,,,,,,,,,,
,,,,,,,,,,1582915,2020-10-22_14h46.09.729,swahili,2020.2.4,MacIntel,60,,,,,,,,,,-0.184448242,-0.025107422,1,0,0,1.19169,unsorted_card,0,0,0,0,1,,,,,,,,,,,,,,,,,,,,,,,,,,,,,,,,,,,,,,,,,,,,,,,,,,,,,,,,,,,,,,,,,,,,,,,,,,,,,,,,,
,,,,,,,,,,1582915,2020-10-22_14h46.09.729,swahili,2020.2.4,MacIntel,60,,,,,,,,,,0.533233643,-0.491396484,1,0,0,1.601085,done_pile,1,0,1,0,1,MERCHANT - TAJIRI,,,,,,,,,,,,,,,,,,,,,,,,,,,,,,,,,,,,,,,,,,,,,,,,,,,,,,,,,,,,,,,,,,,,,,,,,,,,,,,,
,,,,,,,,,,1582915,2020-10-22_14h46.09.729,swahili,2020.2.4,MacIntel,60,,,,,,,,,,-0.338604736,-0.168876953,1,0,0,0.46574,unsorted_card,2,0,2,0,1,,,,,,,,,,,,,,,,,,,,,,,,,,,,,,,,,,,,,,,,,,,,,,,,,,,,,,,,,,,,,,,,,,,,,,,,,,,,,,,,,
,,,,,,,,,,1582915,2020-10-22_14h46.09.729,swahili,2020.2.4,MacIntel,60,,,,,,,,,,0.51987915,-0.011484375,1,0,0,1.64401,test_pile,3,0,3,0,1,BULL - FAHILI,,,,,,,,,,,,,,,,,,,,,,,,,,,,,,,,,,,,,,,,,,,,,,,,,,,,,,,,,,,,,,,,,,,,,,,,,,,,,,,,
,,,,,,,,,,1582915,2020-10-22_14h46.09.729,swahili,2020.2.4,MacIntel,60,,,,,,,,,,-0.264105225,-0.090947266,1,0,0,0.42152,unsorted_card,4,0,4,0,1,,,,,,,,,,,,,,,,,,,,,,,,,,,,,,,,,,,,,,,,,,,,,,,,,,,,,,,,,,,,,,,,,,,,,,,,,,,,,,,,,
,,,,,,,,,,1582915,2020-10-22_14h46.09.729,swahili,2020.2.4,MacIntel,60,,,,,,,,,,0.400598145,-0.496044922,1,0,0,1.261665,done_pile,5,0,5,0,1,CORN - NAFAKA,,,,,,,,,,,,,,,,,,,,,,,,,,,,,,,,,,,,,,,,,,,,,,,,,,,,,,,,,,,,,,,,,,,,,,,,,,,,,,,,
,,,,,,,,,,1582915,2020-10-22_14h46.09.729,swahili,2020.2.4,MacIntel,60,,,,,,,,,,-0.257794189,-0.028017578,1,0,0,1.471045,unsorted_card,6,0,6,0,1,,,,,,,,,,,,,,,,,,,,,,,,,,,,,,,,,,,,,,,,,,,,,,,,,,,,,,,,,,,,,,,,,,,,,,,,,,,,,,,,,
,,,,,,,,,,1582915,2020-10-22_14h46.09.729,swahili,2020.2.4,MacIntel,60,,,,,,,,,,0.420123291,-0.567646484,1,0,0,2.42886,done_pile,7,0,7,0,1,GRAPES - ZABIBU,,,,,,,,,,,,,,,,,,,,,,,,,,,,,,,,,,,,,,,,,,,,,,,,,,,,,,,,,,,,,,,,,,,,,,,,,,,,,,,,
,,,,,,,,,,1582915,2020-10-22_14h46.09.729,swahili,2020.2.4,MacIntel,60,,,,,,,,,,-0.224621582,-0.2490625,1,0,0,0.515945,unsorted_card,8,0,8,0,1,,,,,,,,,,,,,,,,,,,,,,,,,,,,,,,,,,,,,,,,,,,,,,,,,,,,,,,,,,,,,,,,,,,,,,,,,,,,,,,,,
,,,,,,,,,,1582915,2020-10-22_14h46.09.729,swahili,2020.2.4,MacIntel,60,,,,,,,,,,0.393554688,-0.522060547,1,0,0,1.51402,done_pile,9,0,9,0,1,GRAVE - KABURI,,,,,,,,,,,,,,,,,,,,,,,,,,,,,,,,,,,,,,,,,,,,,,,,,,,,,,,,,,,,,,,,,,,,,,,,,,,,,,,,
,,,,,,,,,,1582915,2020-10-22_14h46.09.729,swahili,2020.2.4,MacIntel,60,,,,,,,,,,-0.313378906,-0.004707031,1,0,0,0.653375,unsorted_card,10,0,10,0,1,,,,,,,,,,,,,,,,,,,,,,,,,,,,,,,,,,,,,,,,,,,,,,,,,,,,,,,,,,,,,,,,,,,,,,,,,,,,,,,,,
,,,,,,,,,,1582915,2020-10-22_14h46.09.729,swahili,2020.2.4,MacIntel,60,,,,,,,,,,0.453613281,-0.549042969,1,0,0,1.395565,done_pile,11,0,11,0,1,MANURE - SAMADI,,,,,,,,,,,,,,,,,,,,,,,,,,,,,,,,,,,,,,,,,,,,,,,,,,,,,,,,,,,,,,,,,,,,,,,,,,,,,,,,
,,,,,,,,,,1582915,2020-10-22_14h46.09.729,swahili,2020.2.4,MacIntel,60,,,,,,,,,,-0.30791626,-0.189238281,1,0,0,0.5856,unsorted_card,12,0,12,0,1,,,,,,,,,,,,,,,,,,,,,,,,,,,,,,,,,,,,,,,,,,,,,,,,,,,,,,,,,,,,,,,,,,,,,,,,,,,,,,,,,
,,,,,,,,,,1582915,2020-10-22_14h46.09.729,swahili,2020.2.4,MacIntel,60,,,,,,,,,,0.370159912,-0.570957031,1,0,0,1.045455,done_pile,13,0,13,0,1,AGENT - WAKILI,,,,,,,,,,,,,,,,,,,,,,,,,,,,,,,,,,,,,,,,,,,,,,,,,,,,,,,,,,,,,,,,,,,,,,,,,,,,,,,,
,,,,,,,,,,1582915,2020-10-22_14h46.09.729,swahili,2020.2.4,MacIntel,60,,,,,,,,,,-0.235211182,-0.039912109,1,0,0,0.492315,unsorted_card,14,0,14,0,1,,,,,,,,,,,,,,,,,,,,,,,,,,,,,,,,,,,,,,,,,,,,,,,,,,,,,,,,,,,,,,,,,,,,,,,,,,,,,,,,,
,,,,,,,,,,1582915,2020-10-22_14h46.09.729,swahili,2020.2.4,MacIntel,60,,,,,,,,,,0.438000488,-0.509345703,1,0,0,0.940935,done_pile,15,0,15,0,1,DIVORCE - TALAKA,,,,,,,,,,,,,,,,,,,,,,,,,,,,,,,,,,,,,,,,,,,,,,,,,,,,,,,,,,,,,,,,,,,,,,,,,,,,,,,,
,,,,,,,,,,1582915,2020-10-22_14h46.09.729,swahili,2020.2.4,MacIntel,60,,,,,,,,,,-0.254962158,-0.119267578,1,0,0,0.530135,unsorted_card,16,0,16,0,1,,,,,,,,,,,,,,,,,,,,,,,,,,,,,,,,,,,,,,,,,,,,,,,,,,,,,,,,,,,,,,,,,,,,,,,,,,,,,,,,,
,,,,,,,,,,1582915,2020-10-22_14h46.09.729,swahili,2020.2.4,MacIntel,60,,,,,,,,,,0.377362061,-0.590576172,1,0,0,1.30975,done_pile,17,0,17,0,1,BOAT - MASHUA,,,,,,,,,,,,,,,,,,,,,,,,,,,,,,,,,,,,,,,,,,,,,,,,,,,,,,,,,,,,,,,,,,,,,,,,,,,,,,,,
,,,,,,,,,,1582915,2020-10-22_14h46.09.729,swahili,2020.2.4,MacIntel,60,,,,,,,,,,-0.253308105,-0.19234375,1,0,0,0.456815,unsorted_card,18,0,18,0,1,,,,,,,,,,,,,,,,,,,,,,,,,,,,,,,,,,,,,,,,,,,,,,,,,,,,,,,,,,,,,,,,,,,,,,,,,,,,,,,,,
,,,,,,,,,,1582915,2020-10-22_14h46.09.729,swahili,2020.2.4,MacIntel,60,,,,,,,,,,0.342236328,-0.536669922,1,0,0,1.368755,done_pile,19,0,19,0,1,TREASURE - DAFINA,,,,,,,,,,,,,,,,,,,,,,,,,,,,,,,,,,,,,,,,,,,,,,,,,,,,,,,,,,,,,,,,,,,,,,,,,,,,,,,,
,,,,,,,,,,1582915,2020-10-22_14h46.09.729,swahili,2020.2.4,MacIntel,60,,,,,,,,,,,,,,,,,,,,,,,,,,,,,,,,,,0,0,0,0,1,,,,,,,,,,,,,,,,,,,,,,,,,,,,,,,,,,,,,,,,,,,,,,,,,,,,,,,,,,,,,,,,
,,,,,,,,,,1582915,2020-10-22_14h46.09.729,swahili,2020.2.4,MacIntel,60,,,,,,,,,,,,,,,,,,,,,,,,,,,,,,,,,,,,,,,return,,,,,,,,,,,0.867475,2.84981,0.439044189,0.081669922,1,0,0,0.79789,yes,BULL,FAHILI,incorrect,0,0,0,0,1,,,,,,,,,,,,,,,,,,,,,,,,,,,,,,,,,,,,
,,,,,,,,,,1582915,2020-10-22_14h46.09.729,swahili,2020.2.4,MacIntel,60,,,,,,,,,,,,,,,,,,,,,,,,,,,,,,,,,,,,,,,,0,0,0,0,1,,,,,,,,,,,,,,,,,,,,,,,,,,,,,,,,,,,,,,,,,,,,,,,,,,,,,,,,,,
,,,,,,,,,,1582915,2020-10-22_14h46.09.729,swahili,2020.2.4,MacIntel,60,,,,,,,,,,,,,,,,,,,,,,,,,,,,,,,,,,,,,,,,1,0,1,0,1,,,,,,,,,,,,,,,,,,,,,,,,,,,,,,,,,,,,,,,,,,,,,,,,,,,,,,,,,,
,,,,,,,,,,1582915,2020-10-22_14h46.09.729,swahili,2020.2.4,MacIntel,60,,,,,,,,,,,,,,,,,,,,,,,,,,,,,,,,,,,,,,,,,,,,,6,0,6,0,1,,,,,,,,,,,,,,,,,,,,,,,,,,,,,,,,,,,,,,,,,,,,,,,,,,,,,
,,,,,,,,,,1582915,2020-10-22_14h46.09.729,swahili,2020.2.4,MacIntel,60,,,,,,,,,,-0.205780029,-0.070097656,1,0,0,1.00007,unsorted_card,0,0,0,0,1,,,,,,,,,,,,,,,,,,,,,,,,,,,,,,,,,,,,,,,,,,,,,,,,,,,,,,,,,,,,,,,,,,,,,,,,,,,,,,,,,
,,,,,,,,,,1582915,2020-10-22_14h46.09.729,swahili,2020.2.4,MacIntel,60,,,,,,,,,,0.374078369,-0.50109375,1,0,0,0.617025,done_pile,1,0,1,0,1,BULL - FAHILI,,,,,,,,,,,,,,,,,,,,,,,,,,,,,,,,,,,,,,,,,,,,,,,,,,,,,,,,,,,,,,,,,,,,,,,,,,,,,,,,
,,,,,,,,,,1582915,2020-10-22_14h46.09.729,swahili,2020.2.4,MacIntel,60,,,,,,,,,,,,,,,,,,,,,,,,,,,,,,,,,,,,,,,,0,0,0,0,1,,,,,,,,,,,,,,,,,,,,,,,,,,,,,,,,,,,,,,,,,,,,,,,,,,,,,,,,,,
,,,,,,,,,,1582915,2020-10-22_14h46.09.729,swahili,2020.2.4,MacIntel,60,,,,,,,,,,,,,,,,,,,,,,,,,,,,,,,,,,,,,,,,1,0,1,0,1,,,,,,,,,,,,,,,,,,,,,,,,,,,,,,,,,,,,,,,,,,,,,,,,,,,,,,,,,,
,,,,,,,,,,1582915,2020-10-22_14h46.09.729,swahili,2020.2.4,MacIntel,60,,,,,,,,TALAKA,DIVORCE,,,,,,,,,,,,,,,,,,,,,,,,,,,,,,,,,,,,,,,,,,4.04904,,,,,,,,,TALAKA,correct,,,,,,return,7.364085,return,1.48884,return,5.95539,0,0,0,17,1,,,,,,,,,,,,,,,,,,,,,,,,,
,,,,,,,,,,1582915,2020-10-22_14h46.09.729,swahili,2020.2.4,MacIntel,60,,,,,,,,NAFAKA,CORN,,,,,,,,,,,,,,,,,,,,,,,,,,,,,,,,,,,,,,,,,,2.37275,,,,,,,,,NAFAKA,correct,,,,,,,,,,,,0,1,1,7,1,,,,,,,,,,,,,,,,,,,,,,,,,
,,,,,,,,,,1582915,2020-10-22_14h46.09.729,swahili,2020.2.4,MacIntel,60,,,,,,,,DAFINA,TREASURE,,,,,,,,,,,,,,,,,,,,,,,,,,,,,,,,,,,,,,,,,,2.67112,,,,,,,,,DAFINA,correct,,,,,,,,,,,,0,2,2,19,1,,,,,,,,,,,,,,,,,,,,,,,,,
,,,,,,,,,,1582915,2020-10-22_14h46.09.729,swahili,2020.2.4,MacIntel,60,,,,,,,,JIBINI,CHEESE,,,,,,,,,,,,,,,,,,,,,,,,,,,,,,,,,,,,,,,,,,6.867715,,,,,,,,,JIBINI,correct,,,,,,,,,,,,0,3,3,10,1,,,,,,,,,,,,,,,,,,,,,,,,,
,,,,,,,,,,1582915,2020-10-22_14h46.09.729,swahili,2020.2.4,MacIntel,60,,,,,,,,UTENZI,POEM,,,,,,,,,,,,,,,,,,,,,,,,,,,,,,,,,,,,,,,,,,17.31457,,,,,,,,,UTENZI,correct,,,,,,,,,,,,0,4,4,8,1,,,,,,,,,,,,,,,,,,,,,,,,,
,,,,,,,,,,1582915,2020-10-22_14h46.09.729,swahili,2020.2.4,MacIntel,60,,,,,,,,KABURI,GRAVE,,,,,,,,,,,,,,,,,,,,,,,,,,,,,,,,,,,,,,,,,,2.697095,,,,,,,,,KABURI,correct,,,,,,,,,,,,0,5,5,12,1,,,,,,,,,,,,,,,,,,,,,,,,,
,,,,,,,,,,1582915,2020-10-22_14h46.09.729,swahili,2020.2.4,MacIntel,60,,,,,,,,YATIMA,ORPHAN,,,,,,,,,,,,,,,,,,,,,,,,,,,,,,,,,,,,,,,,,,2.1616,,,,,,,,,YATIMA,correct,,,,,,,,,,,,0,6,6,16,1,,,,,,,,,,,,,,,,,,,,,,,,,
,,,,,,,,,,1582915,2020-10-22_14h46.09.729,swahili,2020.2.4,MacIntel,60,,,,,,,,WAKILI,AGENT,,,,,,,,,,,,,,,,,,,,,,,,,,,,,,,,,,,,,,,,,,3.26055,,,,,,,,,WAKILI,correct,,,,,,,,,,,,0,7,7,14,1,,,,,,,,,,,,,,,,,,,,,,,,,
,,,,,,,,,,1582915,2020-10-22_14h46.09.729,swahili,2020.2.4,MacIntel,60,,,,,,,,ZABIBU,GRAPES,,,,,,,,,,,,,,,,,,,,,,,,,,,,,,,,,,,,,,,,,,4.32391,,,,,,,,,ZABIBU,correct,,,,,,,,,,,,0,8,8,11,1,,,,,,,,,,,,,,,,,,,,,,,,,
,,,,,,,,,,1582915,2020-10-22_14h46.09.729,swahili,2020.2.4,MacIntel,60,,,,,,,,YAMINI,OATH,,,,,,,,,,,,,,,,,,,,,,,,,,,,,,,,,,,,,,,,,,3.548805,,,,,,,,,YAMINI,correct,,,,,,,,,,,,0,9,9,6,1,,,,,,,,,,,,,,,,,,,,,,,,,
,,,,,,,,,,1582915,2020-10-22_14h46.09.729,swahili,2020.2.4,MacIntel,60,,,,,,,,LAWAMA,BLAME,,,,,,,,,,,,,,,,,,,,,,,,,,,,,,,,,,,,,,,,,,12.596365,,,,,,,,,LAWAMA,correct,,,,,,,,,,,,0,10,10,5,1,,,,,,,,,,,,,,,,,,,,,,,,,
,,,,,,,,,,1582915,2020-10-22_14h46.09.729,swahili,2020.2.4,MacIntel,60,,,,,,,,KASUKU,PARROT,,,,,,,,,,,,,,,,,,,,,,,,,,,,,,,,,,,,,,,,,,2.209695,,,,,,,,,KASUKU,correct,,,,,,,,,,,,0,11,11,1,1,,,,,,,,,,,,,,,,,,,,,,,,,
,,,,,,,,,,1582915,2020-10-22_14h46.09.729,swahili,2020.2.4,MacIntel,60,,,,,,,,RUSHWA,BRIBE,,,,,,,,,,,,,,,,,,,,,,,,,,,,,,,,,,,,,,,,,,2.96448,,,,,,,,,RUSHWA,correct,,,,,,,,,,,,0,12,12,15,1,,,,,,,,,,,,,,,,,,,,,,,,,
,,,,,,,,,,1582915,2020-10-22_14h46.09.729,swahili,2020.2.4,MacIntel,60,,,,,,,,FAHILI,BULL,,,,,,,,,,,,,,,,,,,,,,,,,,,,,,,,,,,,,,,,,,2.10049,,,,,,,,,FAHILI,correct,,,,,,,,,,,,0,13,13,2,1,,,,,,,,,,,,,,,,,,,,,,,,,
,,,,,,,,,,1582915,2020-10-22_14h46.09.729,swahili,2020.2.4,MacIntel,60,,,,,,,,SAMADI,MANURE,,,,,,,,,,,,,,,,,,,,,,,,,,,,,,,,,,,,,,,,,,2.551515,,,,,,,,,SAMADI,correct,,,,,,,,,,,,0,14,14,13,1,,,,,,,,,,,,,,,,,,,,,,,,,
,,,,,,,,,,1582915,2020-10-22_14h46.09.729,swahili,2020.2.4,MacIntel,60,,,,,,,,SAHANI,PLATE,,,,,,,,,,,,,,,,,,,,,,,,,,,,,,,,,,,,,,,,,,2.299605,,,,,,,,,SAHANI,correct,,,,,,,,,,,,0,15,15,3,1,,,,,,,,,,,,,,,,,,,,,,,,,
,,,,,,,,,,1582915,2020-10-22_14h46.09.729,swahili,2020.2.4,MacIntel,60,,,,,,,,TAJIRI,MERCHANT,,,,,,,,,,,,,,,,,,,,,,,,,,,,,,,,,,,,,,,,,,3.55125,,,,,,,,,TAJIRI,correct,,,,,,,,,,,,0,16,16,0,1,,,,,,,,,,,,,,,,,,,,,,,,,
,,,,,,,,,,1582915,2020-10-22_14h46.09.729,swahili,2020.2.4,MacIntel,60,,,,,,,,HAMIRA,YEAST,,,,,,,,,,,,,,,,,,,,,,,,,,,,,,,,,,,,,,,,,,3.4446,,,,,,,,,HAMIRA,correct,,,,,,,,,,,,0,17,17,4,1,,,,,,,,,,,,,,,,,,,,,,,,,
,,,,,,,,,,1582915,2020-10-22_14h46.09.729,swahili,2020.2.4,MacIntel,60,,,,,,,,MASHUA,BOAT,,,,,,,,,,,,,,,,,,,,,,,,,,,,,,,,,,,,,,,,,,2.064185,,,,,,,,,MASHUA,correct,,,,,,,,,,,,0,18,18,18,1,,,,,,,,,,,,,,,,,,,,,,,,,
,,,,,,,,,,1582915,2020-10-22_14h46.09.729,swahili,2020.2.4,MacIntel,60,,,,,,,,MSHONI,TAILOR,,,,,,,,,,,,,,,,,,,,,,,,,,,,,,,,,,,,,,,,,,2.825215,,,,,,,,,MSHONI,correct,,,,,,,,,,,,0,19,19,9,1,,,,,,,,,,,,,,,,,,,,,,,,,
,,,,,,,,,,1582915,2020-10-22_14h46.09.729,swahili,2020.2.4,MacIntel,60,,,,,,,,,,,,,,,,,,,,,,,,,,,,,,,,,,,,,,,,,,,,,,,,,,,,,,,,,,,,,,,,,,,,,,,,,,,,,,0,0,0,0,1,I bought all my goods from the ____ at the market. ,TAJIRI,,,,,,,,,,,,,,,,,,
,,,,,,,,,,1582915,2020-10-22_14h46.09.729,swahili,2020.2.4,MacIntel,60,,,,,,,,,,,,,,,,,,,,,,,,,,,,,,,,,,,,,,,,,,,,,,,,,,,,,,,,,,,,,,,,,,,,,,,,,,,,,,0,1,1,1,1,The ____ is a bird that can learn to repeat words.,KASUKU,,,,,,,,,,,,,,,,,,
,,,,,,,,,,1582915,2020-10-22_14h46.09.729,swahili,2020.2.4,MacIntel,60,,,,,,,,,,,,,,,,,,,,,,,,,,,,,,,,,,,,,,,,,,,,,,,,,,,,,,,,,,,,,,,,,,,,,,,,,,,,,,0,2,2,2,1,The ____ charged the matador's red cape. ,FAHILI,,,,,,,,,,,,,,,,,,
,,,,,,,,,,1582915,2020-10-22_14h46.09.729,swahili,2020.2.4,MacIntel,60,,,,,,,,,,,,,,,,,,,,,,,,,,,,,,,,,,,,,,,,,,,,,,,,,,,,,,,,,,,,,,,,,,,,,,,,,,,,,,0,3,3,3,1,I filled my ____ with food at the buffet. ,SAHANI,,,,,,,,,,,,,,,,,,
,,,,,,,,,,1582915,2020-10-22_14h46.09.729,swahili,2020.2.4,MacIntel,60,,,,,,,,,,,,,,,,,,,,,,,,,,,,,,,,,,,,,,,,,,,,,,,,,,,,,,,,,,,,,,,,,,,,,,,,,,,,,,0,4,4,4,1,_____ makes bread rise. ,HAMIRA,,,,,,,,,,,,,,,,,,
,,,,,,,,,,1582915,2020-10-22_14h46.09.729,swahili,2020.2.4,MacIntel,60,,,,,,,,,,,,,,,,,,,,,,,,,,,,,,,,,,,,,,,,,,,,,,,,,,,,,,,,,,,,,,,,,,,,,,,,,,,,,,0,5,5,5,1,Shannon had no one else to  ____ for what happened.,LAWAMA,,,,,,,,,,,,,,,,,,
,,,,,,,,,,1582915,2020-10-22_14h46.09.729,swahili,2020.2.4,MacIntel,60,,,,,,,,,,,,,,,,,,,,,,,,,,,,,,,,,,,,,,,,,,,,,,,,,,,,,,,,,,,,,,,,,,,,,,,,,,,,,,0,6,6,6,1,The president takes the  ____ of office to uphold the Constitution.,YAMINI,,,,,,,,,,,,,,,,,,
,,,,,,,,,,1582915,2020-10-22_14h46.09.729,swahili,2020.2.4,MacIntel,60,,,,,,,,,,,,,,,,,,,,,,,,,,,,,,,,,,,,,,,,,,,,,,,,,,,,,,,,,,,,,,,,,,,,,,,,,,,,,,0,7,7,7,1,Kate doesn't like ____ on the cob because it gets stuck between her teeth. ,NAFAKA,,,,,,,,,,,,,,,,,,
,,,,,,,,,,1582915,2020-10-22_14h46.09.729,swahili,2020.2.4,MacIntel,60,,,,,,,,,,,,,,,,,,,,,,,,,,,,,,,,,,,,,,,,,,,,,,,,,,,,,,,,,,,,,,,,,,,,,,,,,,,,,,0,8,8,8,1,David wrote Cynthia a romantic ____  but she thought it rhymed too much.,UTENZI,,,,,,,,,,,,,,,,,,
,,,,,,,,,,1582915,2020-10-22_14h46.09.729,swahili,2020.2.4,MacIntel,60,,,,,,,,,,,,,,,,,,,,,,,,,,,,,,,,,,,,,,,,,,,,,,,,,,,,,,,,,,,,,,,,,,,,,,,,,,,,,,0,9,9,9,1,Charles went to the ____ to get his suit adjusted. ,MSHONI,,,,,,,,,,,,,,,,,,
,,,,,,,,,,1582915,2020-10-22_14h46.09.729,swahili,2020.2.4,MacIntel,60,,,,,,,,,,,,,,,,,,,,,,,,,,,,,,,,,,,,,,,,,,,,,,,,,,,,,,,,,,,,,,,,,,,,,,,,,,,,,,0,10,10,10,1,Amy cooked a grilled ____ sandwich to go with her tomato soup.,JIBINI,,,,,,,,,,,,,,,,,,
,,,,,,,,,,1582915,2020-10-22_14h46.09.729,swahili,2020.2.4,MacIntel,60,,,,,,,,,,,,,,,,,,,,,,,,,,,,,,,,,,,,,,,,,,,,,,,,,,,,,,,,,,,,,,,,,,,,,,,,,,,,,,0,11,11,11,1,Fermented _______ are used to make wine.,ZABIBU,,,,,,,,,,,,,,,,,,
,,,,,,,,,,1582915,2020-10-22_14h46.09.729,swahili,2020.2.4,MacIntel,60,,,,,,,,,,,,,,,,,,,,,,,,,,,,,,,,,,,,,,,,,,,,,,,,,,,,,,,,,,,,,,,,,,,,,,,,,,,,,,0,12,12,12,1,She visited her father's ___ on the anniversary of his death. ,KABURI,,,,,,,,,,,,,,,,,,
,,,,,,,,,,1582915,2020-10-22_14h46.09.729,swahili,2020.2.4,MacIntel,60,,,,,,,,,,,,,,,,,,,,,,,,,,,,,,,,,,,,,,,,,,,,,,,,,,,,,,,,,,,,,,,,,,,,,,,,,,,,,,0,13,13,13,1,"On a farm, there is a good chance you will step into a pile of ______.",SAMADI,,,,,,,,,,,,,,,,,,
,,,,,,,,,,1582915,2020-10-22_14h46.09.729,swahili,2020.2.4,MacIntel,60,,,,,,,,,,,,,,,,,,,,,,,,,,,,,,,,,,,,,,,,,,,,,,,,,,,,,,,,,,,,,,,,,,,,,,,,,,,,,,0,14,14,14,1,"To buy a house, you may need to speak with a real estate ______.",WAKILI,,,,,,,,,,,,,,,,,,
,,,,,,,,,,1582915,2020-10-22_14h46.09.729,swahili,2020.2.4,MacIntel,60,,,,,,,,,,,,,,,,,,,,,,,,,,,,,,,,,,,,,,,,,,,,,,,,,,,,,,,,,,,,,,,,,,,,,,,,,,,,,,0,15,15,15,1,The politician was arrested for taking a _____.,RUSHWA,,,,,,,,,,,,,,,,,,
,,,,,,,,,,1582915,2020-10-22_14h46.09.729,swahili,2020.2.4,MacIntel,60,,,,,,,,,,,,,,,,,,,,,,,,,,,,,,,,,,,,,,,,,,,,,,,,,,,,,,,,,,,,,,,,,,,,,,,,,,,,,,0,16,16,16,1,The _____ is living with foster parents.,YATIMA,,,,,,,,,,,,,,,,,,
,,,,,,,,,,1582915,2020-10-22_14h46.09.729,swahili,2020.2.4,MacIntel,60,,,,,,,,,,,,,,,,,,,,,,,,,,,,,,,,,,,,,,,,,,,,,,,,,,,,,,,,,,,,,,,,,,,,,,,,,,,,,,0,17,17,17,1,My aunt and uncle got a _________ after two years of marriage.,TALAKA,,,,,,,,,,,,,,,,,,
,,,,,,,,,,1582915,2020-10-22_14h46.09.729,swahili,2020.2.4,MacIntel,60,,,,,,,,,,,,,,,,,,,,,,,,,,,,,,,,,,,,,,,,,,,,,,,,,,,,,,,,,,,,,,,,,,,,,,,,,,,,,,0,18,18,18,1,You need a ______ to go fishing in the middle of a lake.,MASHUA,,,,,,,,,,,,,,,,,,
,,,,,,,,,,1582915,2020-10-22_14h46.09.729,swahili,2020.2.4,MacIntel,60,,,,,,,,,,,,,,,,,,,,,,,,,,,,,,,,,,,,,,,,,,,,,,,,,,,,,,,,,,,,,,,,,,,,,,,,,,,,,,0,19,19,19,1,Pirates looked for buried _________ at the bottom of the sea.,DAFINA,,,,,,,,,,,,,,,,,,
,,,,,,,,,,1582915,2020-10-22_14h46.09.729,swahili,2020.2.4,MacIntel,60,,,,,,,,,,,,,,,,,,,,,,,,,,,,,,,,,,,,,,,,,,,,,,,,,,,,,,,,,,,,,,,,,,,,,,,,,,,,,,,,,,,She visited her father's ___ on the anniversary of his death. ,KABURI,return,2.854725,KABURI,correct,0.060266113,-0.457626953,1,0,0,3.385425,b,0,0,0,12,1,,
,,,,,,,,,,1582915,2020-10-22_14h46.09.729,swahili,2020.2.4,MacIntel,60,,,,,,,,,,,,,,,,,,,,,,,,,,,,,,,,,,,,,,,,,,,,,,,,,,,,,,,,,,,,,,,,,,,,,,,,,,,,,,,,,,,The ____ charged the matador's red cape. ,FAHILI,,,FAHILI,correct,-0.023553467,-0.534306641,1,0,0,3.2314,b,0,1,1,2,1,,
,,,,,,,,,,1582915,2020-10-22_14h46.09.729,swahili,2020.2.4,MacIntel,60,,,,,,,,,,,,,,,,,,,,,,,,,,,,,,,,,,,,,,,,,,,,,,,,,,,,,,,,,,,,,,,,,,,,,,,,,,,,,,,,,,,"To buy a house, you may need to speak with a real estate ______.",WAKILI,,,WAKILI,correct,0.494763184,-0.394873047,1,0,0,3.734135,c,0,2,2,14,1,,
,,,,,,,,,,1582915,2020-10-22_14h46.09.729,swahili,2020.2.4,MacIntel,60,,,,,,,,,,,,,,,,,,,,,,,,,,,,,,,,,,,,,,,,,,,,,,,,,,,,,,,,,,,,,,,,,,,,,,,,,,,,,,,,,,,_____ makes bread rise. ,HAMIRA,,,HAMIRA,correct,0.066400146,-0.527568359,1,0,0,2.101635,b,0,3,3,4,1,,
