condition,consent_key.keys,consent_key.rt,done_with_instructions.keys,done_with_instructions.rt,instr_loop.thisRepN,instr_loop.thisTrialN,instr_loop.thisN,instr_loop.thisIndex,instr_loop.ran,Student ID #,date,expName,psychopyVersion,OS,frameRate,instr_learning_key.keys,instr_learning_key.rt,card_gen_loop.thisRepN,card_gen_loop.thisTrialN,card_gen_loop.thisN,card_gen_loop.thisIndex,card_gen_loop.ran,swa,eng,choose_pile.x,choose_pile.y,choose_pile.leftButton,choose_pile.midButton,choose_pile.rightButton,choose_pile.time,choose_pile.clicked_name,choices.thisRepN,choices.thisTrialN,choices.thisN,choices.thisIndex,choices.ran,card_to_show,mouse_pick.x,mouse_pick.y,mouse_pick.leftButton,mouse_pick.midButton,mouse_pick.rightButton,mouse_pick.time,mouse_pick.clicked_name,key_instr_study.keys,key_instr_test.keys,learn_loop.thisRepN,learn_loop.thisTrialN,learn_loop.thisN,learn_loop.thisIndex,learn_loop.ran,instr_movie_key.keys,instr_movie_key.rt,return_to_exp.keys,return_to_exp.rt,instr_assess_key.keys,instr_assess_key.rt,test_response.resp,test_response.eval,duration,assess_loop.thisRepN,assess_loop.thisTrialN,assess_loop.thisN,assess_loop.thisIndex,assess_loop.ran
1,return,1.445365,return,0.642065,0,0,0,0,1,00001591679,2020-10-25_22h55.51.451,swahili,2020.2.4,MacIntel,60,,,,,,,,,,,,,,,,,,,,,,,,,,,,,,,,,,,,,,,,,,,,,,,,,,
,,,,,,,,,,00001591679,2020-10-25_22h55.51.451,swahili,2020.2.4,MacIntel,60,return,6.798435,0,0,0,0,1,TAJIRI,MERCHANT,,,,,,,,,,,,,,,,,,,,,,,,,,,,,,,,,,,,,,,,,
,,,,,,,,,,00001591679,2020-10-25_22h55.51.451,swahili,2020.2.4,MacIntel,60,,,0,1,1,1,1,KASUKU,PARROT,,,,,,,,,,,,,,,,,,,,,,,,,,,,,,,,,,,,,,,,,
,,,,,,,,,,00001591679,2020-10-25_22h55.51.451,swahili,2020.2.4,MacIntel,60,,,0,2,2,2,1,FAHILI,BULL,,,,,,,,,,,,,,,,,,,,,,,,,,,,,,,,,,,,,,,,,
,,,,,,,,,,00001591679,2020-10-25_22h55.51.451,swahili,2020.2.4,MacIntel,60,,,0,3,3,3,1,SAHANI,PLATE,,,,,,,,,,,,,,,,,,,,,,,,,,,,,,,,,,,,,,,,,
,,,,,,,,,,00001591679,2020-10-25_22h55.51.451,swahili,2020.2.4,MacIntel,60,,,0,4,4,4,1,HAMIRA,YEAST,,,,,,,,,,,,,,,,,,,,,,,,,,,,,,,,,,,,,,,,,
,,,,,,,,,,00001591679,2020-10-25_22h55.51.451,swahili,2020.2.4,MacIntel,60,,,0,5,5,5,1,LAWAMA,BLAME,,,,,,,,,,,,,,,,,,,,,,,,,,,,,,,,,,,,,,,,,
,,,,,,,,,,00001591679,2020-10-25_22h55.51.451,swahili,2020.2.4,MacIntel,60,,,0,6,6,6,1,YAMINI,OATH,,,,,,,,,,,,,,,,,,,,,,,,,,,,,,,,,,,,,,,,,
,,,,,,,,,,00001591679,2020-10-25_22h55.51.451,swahili,2020.2.4,MacIntel,60,,,0,7,7,7,1,NAFAKA,CORN,,,,,,,,,,,,,,,,,,,,,,,,,,,,,,,,,,,,,,,,,
,,,,,,,,,,00001591679,2020-10-25_22h55.51.451,swahili,2020.2.4,MacIntel,60,,,0,8,8,8,1,UTENZI,POEM,,,,,,,,,,,,,,,,,,,,,,,,,,,,,,,,,,,,,,,,,
,,,,,,,,,,00001591679,2020-10-25_22h55.51.451,swahili,2020.2.4,MacIntel,60,,,0,9,9,9,1,MSHONI,TAILOR,,,,,,,,,,,,,,,,,,,,,,,,,,,,,,,,,,,,,,,,,
,,,,,,,,,,00001591679,2020-10-25_22h55.51.451,swahili,2020.2.4,MacIntel,60,,,0,10,10,10,1,JIBINI,CHEESE,,,,,,,,,,,,,,,,,,,,,,,,,,,,,,,,,,,,,,,,,
,,,,,,,,,,00001591679,2020-10-25_22h55.51.451,swahili,2020.2.4,MacIntel,60,,,0,11,11,11,1,ZABIBU,GRAPES,,,,,,,,,,,,,,,,,,,,,,,,,,,,,,,,,,,,,,,,,
,,,,,,,,,,00001591679,2020-10-25_22h55.51.451,swahili,2020.2.4,MacIntel,60,,,0,12,12,12,1,KABURI,GRAVE,,,,,,,,,,,,,,,,,,,,,,,,,,,,,,,,,,,,,,,,,
,,,,,,,,,,00001591679,2020-10-25_22h55.51.451,swahili,2020.2.4,MacIntel,60,,,0,13,13,13,1,SAMADI,MANURE,,,,,,,,,,,,,,,,,,,,,,,,,,,,,,,,,,,,,,,,,
,,,,,,,,,,00001591679,2020-10-25_22h55.51.451,swahili,2020.2.4,MacIntel,60,,,0,14,14,14,1,WAKILI,AGENT,,,,,,,,,,,,,,,,,,,,,,,,,,,,,,,,,,,,,,,,,
,,,,,,,,,,00001591679,2020-10-25_22h55.51.451,swahili,2020.2.4,MacIntel,60,,,0,15,15,15,1,RUSHWA,BRIBE,,,,,,,,,,,,,,,,,,,,,,,,,,,,,,,,,,,,,,,,,
,,,,,,,,,,00001591679,2020-10-25_22h55.51.451,swahili,2020.2.4,MacIntel,60,,,0,16,16,16,1,YATIMA,ORPHAN,,,,,,,,,,,,,,,,,,,,,,,,,,,,,,,,,,,,,,,,,
,,,,,,,,,,00001591679,2020-10-25_22h55.51.451,swahili,2020.2.4,MacIntel,60,,,0,17,17,17,1,TALAKA,DIVORCE,,,,,,,,,,,,,,,,,,,,,,,,,,,,,,,,,,,,,,,,,
,,,,,,,,,,00001591679,2020-10-25_22h55.51.451,swahili,2020.2.4,MacIntel,60,,,0,18,18,18,1,MASHUA,BOAT,,,,,,,,,,,,,,,,,,,,,,,,,,,,,,,,,,,,,,,,,
,,,,,,,,,,00001591679,2020-10-25_22h55.51.451,swahili,2020.2.4,MacIntel,60,,,0,19,19,19,1,DAFINA,TREASURE,,,,,,,,,,,,,,,,,,,,,,,,,,,,,,,,,,,,,,,,,
,,,,,,,,,,00001591679,2020-10-25_22h55.51.451,swahili,2020.2.4,MacIntel,60,,,,,,,,,,-0.225412326,0.182265625,1,0,0,0.78695,unsorted_card,0,0,0,0,1,,,,,,,,,,,,,,,,,,,,,,,,,,,,,
,,,,,,,,,,00001591679,2020-10-25_22h55.51.451,swahili,2020.2.4,MacIntel,60,,,,,,,,,,0.377723524,-0.338003472,1,0,0,0.59802,unsorted_card,1,0,1,0,1,MERCHANT - TAJIRI,,,,,,,,,,,,,,,,,,,,,,,,,,,,
,,,,,,,,,,00001591679,2020-10-25_22h55.51.451,swahili,2020.2.4,MacIntel,60,,,,,,,,,,0.511290148,-0.609270833,1,0,0,0.61639,done_pile,2,0,2,0,1,MERCHANT - TAJIRI,,,,,,,,,,,,,,,,,,,,,,,,,,,,
,,,,,,,,,,00001591679,2020-10-25_22h55.51.451,swahili,2020.2.4,MacIntel,60,,,,,,,,,,-0.15897895,-0.120538194,1,0,0,0.482175,unsorted_card,3,0,3,0,1,,,,,,,,,,,,,,,,,,,,,,,,,,,,,
,,,,,,,,,,00001591679,2020-10-25_22h55.51.451,swahili,2020.2.4,MacIntel,60,,,,,,,,,,0.375743273,-0.448203125,1,0,0,0.4971,done_pile,4,0,4,0,1,PARROT - KASUKU,,,,,,,,,,,,,,,,,,,,,,,,,,,,
,,,,,,,,,,00001591679,2020-10-25_22h55.51.451,swahili,2020.2.4,MacIntel,60,,,,,,,,,,-0.362982856,0.059236111,1,0,0,0.479845,unsorted_card,5,0,5,0,1,,,,,,,,,,,,,,,,,,,,,,,,,,,,,
,,,,,,,,,,00001591679,2020-10-25_22h55.51.451,swahili,2020.2.4,MacIntel,60,,,,,,,,,,0.400021701,-0.447569444,1,0,0,0.54915,done_pile,6,0,6,0,1,BULL - FAHILI,,,,,,,,,,,,,,,,,,,,,,,,,,,,
,,,,,,,,,,00001591679,2020-10-25_22h55.51.451,swahili,2020.2.4,MacIntel,60,,,,,,,,,,-0.433539497,-0.129322917,1,0,0,0.480525,unsorted_card,7,0,7,0,1,,,,,,,,,,,,,,,,,,,,,,,,,,,,,
,,,,,,,,,,00001591679,2020-10-25_22h55.51.451,swahili,2020.2.4,MacIntel,60,,,,,,,,,,0.515315755,-0.603723958,1,0,0,0.582425,done_pile,8,0,8,0,1,PLATE - SAHANI,,,,,,,,,,,,,,,,,,,,,,,,,,,,
,,,,,,,,,,00001591679,2020-10-25_22h55.51.451,swahili,2020.2.4,MacIntel,60,,,,,,,,,,-0.155577257,-0.276901042,1,0,0,0.49638,done_pile,9,0,9,0,1,,,,,,,,,,,,,,,,,,,,,,,,,,,,,
,,,,,,,,,,00001591679,2020-10-25_22h55.51.451,swahili,2020.2.4,MacIntel,60,,,,,,,,,,-0.300075955,-0.083654514,1,0,0,0.44959,unsorted_card,10,0,10,0,1,,,,,,,,,,,,,,,,,,,,,,,,,,,,,
,,,,,,,,,,00001591679,2020-10-25_22h55.51.451,swahili,2020.2.4,MacIntel,60,,,,,,,,,,0.56296658,-0.463420139,1,0,0,0.564525,done_pile,11,0,11,0,1,YEAST - HAMIRA,,,,,,,,,,,,,,,,,,,,,,,,,,,,
,,,,,,,,,,00001591679,2020-10-25_22h55.51.451,swahili,2020.2.4,MacIntel,60,,,,,,,,,,-0.256857639,-0.072717014,1,0,0,0.515,unsorted_card,12,0,12,0,1,,,,,,,,,,,,,,,,,,,,,,,,,,,,,
,,,,,,,,,,00001591679,2020-10-25_22h55.51.451,swahili,2020.2.4,MacIntel,60,,,,,,,,,,0.430815972,-0.507916667,1,0,0,0.59892,done_pile,13,0,13,0,1,BLAME - LAWAMA,,,,,,,,,,,,,,,,,,,,,,,,,,,,
,,,,,,,,,,00001591679,2020-10-25_22h55.51.451,swahili,2020.2.4,MacIntel,60,,,,,,,,,,-0.210709635,-0.138333333,1,0,0,0.513715,unsorted_card,14,0,14,0,1,,,,,,,,,,,,,,,,,,,,,,,,,,,,,
,,,,,,,,,,00001591679,2020-10-25_22h55.51.451,swahili,2020.2.4,MacIntel,60,,,,,,,,,,0.498220486,-0.505295139,1,0,0,0.81506,done_pile,15,0,15,0,1,OATH - YAMINI,,,,,,,,,,,,,,,,,,,,,,,,,,,,
,,,,,,,,,,00001591679,2020-10-25_22h55.51.451,swahili,2020.2.4,MacIntel,60,,,,,,,,,,-0.456434462,-0.089947917,1,0,0,0.665435,unsorted_card,16,0,16,0,1,,,,,,,,,,,,,,,,,,,,,,,,,,,,,
,,,,,,,,,,00001591679,2020-10-25_22h55.51.451,swahili,2020.2.4,MacIntel,60,,,,,,,,,,0.421880425,-0.558567708,1,0,0,0.69935,done_pile,17,0,17,0,1,CORN - NAFAKA,,,,,,,,,,,,,,,,,,,,,,,,,,,,
,,,,,,,,,,00001591679,2020-10-25_22h55.51.451,swahili,2020.2.4,MacIntel,60,,,,,,,,,,-0.080674913,-0.1925,1,0,0,0.51334,unsorted_card,18,0,18,0,1,,,,,,,,,,,,,,,,,,,,,,,,,,,,,
,,,,,,,,,,00001591679,2020-10-25_22h55.51.451,swahili,2020.2.4,MacIntel,60,,,,,,,,,,0.509803602,-0.445772569,1,0,0,0.549475,done_pile,19,0,19,0,1,POEM - UTENZI,,,,,,,,,,,,,,,,,,,,,,,,,,,,
,,,,,,,,,,00001591679,2020-10-25_22h55.51.451,swahili,2020.2.4,MacIntel,60,,,,,,,,,,-0.341834852,-0.201875,1,0,0,0.431335,unsorted_card,20,0,20,0,1,,,,,,,,,,,,,,,,,,,,,,,,,,,,,
,,,,,,,,,,00001591679,2020-10-25_22h55.51.451,swahili,2020.2.4,MacIntel,60,,,,,,,,,,0.475200738,-0.525911458,1,0,0,0.462795,done_pile,21,0,21,0,1,TAILOR - MSHONI,,,,,,,,,,,,,,,,,,,,,,,,,,,,
,,,,,,,,,,00001591679,2020-10-25_22h55.51.451,swahili,2020.2.4,MacIntel,60,,,,,,,,,,-0.400759549,0.134071181,1,0,0,0.414155,unsorted_card,22,0,22,0,1,,,,,,,,,,,,,,,,,,,,,,,,,,,,,
,,,,,,,,,,00001591679,2020-10-25_22h55.51.451,swahili,2020.2.4,MacIntel,60,,,,,,,,,,0.62772895,-0.413854167,1,0,0,0.48171,done_pile,23,0,23,0,1,CHEESE - JIBINI,,,,,,,,,,,,,,,,,,,,,,,,,,,,
,,,,,,,,,,00001591679,2020-10-25_22h55.51.451,swahili,2020.2.4,MacIntel,60,,,,,,,,,,-0.250726997,0.078055556,1,0,0,0.481115,unsorted_card,24,0,24,0,1,,,,,,,,,,,,,,,,,,,,,,,,,,,,,
,,,,,,,,,,00001591679,2020-10-25_22h55.51.451,swahili,2020.2.4,MacIntel,60,,,,,,,,,,0.337879774,-0.458975694,1,0,0,0.59905,done_pile,25,0,25,0,1,GRAPES - ZABIBU,,,,,,,,,,,,,,,,,,,,,,,,,,,,
,,,,,,,,,,00001591679,2020-10-25_22h55.51.451,swahili,2020.2.4,MacIntel,60,,,,,,,,,,-0.149392361,-0.067196181,1,0,0,0.463425,unsorted_card,26,0,26,0,1,,,,,,,,,,,,,,,,,,,,,,,,,,,,,
,,,,,,,,,,00001591679,2020-10-25_22h55.51.451,swahili,2020.2.4,MacIntel,60,,,,,,,,,,0.319249132,-0.438619792,1,0,0,0.63045,done_pile,27,0,27,0,1,GRAVE - KABURI,,,,,,,,,,,,,,,,,,,,,,,,,,,,
,,,,,,,,,,00001591679,2020-10-25_22h55.51.451,swahili,2020.2.4,MacIntel,60,,,,,,,,,,-0.128244358,-0.1721875,1,0,0,0.545885,unsorted_card,28,0,28,0,1,,,,,,,,,,,,,,,,,,,,,,,,,,,,,
,,,,,,,,,,00001591679,2020-10-25_22h55.51.451,swahili,2020.2.4,MacIntel,60,,,,,,,,,,0.405251736,-0.470651042,1,0,0,0.53172,done_pile,29,0,29,0,1,MANURE - SAMADI,,,,,,,,,,,,,,,,,,,,,,,,,,,,
,,,,,,,,,,00001591679,2020-10-25_22h55.51.451,swahili,2020.2.4,MacIntel,60,,,,,,,,,,-0.063812934,-0.164340278,1,0,0,0.546555,done_pile,30,0,30,0,1,,,,,,,,,,,,,,,,,,,,,,,,,,,,,
,,,,,,,,,,00001591679,2020-10-25_22h55.51.451,swahili,2020.2.4,MacIntel,60,,,,,,,,,,-0.153884549,-0.057317708,1,0,0,0.516135,unsorted_card,31,0,31,0,1,,,,,,,,,,,,,,,,,,,,,,,,,,,,,
,,,,,,,,,,00001591679,2020-10-25_22h55.51.451,swahili,2020.2.4,MacIntel,60,,,,,,,,,,0.437489149,-0.704730903,1,0,0,0.58136,done_pile,32,0,32,0,1,AGENT - WAKILI,,,,,,,,,,,,,,,,,,,,,,,,,,,,
,,,,,,,,,,00001591679,2020-10-25_22h55.51.451,swahili,2020.2.4,MacIntel,60,,,,,,,,,,-0.273101128,0.092456597,1,0,0,1.03115,unsorted_card,33,0,33,0,1,,,,,,,,,,,,,,,,,,,,,,,,,,,,,
,,,,,,,,,,00001591679,2020-10-25_22h55.51.451,swahili,2020.2.4,MacIntel,60,,,,,,,,,,0.469010417,-0.642708333,1,0,0,0.6808,done_pile,34,0,34,0,1,BRIBE - RUSHWA,,,,,,,,,,,,,,,,,,,,,,,,,,,,
,,,,,,,,,,00001591679,2020-10-25_22h55.51.451,swahili,2020.2.4,MacIntel,60,,,,,,,,,,-0.175146484,-0.118663194,1,0,0,0.54819,unsorted_card,35,0,35,0,1,,,,,,,,,,,,,,,,,,,,,,,,,,,,,
,,,,,,,,,,00001591679,2020-10-25_22h55.51.451,swahili,2020.2.4,MacIntel,60,,,,,,,,,,0.384787326,-0.535234375,1,0,0,0.51378,done_pile,36,0,36,0,1,ORPHAN - YATIMA,,,,,,,,,,,,,,,,,,,,,,,,,,,,
,,,,,,,,,,00001591679,2020-10-25_22h55.51.451,swahili,2020.2.4,MacIntel,60,,,,,,,,,,-0.087006293,-0.067404514,1,0,0,0.56073,unsorted_card,37,0,37,0,1,,,,,,,,,,,,,,,,,,,,,,,,,,,,,
,,,,,,,,,,00001591679,2020-10-25_22h55.51.451,swahili,2020.2.4,MacIntel,60,,,,,,,,,,0.417529297,-0.549279514,1,0,0,0.56527,done_pile,38,0,38,0,1,DIVORCE - TALAKA,,,,,,,,,,,,,,,,,,,,,,,,,,,,
,,,,,,,,,,00001591679,2020-10-25_22h55.51.451,swahili,2020.2.4,MacIntel,60,,,,,,,,,,-0.251584201,0.010321181,1,0,0,0.56399,unsorted_card,39,0,39,0,1,,,,,,,,,,,,,,,,,,,,,,,,,,,,,
,,,,,,,,,,00001591679,2020-10-25_22h55.51.451,swahili,2020.2.4,MacIntel,60,,,,,,,,,,0.467789714,-0.533307292,1,0,0,0.51472,done_pile,40,0,40,0,1,BOAT - MASHUA,,,,,,,,,,,,,,,,,,,,,,,,,,,,
,,,,,,,,,,00001591679,2020-10-25_22h55.51.451,swahili,2020.2.4,MacIntel,60,,,,,,,,,,-0.119992405,-0.12921875,1,0,0,0.54768,unsorted_card,41,0,41,0,1,,,,,,,,,,,,,,,,,,,,,,,,,,,,,
,,,,,,,,,,00001591679,2020-10-25_22h55.51.451,swahili,2020.2.4,MacIntel,60,,,,,,,,,,0.487152778,-0.606944444,1,0,0,0.596615,done_pile,42,0,42,0,1,TREASURE - DAFINA,,,,,,,,,,,,,,,,,,,,,,,,,,,,
,,,,,,,,,,00001591679,2020-10-25_22h55.51.451,swahili,2020.2.4,MacIntel,60,,,,,,,,,,,,,,,,,,,,,,,,,,,,,,,,0,0,0,0,1,,,,,,,,,,,,,,
,,,,,,,,,,00001591679,2020-10-25_22h55.51.451,swahili,2020.2.4,MacIntel,60,,,,,,,,,,,,,,,,,,,,,,,,,,,,,,,,1,0,1,0,1,,,,,,,,,,,,,,
,,,,,,,,,,00001591679,2020-10-25_22h55.51.451,swahili,2020.2.4,MacIntel,60,,,,,,,,KABURI,GRAVE,,,,,,,,,,,,,,,,,,,,,,,,,,,,return,7.56255,return,2.888565,return,7.72721,KABURI,correct,211.988195,0,0,0,12,1
,,,,,,,,,,00001591679,2020-10-25_22h55.51.451,swahili,2020.2.4,MacIntel,60,,,,,,,,NAFAKA,CORN,,,,,,,,,,,,,,,,,,,,,,,,,,,,,,,,,,MAHINDI,incorrect,24.747635,0,1,1,7,1
,,,,,,,,,,00001591679,2020-10-25_22h55.51.451,swahili,2020.2.4,MacIntel,60,,,,,,,,YAMINI,OATH,,,,,,,,,,,,,,,,,,,,,,,,,,,,,,,,,,KIAPO,incorrect,24.07987,0,2,2,6,1
