condition,consent_key.keys,consent_key.rt,done_with_instructions.keys,done_with_instructions.rt,instr_loop.thisRepN,instr_loop.thisTrialN,instr_loop.thisN,instr_loop.thisIndex,instr_loop.ran,Student ID #,date,expName,psychopyVersion,OS,frameRate,instr_learning_key.keys,instr_learning_key.rt,card_gen_loop.thisRepN,card_gen_loop.thisTrialN,card_gen_loop.thisN,card_gen_loop.thisIndex,card_gen_loop.ran,swa,eng,choose_pile.x,choose_pile.y,choose_pile.leftButton,choose_pile.midButton,choose_pile.rightButton,choose_pile.time,choose_pile.clicked_name,choices.thisRepN,choices.thisTrialN,choices.thisN,choices.thisIndex,choices.ran,card_to_show,mouse_pick.x,mouse_pick.y,mouse_pick.leftButton,mouse_pick.midButton,mouse_pick.rightButton,mouse_pick.time,mouse_pick.clicked_name,key_instr_study.keys,key_instr_study.rt,next_study.keys,next_study.rt,study_loop.thisRepN,study_loop.thisTrialN,study_loop.thisN,study_loop.thisIndex,study_loop.ran,key_instr_test.keys,learn_loop.thisRepN,learn_loop.thisTrialN,learn_loop.thisN,learn_loop.thisIndex,learn_loop.ran,trials.thisRepN,trials.thisTrialN,trials.thisN,trials.thisIndex,trials.ran,key_instr_test.rt,duration,yes_or_no.x,yes_or_no.y,yes_or_no.leftButton,yes_or_no.midButton,yes_or_no.rightButton,yes_or_no.time,yes_or_no.clicked_name,test_response.stim,test_response.resp,test_response.eval,test_loop.thisRepN,test_loop.thisTrialN,test_loop.thisN,test_loop.thisIndex,test_loop.ran
2,return,33.646525,return,14.012945,0,0,0,0,1,W1448234,2020-10-18_15h57.23.754,swahili,2020.2.4,MacIntel,60,,,,,,,,,,,,,,,,,,,,,,,,,,,,,,,,,,,,,,,,,,,,,,,,,,,,,,,,,,,,,,,,,,
,,,return,5.415335,1,0,1,0,1,W1448234,2020-10-18_15h57.23.754,swahili,2020.2.4,MacIntel,60,,,,,,,,,,,,,,,,,,,,,,,,,,,,,,,,,,,,,,,,,,,,,,,,,,,,,,,,,,,,,,,,,,
,,,,,,,,,,W1448234,2020-10-18_15h57.23.754,swahili,2020.2.4,MacIntel,60,return,73.68714,0,0,0,0,1,TAJIRI,MERCHANT,,,,,,,,,,,,,,,,,,,,,,,,,,,,,,,,,,,,,,,,,,,,,,,,,,,,,,,,,
,,,,,,,,,,W1448234,2020-10-18_15h57.23.754,swahili,2020.2.4,MacIntel,60,,,0,1,1,1,1,KASUKU,PARROT,,,,,,,,,,,,,,,,,,,,,,,,,,,,,,,,,,,,,,,,,,,,,,,,,,,,,,,,,
,,,,,,,,,,W1448234,2020-10-18_15h57.23.754,swahili,2020.2.4,MacIntel,60,,,0,2,2,2,1,FAHILI,BULL,,,,,,,,,,,,,,,,,,,,,,,,,,,,,,,,,,,,,,,,,,,,,,,,,,,,,,,,,
,,,,,,,,,,W1448234,2020-10-18_15h57.23.754,swahili,2020.2.4,MacIntel,60,,,0,3,3,3,1,SAHANI,PLATE,,,,,,,,,,,,,,,,,,,,,,,,,,,,,,,,,,,,,,,,,,,,,,,,,,,,,,,,,
,,,,,,,,,,W1448234,2020-10-18_15h57.23.754,swahili,2020.2.4,MacIntel,60,,,0,4,4,4,1,HAMIRA,YEAST,,,,,,,,,,,,,,,,,,,,,,,,,,,,,,,,,,,,,,,,,,,,,,,,,,,,,,,,,
,,,,,,,,,,W1448234,2020-10-18_15h57.23.754,swahili,2020.2.4,MacIntel,60,,,0,5,5,5,1,LAWAMA,BLAME,,,,,,,,,,,,,,,,,,,,,,,,,,,,,,,,,,,,,,,,,,,,,,,,,,,,,,,,,
,,,,,,,,,,W1448234,2020-10-18_15h57.23.754,swahili,2020.2.4,MacIntel,60,,,0,6,6,6,1,YAMINI,OATH,,,,,,,,,,,,,,,,,,,,,,,,,,,,,,,,,,,,,,,,,,,,,,,,,,,,,,,,,
,,,,,,,,,,W1448234,2020-10-18_15h57.23.754,swahili,2020.2.4,MacIntel,60,,,0,7,7,7,1,NAFAKA,CORN,,,,,,,,,,,,,,,,,,,,,,,,,,,,,,,,,,,,,,,,,,,,,,,,,,,,,,,,,
,,,,,,,,,,W1448234,2020-10-18_15h57.23.754,swahili,2020.2.4,MacIntel,60,,,0,8,8,8,1,UTENZI,POEM,,,,,,,,,,,,,,,,,,,,,,,,,,,,,,,,,,,,,,,,,,,,,,,,,,,,,,,,,
,,,,,,,,,,W1448234,2020-10-18_15h57.23.754,swahili,2020.2.4,MacIntel,60,,,0,9,9,9,1,MSHONI,TAILOR,,,,,,,,,,,,,,,,,,,,,,,,,,,,,,,,,,,,,,,,,,,,,,,,,,,,,,,,,
,,,,,,,,,,W1448234,2020-10-18_15h57.23.754,swahili,2020.2.4,MacIntel,60,,,0,10,10,10,1,JIBINI,CHEESE,,,,,,,,,,,,,,,,,,,,,,,,,,,,,,,,,,,,,,,,,,,,,,,,,,,,,,,,,
,,,,,,,,,,W1448234,2020-10-18_15h57.23.754,swahili,2020.2.4,MacIntel,60,,,0,11,11,11,1,ZABIBU,GRAPES,,,,,,,,,,,,,,,,,,,,,,,,,,,,,,,,,,,,,,,,,,,,,,,,,,,,,,,,,
,,,,,,,,,,W1448234,2020-10-18_15h57.23.754,swahili,2020.2.4,MacIntel,60,,,0,12,12,12,1,KABURI,GRAVE,,,,,,,,,,,,,,,,,,,,,,,,,,,,,,,,,,,,,,,,,,,,,,,,,,,,,,,,,
,,,,,,,,,,W1448234,2020-10-18_15h57.23.754,swahili,2020.2.4,MacIntel,60,,,0,13,13,13,1,SAMADI,MANURE,,,,,,,,,,,,,,,,,,,,,,,,,,,,,,,,,,,,,,,,,,,,,,,,,,,,,,,,,
,,,,,,,,,,W1448234,2020-10-18_15h57.23.754,swahili,2020.2.4,MacIntel,60,,,0,14,14,14,1,WAKILI,AGENT,,,,,,,,,,,,,,,,,,,,,,,,,,,,,,,,,,,,,,,,,,,,,,,,,,,,,,,,,
,,,,,,,,,,W1448234,2020-10-18_15h57.23.754,swahili,2020.2.4,MacIntel,60,,,0,15,15,15,1,RUSHWA,BRIBE,,,,,,,,,,,,,,,,,,,,,,,,,,,,,,,,,,,,,,,,,,,,,,,,,,,,,,,,,
,,,,,,,,,,W1448234,2020-10-18_15h57.23.754,swahili,2020.2.4,MacIntel,60,,,0,16,16,16,1,YATIMA,ORPHAN,,,,,,,,,,,,,,,,,,,,,,,,,,,,,,,,,,,,,,,,,,,,,,,,,,,,,,,,,
,,,,,,,,,,W1448234,2020-10-18_15h57.23.754,swahili,2020.2.4,MacIntel,60,,,0,17,17,17,1,TALAKA,DIVORCE,,,,,,,,,,,,,,,,,,,,,,,,,,,,,,,,,,,,,,,,,,,,,,,,,,,,,,,,,
,,,,,,,,,,W1448234,2020-10-18_15h57.23.754,swahili,2020.2.4,MacIntel,60,,,0,18,18,18,1,MASHUA,BOAT,,,,,,,,,,,,,,,,,,,,,,,,,,,,,,,,,,,,,,,,,,,,,,,,,,,,,,,,,
,,,,,,,,,,W1448234,2020-10-18_15h57.23.754,swahili,2020.2.4,MacIntel,60,,,0,19,19,19,1,DAFINA,TREASURE,,,,,,,,,,,,,,,,,,,,,,,,,,,,,,,,,,,,,,,,,,,,,,,,,,,,,,,,,
,,,,,,,,,,W1448234,2020-10-18_15h57.23.754,swahili,2020.2.4,MacIntel,60,,,,,,,,,,-0.59749349,0.002408517,1,0,0,10.761395,unsorted_card,0,0,0,0,1,,,,,,,,,,,,,,,,,,,,,,,,,,,,,,,,,,,,,,,,,,,,,
,,,,,,,,,,W1448234,2020-10-18_15h57.23.754,swahili,2020.2.4,MacIntel,60,,,,,,,,,,0.465152995,0.429576182,1,0,0,4.48854,study_pile,1,0,1,0,1,MERCHANT - TAJIRI,,,,,,,,,,,,,,,,,,,,,,,,,,,,,,,,,,,,,,,,,,,,
,,,,,,,,,,W1448234,2020-10-18_15h57.23.754,swahili,2020.2.4,MacIntel,60,,,,,,,,,,-0.211192491,-0.135119819,1,0,0,1.586105,unsorted_card,2,0,2,0,1,,,,,,,,,,,,,,,,,,,,,,,,,,,,,,,,,,,,,,,,,,,,,
,,,,,,,,,,W1448234,2020-10-18_15h57.23.754,swahili,2020.2.4,MacIntel,60,,,,,,,,,,0.477886285,0.463902607,1,0,0,3.255225,study_pile,3,0,3,0,1,PARROT - KASUKU,,,,,,,,,,,,,,,,,,,,,,,,,,,,,,,,,,,,,,,,,,,,
,,,,,,,,,,W1448234,2020-10-18_15h57.23.754,swahili,2020.2.4,MacIntel,60,,,,,,,,,,-0.267041016,-0.039750648,1,0,0,1.081015,unsorted_card,4,0,4,0,1,,,,,,,,,,,,,,,,,,,,,,,,,,,,,,,,,,,,,,,,,,,,,
,,,,,,,,,,W1448234,2020-10-18_15h57.23.754,swahili,2020.2.4,MacIntel,60,,,,,,,,,,0.587196181,0.382529145,1,0,0,2.79058,study_pile,5,0,5,0,1,BULL - FAHILI,,,,,,,,,,,,,,,,,,,,,,,,,,,,,,,,,,,,,,,,,,,,
,,,,,,,,,,W1448234,2020-10-18_15h57.23.754,swahili,2020.2.4,MacIntel,60,,,,,,,,,,-0.284054905,-0.148376781,1,0,0,1.08255,unsorted_card,6,0,6,0,1,,,,,,,,,,,,,,,,,,,,,,,,,,,,,,,,,,,,,,,,,,,,,
,,,,,,,,,,W1448234,2020-10-18_15h57.23.754,swahili,2020.2.4,MacIntel,60,,,,,,,,,,0.623372396,0.442286674,1,0,0,2.621945,study_pile,7,0,7,0,1,PLATE - SAHANI,,,,,,,,,,,,,,,,,,,,,,,,,,,,,,,,,,,,,,,,,,,,
,,,,,,,,,,W1448234,2020-10-18_15h57.23.754,swahili,2020.2.4,MacIntel,60,,,,,,,,,,-0.309581163,-0.092980894,1,0,0,1.63446,unsorted_card,8,0,8,0,1,,,,,,,,,,,,,,,,,,,,,,,,,,,,,,,,,,,,,,,,,,,,,
,,,,,,,,,,W1448234,2020-10-18_15h57.23.754,swahili,2020.2.4,MacIntel,60,,,,,,,,,,0.61178928,0.490912403,1,0,0,3.338725,study_pile,9,0,9,0,1,YEAST - HAMIRA,,,,,,,,,,,,,,,,,,,,,,,,,,,,,,,,,,,,,,,,,,,,
,,,,,,,,,,W1448234,2020-10-18_15h57.23.754,swahili,2020.2.4,MacIntel,60,,,,,,,,,,-0.253233507,0.015372005,1,0,0,2.42012,unsorted_card,10,0,10,0,1,,,,,,,,,,,,,,,,,,,,,,,,,,,,,,,,,,,,,,,,,,,,,
,,,,,,,,,,W1448234,2020-10-18_15h57.23.754,swahili,2020.2.4,MacIntel,60,,,,,,,,,,0.535894097,0.397354679,1,0,0,3.857005,study_pile,11,0,11,0,1,BLAME - LAWAMA,,,,,,,,,,,,,,,,,,,,,,,,,,,,,,,,,,,,,,,,,,,,
,,,,,,,,,,W1448234,2020-10-18_15h57.23.754,swahili,2020.2.4,MacIntel,60,,,,,,,,,,-0.418012153,-0.14339783,1,0,0,1.132425,unsorted_card,12,0,12,0,1,,,,,,,,,,,,,,,,,,,,,,,,,,,,,,,,,,,,,,,,,,,,,
,,,,,,,,,,W1448234,2020-10-18_15h57.23.754,swahili,2020.2.4,MacIntel,60,,,,,,,,,,0.629926215,0.467525502,1,0,0,1.43466,study_pile,13,0,13,0,1,OATH - YAMINI,,,,,,,,,,,,,,,,,,,,,,,,,,,,,,,,,,,,,,,,,,,,
,,,,,,,,,,W1448234,2020-10-18_15h57.23.754,swahili,2020.2.4,MacIntel,60,,,,,,,,,,-0.549164497,-0.162827882,1,0,0,0.867335,unsorted_card,14,0,14,0,1,,,,,,,,,,,,,,,,,,,,,,,,,,,,,,,,,,,,,,,,,,,,,
,,,,,,,,,,W1448234,2020-10-18_15h57.23.754,swahili,2020.2.4,MacIntel,60,,,,,,,,,,0.43366428,0.485791775,1,0,0,2.3867,study_pile,15,0,15,0,1,CORN - NAFAKA,,,,,,,,,,,,,,,,,,,,,,,,,,,,,,,,,,,,,,,,,,,,
,,,,,,,,,,W1448234,2020-10-18_15h57.23.754,swahili,2020.2.4,MacIntel,60,,,,,,,,,,-0.375987413,-0.107826668,1,0,0,0.834135,unsorted_card,16,0,16,0,1,,,,,,,,,,,,,,,,,,,,,,,,,,,,,,,,,,,,,,,,,,,,,
,,,,,,,,,,W1448234,2020-10-18_15h57.23.754,swahili,2020.2.4,MacIntel,60,,,,,,,,,,0.53648546,0.50391637,1,0,0,2.017435,study_pile,17,0,17,0,1,POEM - UTENZI,,,,,,,,,,,,,,,,,,,,,,,,,,,,,,,,,,,,,,,,,,,,
,,,,,,,,,,W1448234,2020-10-18_15h57.23.754,swahili,2020.2.4,MacIntel,60,,,,,,,,,,-0.273887804,-0.016434585,1,0,0,0.632245,unsorted_card,18,0,18,0,1,,,,,,,,,,,,,,,,,,,,,,,,,,,,,,,,,,,,,,,,,,,,,
,,,,,,,,,,W1448234,2020-10-18_15h57.23.754,swahili,2020.2.4,MacIntel,60,,,,,,,,,,0.625217014,0.485741176,1,0,0,1.849935,study_pile,19,0,19,0,1,TAILOR - MSHONI,,,,,,,,,,,,,,,,,,,,,,,,,,,,,,,,,,,,,,,,,,,,
,,,,,,,,,,W1448234,2020-10-18_15h57.23.754,swahili,2020.2.4,MacIntel,60,,,,,,,,,,-0.192154948,0.063937014,1,0,0,0.91824,unsorted_card,20,0,20,0,1,,,,,,,,,,,,,,,,,,,,,,,,,,,,,,,,,,,,,,,,,,,,,
,,,,,,,,,,W1448234,2020-10-18_15h57.23.754,swahili,2020.2.4,MacIntel,60,,,,,,,,,,0.649777561,0.443723688,1,0,0,1.585925,study_pile,21,0,21,0,1,CHEESE - JIBINI,,,,,,,,,,,,,,,,,,,,,,,,,,,,,,,,,,,,,,,,,,,,
,,,,,,,,,,W1448234,2020-10-18_15h57.23.754,swahili,2020.2.4,MacIntel,60,,,,,,,,,,-0.360253906,-0.151331768,1,0,0,0.74919,unsorted_card,22,0,22,0,1,,,,,,,,,,,,,,,,,,,,,,,,,,,,,,,,,,,,,,,,,,,,,
,,,,,,,,,,W1448234,2020-10-18_15h57.23.754,swahili,2020.2.4,MacIntel,60,,,,,,,,,,0.633371311,0.399277445,1,0,0,1.368145,study_pile,23,0,23,0,1,GRAPES - ZABIBU,,,,,,,,,,,,,,,,,,,,,,,,,,,,,,,,,,,,,,,,,,,,
,,,,,,,,,,W1448234,2020-10-18_15h57.23.754,swahili,2020.2.4,MacIntel,60,,,,,,,,,,-0.264046224,0.12611318,1,0,0,0.75187,unsorted_card,24,0,24,0,1,,,,,,,,,,,,,,,,,,,,,,,,,,,,,,,,,,,,,,,,,,,,,
,,,,,,,,,,W1448234,2020-10-18_15h57.23.754,swahili,2020.2.4,MacIntel,60,,,,,,,,,,0.655050998,0.432622247,1,0,0,1.517795,study_pile,25,0,25,0,1,GRAVE - KABURI,,,,,,,,,,,,,,,,,,,,,,,,,,,,,,,,,,,,,,,,,,,,
,,,,,,,,,,W1448234,2020-10-18_15h57.23.754,swahili,2020.2.4,MacIntel,60,,,,,,,,,,-0.274555122,-0.001578692,1,0,0,0.899485,unsorted_card,26,0,26,0,1,,,,,,,,,,,,,,,,,,,,,,,,,,,,,,,,,,,,,,,,,,,,,
,,,,,,,,,,W1448234,2020-10-18_15h57.23.754,swahili,2020.2.4,MacIntel,60,,,,,,,,,,0.413080512,0.51006922,1,0,0,1.00122,study_pile,27,0,27,0,1,MANURE - SAMADI,,,,,,,,,,,,,,,,,,,,,,,,,,,,,,,,,,,,,,,,,,,,
,,,,,,,,,,W1448234,2020-10-18_15h57.23.754,swahili,2020.2.4,MacIntel,60,,,,,,,,,,-0.180300564,0.152394349,1,0,0,1.78522,unsorted_card,28,0,28,0,1,,,,,,,,,,,,,,,,,,,,,,,,,,,,,,,,,,,,,,,,,,,,,
,,,,,,,,,,W1448234,2020-10-18_15h57.23.754,swahili,2020.2.4,MacIntel,60,,,,,,,,,,0.627750651,0.462870385,1,0,0,1.43647,study_pile,29,0,29,0,1,AGENT - WAKILI,,,,,,,,,,,,,,,,,,,,,,,,,,,,,,,,,,,,,,,,,,,,
,,,,,,,,,,W1448234,2020-10-18_15h57.23.754,swahili,2020.2.4,MacIntel,60,,,,,,,,,,-0.336599392,-0.067570029,1,0,0,0.833705,unsorted_card,30,0,30,0,1,,,,,,,,,,,,,,,,,,,,,,,,,,,,,,,,,,,,,,,,,,,,,
,,,,,,,,,,W1448234,2020-10-18_15h57.23.754,swahili,2020.2.4,MacIntel,60,,,,,,,,,,0.435465495,0.424698429,1,0,0,1.568145,study_pile,31,0,31,0,1,BRIBE - RUSHWA,,,,,,,,,,,,,,,,,,,,,,,,,,,,,,,,,,,,,,,,,,,,
,,,,,,,,,,W1448234,2020-10-18_15h57.23.754,swahili,2020.2.4,MacIntel,60,,,,,,,,,,-0.398800998,-0.148467859,1,0,0,0.7506,unsorted_card,32,0,32,0,1,,,,,,,,,,,,,,,,,,,,,,,,,,,,,,,,,,,,,,,,,,,,,
,,,,,,,,,,W1448234,2020-10-18_15h57.23.754,swahili,2020.2.4,MacIntel,60,,,,,,,,,,0.59077691,0.510160298,1,0,0,1.81974,study_pile,33,0,33,0,1,ORPHAN - YATIMA,,,,,,,,,,,,,,,,,,,,,,,,,,,,,,,,,,,,,,,,,,,,
,,,,,,,,,,W1448234,2020-10-18_15h57.23.754,swahili,2020.2.4,MacIntel,60,,,,,,,,,,-0.16070421,0.067721826,1,0,0,0.8648,unsorted_card,34,0,34,0,1,,,,,,,,,,,,,,,,,,,,,,,,,,,,,,,,,,,,,,,,,,,,,
,,,,,,,,,,W1448234,2020-10-18_15h57.23.754,swahili,2020.2.4,MacIntel,60,,,,,,,,,,0.395182292,0.446668556,1,0,0,1.049725,study_pile,35,0,35,0,1,DIVORCE - TALAKA,,,,,,,,,,,,,,,,,,,,,,,,,,,,,,,,,,,,,,,,,,,,
,,,,,,,,,,W1448234,2020-10-18_15h57.23.754,swahili,2020.2.4,MacIntel,60,,,,,,,,,,-0.251698134,0.09149328,1,0,0,0.61374,unsorted_card,36,0,36,0,1,,,,,,,,,,,,,,,,,,,,,,,,,,,,,,,,,,,,,,,,,,,,,
,,,,,,,,,,W1448234,2020-10-18_15h57.23.754,swahili,2020.2.4,MacIntel,60,,,,,,,,,,0.484928385,0.50057683,1,0,0,0.88057,study_pile,37,0,37,0,1,BOAT - MASHUA,,,,,,,,,,,,,,,,,,,,,,,,,,,,,,,,,,,,,,,,,,,,
,,,,,,,,,,W1448234,2020-10-18_15h57.23.754,swahili,2020.2.4,MacIntel,60,,,,,,,,,,-0.419433594,-0.00334966,1,0,0,0.50069,unsorted_card,38,0,38,0,1,,,,,,,,,,,,,,,,,,,,,,,,,,,,,,,,,,,,,,,,,,,,,
,,,,,,,,,,W1448234,2020-10-18_15h57.23.754,swahili,2020.2.4,MacIntel,60,,,,,,,,,,0.589046224,0.536643863,1,0,0,1.33119,study_pile,39,0,39,0,1,TREASURE - DAFINA,,,,,,,,,,,,,,,,,,,,,,,,,,,,,,,,,,,,,,,,,,,,
,,,,,,,,,,W1448234,2020-10-18_15h57.23.754,swahili,2020.2.4,MacIntel,60,,,,,,,,,,,,,,,,,,,,,,AGENT - WAKILI,,,,,,,,return,4.512085,return,1.714085,0,0,0,0,1,,,,,,,,,,,,,,,,,,,,,,,,,,,,
,,,,,,,,,,W1448234,2020-10-18_15h57.23.754,swahili,2020.2.4,MacIntel,60,,,,,,,,,,,,,,,,,,,,,,OATH - YAMINI,,,,,,,,,,return,4.11207,1,0,1,0,1,,,,,,,,,,,,,,,,,,,,,,,,,,,,
,,,,,,,,,,W1448234,2020-10-18_15h57.23.754,swahili,2020.2.4,MacIntel,60,,,,,,,,,,,,,,,,,,,,,,CHEESE - JIBINI,,,,,,,,,,return,1.30119,2,0,2,0,1,,,,,,,,,,,,,,,,,,,,,,,,,,,,
,,,,,,,,,,W1448234,2020-10-18_15h57.23.754,swahili,2020.2.4,MacIntel,60,,,,,,,,,,,,,,,,,,,,,,MERCHANT - TAJIRI,,,,,,,,,,return,1.13361,3,0,3,0,1,,,,,,,,,,,,,,,,,,,,,,,,,,,,
,,,,,,,,,,W1448234,2020-10-18_15h57.23.754,swahili,2020.2.4,MacIntel,60,,,,,,,,,,,,,,,,,,,,,,TAILOR - MSHONI,,,,,,,,,,return,1.351265,4,0,4,0,1,,,,,,,,,,,,,,,,,,,,,,,,,,,,
,,,,,,,,,,W1448234,2020-10-18_15h57.23.754,swahili,2020.2.4,MacIntel,60,,,,,,,,,,,,,,,,,,,,,,YEAST - HAMIRA,,,,,,,,,,return,1.01732,5,0,5,0,1,,,,,,,,,,,,,,,,,,,,,,,,,,,,
,,,,,,,,,,W1448234,2020-10-18_15h57.23.754,swahili,2020.2.4,MacIntel,60,,,,,,,,,,,,,,,,,,,,,,BULL - FAHILI,,,,,,,,,,return,1.71219,6,0,6,0,1,,,,,,,,,,,,,,,,,,,,,,,,,,,,
,,,,,,,,,,W1448234,2020-10-18_15h57.23.754,swahili,2020.2.4,MacIntel,60,,,,,,,,,,,,,,,,,,,,,,BLAME - LAWAMA,,,,,,,,,,return,2.120305,7,0,7,0,1,,,,,,,,,,,,,,,,,,,,,,,,,,,,
,,,,,,,,,,W1448234,2020-10-18_15h57.23.754,swahili,2020.2.4,MacIntel,60,,,,,,,,,,,,,,,,,,,,,,DIVORCE - TALAKA,,,,,,,,,,return,1.28594,8,0,8,0,1,,,,,,,,,,,,,,,,,,,,,,,,,,,,
,,,,,,,,,,W1448234,2020-10-18_15h57.23.754,swahili,2020.2.4,MacIntel,60,,,,,,,,,,,,,,,,,,,,,,BRIBE - RUSHWA,,,,,,,,,,return,1.51581,9,0,9,0,1,,,,,,,,,,,,,,,,,,,,,,,,,,,,
,,,,,,,,,,W1448234,2020-10-18_15h57.23.754,swahili,2020.2.4,MacIntel,60,,,,,,,,,,,,,,,,,,,,,,GRAVE - KABURI,,,,,,,,,,return,0.957135,10,0,10,0,1,,,,,,,,,,,,,,,,,,,,,,,,,,,,
,,,,,,,,,,W1448234,2020-10-18_15h57.23.754,swahili,2020.2.4,MacIntel,60,,,,,,,,,,,,,,,,,,,,,,BOAT - MASHUA,,,,,,,,,,return,0.851325,11,0,11,0,1,,,,,,,,,,,,,,,,,,,,,,,,,,,,
,,,,,,,,,,W1448234,2020-10-18_15h57.23.754,swahili,2020.2.4,MacIntel,60,,,,,,,,,,,,,,,,,,,,,,MANURE - SAMADI,,,,,,,,,,return,1.909475,12,0,12,0,1,,,,,,,,,,,,,,,,,,,,,,,,,,,,
,,,,,,,,,,W1448234,2020-10-18_15h57.23.754,swahili,2020.2.4,MacIntel,60,,,,,,,,,,,,,,,,,,,,,,GRAPES - ZABIBU,,,,,,,,,,return,0.80035,13,0,13,0,1,,,,,,,,,,,,,,,,,,,,,,,,,,,,
,,,,,,,,,,W1448234,2020-10-18_15h57.23.754,swahili,2020.2.4,MacIntel,60,,,,,,,,,,,,,,,,,,,,,,PLATE - SAHANI,,,,,,,,,,return,0.900665,14,0,14,0,1,,,,,,,,,,,,,,,,,,,,,,,,,,,,
,,,,,,,,,,W1448234,2020-10-18_15h57.23.754,swahili,2020.2.4,MacIntel,60,,,,,,,,,,,,,,,,,,,,,,ORPHAN - YATIMA,,,,,,,,,,return,1.09765,15,0,15,0,1,,,,,,,,,,,,,,,,,,,,,,,,,,,,
,,,,,,,,,,W1448234,2020-10-18_15h57.23.754,swahili,2020.2.4,MacIntel,60,,,,,,,,,,,,,,,,,,,,,,POEM - UTENZI,,,,,,,,,,return,0.549615,16,0,16,0,1,,,,,,,,,,,,,,,,,,,,,,,,,,,,
,,,,,,,,,,W1448234,2020-10-18_15h57.23.754,swahili,2020.2.4,MacIntel,60,,,,,,,,,,,,,,,,,,,,,,TREASURE - DAFINA,,,,,,,,,,return,1.05064,17,0,17,0,1,,,,,,,,,,,,,,,,,,,,,,,,,,,,
,,,,,,,,,,W1448234,2020-10-18_15h57.23.754,swahili,2020.2.4,MacIntel,60,,,,,,,,,,,,,,,,,,,,,,CORN - NAFAKA,,,,,,,,,,return,0.839095,18,0,18,0,1,,,,,,,,,,,,,,,,,,,,,,,,,,,,
,,,,,,,,,,W1448234,2020-10-18_15h57.23.754,swahili,2020.2.4,MacIntel,60,,,,,,,,,,,,,,,,,,,,,,PARROT - KASUKU,,,,,,,,,,return,0.704375,19,0,19,0,1,,,,,,,,,,,,,,,,,,,,,,,,,,,,
,,,,,,,,,,W1448234,2020-10-18_15h57.23.754,swahili,2020.2.4,MacIntel,60,,,,,,,,,,,,,,,,,,,,,,,,,,,,,,,,,,,,,,,,0,0,0,0,1,,,,,,,,,,,,,,,,,,,,,,
,,,,,,,,,,W1448234,2020-10-18_15h57.23.754,swahili,2020.2.4,MacIntel,60,,,,,,,,,,,,,,,,,,,,,,,,,,,,,,,,,,,,,,,,1,0,1,0,1,,,,,,,,,,,,,,,,,,,,,,
,,,,,,,,,,W1448234,2020-10-18_15h57.23.754,swahili,2020.2.4,MacIntel,60,,,,,,,,,,,,,,,,,,,,,,,,,,,,,,,,,,,,,,,,,,,,,0,0,0,0,1,,,,,,,,,,,,,,,,,
,,,,,,,,,,W1448234,2020-10-18_15h57.23.754,swahili,2020.2.4,MacIntel,60,,,,,,,,,,0.548339844,-0.570373219,1,0,0,6.85853,done_pile,0,0,0,0,1,,,,,,,,,,,,,,,,,,,,,,,,,,,,,,,,,,,,,,,,,,,,,
,,,,,,,,,,W1448234,2020-10-18_15h57.23.754,swahili,2020.2.4,MacIntel,60,,,,,,,,,,-0.202859158,-0.162817762,1,0,0,1.333785,unsorted_card,1,0,1,0,1,,,,,,,,,,,,,,,,,,,,,,,,,,,,,,,,,,,,,,,,,,,,,
,,,,,,,,,,W1448234,2020-10-18_15h57.23.754,swahili,2020.2.4,MacIntel,60,,,,,,,,,,-0.199164497,-0.124625567,1,0,0,2.12011,unsorted_card,2,0,2,0,1,MERCHANT - TAJIRI,,,,,,,,,,,,,,,,,,,,,,,,,,,,,,,,,,,,,,,,,,,,
,,,,,,,,,,W1448234,2020-10-18_15h57.23.754,swahili,2020.2.4,MacIntel,60,,,,,,,,,,0.594108073,-0.030744009,1,0,0,1.17037,test_pile,3,0,3,0,1,MERCHANT - TAJIRI,,,,,,,,,,,,,,,,,,,,,,,,,,,,,,,,,,,,,,,,,,,,
,,,,,,,,,,W1448234,2020-10-18_15h57.23.754,swahili,2020.2.4,MacIntel,60,,,,,,,,,,-0.221549479,0.069857108,1,0,0,3.17003,unsorted_card,4,0,4,0,1,,,,,,,,,,,,,,,,,,,,,,,,,,,,,,,,,,,,,,,,,,,,,
,,,,,,,,,,W1448234,2020-10-18_15h57.23.754,swahili,2020.2.4,MacIntel,60,,,,,,,,,,0.537744141,-0.087809666,1,0,0,3.474855,test_pile,5,0,5,0,1,PARROT - KASUKU,,,,,,,,,,,,,,,,,,,,,,,,,,,,,,,,,,,,,,,,,,,,
,,,,,,,,,,W1448234,2020-10-18_15h57.23.754,swahili,2020.2.4,MacIntel,60,,,,,,,,,,-0.197384983,-0.09204987,1,0,0,1.03417,unsorted_card,6,0,6,0,1,,,,,,,,,,,,,,,,,,,,,,,,,,,,,,,,,,,,,,,,,,,,,
,,,,,,,,,,W1448234,2020-10-18_15h57.23.754,swahili,2020.2.4,MacIntel,60,,,,,,,,,,0.471148003,0.345460249,1,0,0,0.897845,study_pile,7,0,7,0,1,BULL - FAHILI,,,,,,,,,,,,,,,,,,,,,,,,,,,,,,,,,,,,,,,,,,,,
,,,,,,,,,,W1448234,2020-10-18_15h57.23.754,swahili,2020.2.4,MacIntel,60,,,,,,,,,,-0.150287543,0.087698348,1,0,0,0.88427,unsorted_card,8,0,8,0,1,,,,,,,,,,,,,,,,,,,,,,,,,,,,,,,,,,,,,,,,,,,,,
,,,,,,,,,,W1448234,2020-10-18_15h57.23.754,swahili,2020.2.4,MacIntel,60,,,,,,,,,,0.565288628,-0.534974093,1,0,0,1.452485,done_pile,9,0,9,0,1,PLATE - SAHANI,,,,,,,,,,,,,,,,,,,,,,,,,,,,,,,,,,,,,,,,,,,,
,,,,,,,,,,W1448234,2020-10-18_15h57.23.754,swahili,2020.2.4,MacIntel,60,,,,,,,,,,-0.140559896,0.025178109,1,0,0,1.26634,unsorted_card,10,0,10,0,1,,,,,,,,,,,,,,,,,,,,,,,,,,,,,,,,,,,,,,,,,,,,,
,,,,,,,,,,W1448234,2020-10-18_15h57.23.754,swahili,2020.2.4,MacIntel,60,,,,,,,,,,0.555734592,0.012123543,1,0,0,1.41999,test_pile,11,0,11,0,1,YEAST - HAMIRA,,,,,,,,,,,,,,,,,,,,,,,,,,,,,,,,,,,,,,,,,,,,
,,,,,,,,,,W1448234,2020-10-18_15h57.23.754,swahili,2020.2.4,MacIntel,60,,,,,,,,,,-0.343787977,-0.054060071,1,0,0,1.03409,unsorted_card,12,0,12,0,1,,,,,,,,,,,,,,,,,,,,,,,,,,,,,,,,,,,,,,,,,,,,,
,,,,,,,,,,W1448234,2020-10-18_15h57.23.754,swahili,2020.2.4,MacIntel,60,,,,,,,,,,0.464496528,0.415256639,1,0,0,0.84925,study_pile,13,0,13,0,1,BLAME - LAWAMA,,,,,,,,,,,,,,,,,,,,,,,,,,,,,,,,,,,,,,,,,,,,
,,,,,,,,,,W1448234,2020-10-18_15h57.23.754,swahili,2020.2.4,MacIntel,60,,,,,,,,,,-0.256825087,-0.001983484,1,0,0,0.98113,unsorted_card,14,0,14,0,1,,,,,,,,,,,,,,,,,,,,,,,,,,,,,,,,,,,,,,,,,,,,,
,,,,,,,,,,W1448234,2020-10-18_15h57.23.754,swahili,2020.2.4,MacIntel,60,,,,,,,,,,0.605989583,0.008723284,1,0,0,1.37014,test_pile,15,0,15,0,1,OATH - YAMINI,,,,,,,,,,,,,,,,,,,,,,,,,,,,,,,,,,,,,,,,,,,,
,,,,,,,,,,W1448234,2020-10-18_15h57.23.754,swahili,2020.2.4,MacIntel,60,,,,,,,,,,-0.359917535,-0.191305052,1,0,0,0.896915,unsorted_card,16,0,16,0,1,,,,,,,,,,,,,,,,,,,,,,,,,,,,,,,,,,,,,,,,,,,,,
,,,,,,,,,,W1448234,2020-10-18_15h57.23.754,swahili,2020.2.4,MacIntel,60,,,,,,,,,,0.592453342,-0.553817196,1,0,0,0.901815,done_pile,17,0,17,0,1,CORN - NAFAKA,,,,,,,,,,,,,,,,,,,,,,,,,,,,,,,,,,,,,,,,,,,,
,,,,,,,,,,W1448234,2020-10-18_15h57.23.754,swahili,2020.2.4,MacIntel,60,,,,,,,,,,-0.330099826,-0.137700372,1,0,0,0.867395,unsorted_card,18,0,18,0,1,,,,,,,,,,,,,,,,,,,,,,,,,,,,,,,,,,,,,,,,,,,,,
,,,,,,,,,,W1448234,2020-10-18_15h57.23.754,swahili,2020.2.4,MacIntel,60,,,,,,,,,,0.627940538,-0.120182966,1,0,0,0.952105,test_pile,19,0,19,0,1,POEM - UTENZI,,,,,,,,,,,,,,,,,,,,,,,,,,,,,,,,,,,,,,,,,,,,
,,,,,,,,,,W1448234,2020-10-18_15h57.23.754,swahili,2020.2.4,MacIntel,60,,,,,,,,,,-0.334749349,0.03401271,1,0,0,0.978985,unsorted_card,20,0,20,0,1,,,,,,,,,,,,,,,,,,,,,,,,,,,,,,,,,,,,,,,,,,,,,
,,,,,,,,,,W1448234,2020-10-18_15h57.23.754,swahili,2020.2.4,MacIntel,60,,,,,,,,,,0.416579861,0.541713892,1,0,0,0.83555,study_pile,21,0,21,0,1,TAILOR - MSHONI,,,,,,,,,,,,,,,,,,,,,,,,,,,,,,,,,,,,,,,,,,,,
,,,,,,,,,,W1448234,2020-10-18_15h57.23.754,swahili,2020.2.4,MacIntel,60,,,,,,,,,,-0.220855035,0.187449401,1,0,0,0.93365,unsorted_card,22,0,22,0,1,,,,,,,,,,,,,,,,,,,,,,,,,,,,,,,,,,,,,,,,,,,,,
,,,,,,,,,,W1448234,2020-10-18_15h57.23.754,swahili,2020.2.4,MacIntel,60,,,,,,,,,,0.491682943,-0.473172361,1,0,0,1.987545,done_pile,23,0,23,0,1,CHEESE - JIBINI,,,,,,,,,,,,,,,,,,,,,,,,,,,,,,,,,,,,,,,,,,,,
,,,,,,,,,,W1448234,2020-10-18_15h57.23.754,swahili,2020.2.4,MacIntel,60,,,,,,,,,,-0.252332899,-0.060971907,1,0,0,1.066205,unsorted_card,24,0,24,0,1,,,,,,,,,,,,,,,,,,,,,,,,,,,,,,,,,,,,,,,,,,,,,
,,,,,,,,,,W1448234,2020-10-18_15h57.23.754,swahili,2020.2.4,MacIntel,60,,,,,,,,,,0.410763889,-0.051469398,1,0,0,3.27508,test_pile,25,0,25,0,1,GRAPES - ZABIBU,,,,,,,,,,,,,,,,,,,,,,,,,,,,,,,,,,,,,,,,,,,,
,,,,,,,,,,W1448234,2020-10-18_15h57.23.754,swahili,2020.2.4,MacIntel,60,,,,,,,,,,-0.391314019,0.031007124,1,0,0,0.816705,unsorted_card,26,0,26,0,1,,,,,,,,,,,,,,,,,,,,,,,,,,,,,,,,,,,,,,,,,,,,,
,,,,,,,,,,W1448234,2020-10-18_15h57.23.754,swahili,2020.2.4,MacIntel,60,,,,,,,,,,0.453087023,0.528244414,1,0,0,0.95201,study_pile,27,0,27,0,1,GRAVE - KABURI,,,,,,,,,,,,,,,,,,,,,,,,,,,,,,,,,,,,,,,,,,,,
,,,,,,,,,,W1448234,2020-10-18_15h57.23.754,swahili,2020.2.4,MacIntel,60,,,,,,,,,,-0.233561198,0.016019673,1,0,0,0.99854,unsorted_card,28,0,28,0,1,,,,,,,,,,,,,,,,,,,,,,,,,,,,,,,,,,,,,,,,,,,,,
,,,,,,,,,,W1448234,2020-10-18_15h57.23.754,swahili,2020.2.4,MacIntel,60,,,,,,,,,,0.527756076,-0.567630748,1,0,0,1.21744,done_pile,29,0,29,0,1,MANURE - SAMADI,,,,,,,,,,,,,,,,,,,,,,,,,,,,,,,,,,,,,,,,,,,,
,,,,,,,,,,W1448234,2020-10-18_15h57.23.754,swahili,2020.2.4,MacIntel,60,,,,,,,,,,-0.164713542,-0.000900664,1,0,0,1.60304,unsorted_card,30,0,30,0,1,,,,,,,,,,,,,,,,,,,,,,,,,,,,,,,,,,,,,,,,,,,,,
,,,,,,,,,,W1448234,2020-10-18_15h57.23.754,swahili,2020.2.4,MacIntel,60,,,,,,,,,,0.401448568,0.005363504,1,0,0,1.35194,test_pile,31,0,31,0,1,AGENT - WAKILI,,,,,,,,,,,,,,,,,,,,,,,,,,,,,,,,,,,,,,,,,,,,
,,,,,,,,,,W1448234,2020-10-18_15h57.23.754,swahili,2020.2.4,MacIntel,60,,,,,,,,,,-0.152815755,0.128228222,1,0,0,0.749515,unsorted_card,32,0,32,0,1,,,,,,,,,,,,,,,,,,,,,,,,,,,,,,,,,,,,,,,,,,,,,
,,,,,,,,,,W1448234,2020-10-18_15h57.23.754,swahili,2020.2.4,MacIntel,60,,,,,,,,,,0.442768012,0.084783841,1,0,0,1.185595,test_pile,33,0,33,0,1,BRIBE - RUSHWA,,,,,,,,,,,,,,,,,,,,,,,,,,,,,,,,,,,,,,,,,,,,
,,,,,,,,,,W1448234,2020-10-18_15h57.23.754,swahili,2020.2.4,MacIntel,60,,,,,,,,,,-0.203689236,0.085087435,1,0,0,0.69733,unsorted_card,34,0,34,0,1,,,,,,,,,,,,,,,,,,,,,,,,,,,,,,,,,,,,,,,,,,,,,
,,,,,,,,,,W1448234,2020-10-18_15h57.23.754,swahili,2020.2.4,MacIntel,60,,,,,,,,,,0.525108507,-0.078469074,1,0,0,1.253705,test_pile,35,0,35,0,1,ORPHAN - YATIMA,,,,,,,,,,,,,,,,,,,,,,,,,,,,,,,,,,,,,,,,,,,,
,,,,,,,,,,W1448234,2020-10-18_15h57.23.754,swahili,2020.2.4,MacIntel,60,,,,,,,,,,-0.271858724,0.060111723,1,0,0,1.050015,unsorted_card,36,0,36,0,1,,,,,,,,,,,,,,,,,,,,,,,,,,,,,,,,,,,,,,,,,,,,,
,,,,,,,,,,W1448234,2020-10-18_15h57.23.754,swahili,2020.2.4,MacIntel,60,,,,,,,,,,0.610205078,0.470035217,1,0,0,0.85256,study_pile,37,0,37,0,1,DIVORCE - TALAKA,,,,,,,,,,,,,,,,,,,,,,,,,,,,,,,,,,,,,,,,,,,,
,,,,,,,,,,W1448234,2020-10-18_15h57.23.754,swahili,2020.2.4,MacIntel,60,,,,,,,,,,-0.235926649,0.017810881,1,0,0,0.832345,unsorted_card,38,0,38,0,1,,,,,,,,,,,,,,,,,,,,,,,,,,,,,,,,,,,,,,,,,,,,,
,,,,,,,,,,W1448234,2020-10-18_15h57.23.754,swahili,2020.2.4,MacIntel,60,,,,,,,,,,0.608566623,0.371407464,1,0,0,1.25189,study_pile,39,0,39,0,1,BOAT - MASHUA,,,,,,,,,,,,,,,,,,,,,,,,,,,,,,,,,,,,,,,,,,,,
,,,,,,,,,,W1448234,2020-10-18_15h57.23.754,swahili,2020.2.4,MacIntel,60,,,,,,,,,,-0.178879123,0.08313431,1,0,0,1.15206,unsorted_card,40,0,40,0,1,,,,,,,,,,,,,,,,,,,,,,,,,,,,,,,,,,,,,,,,,,,,,
,,,,,,,,,,W1448234,2020-10-18_15h57.23.754,swahili,2020.2.4,MacIntel,60,,,,,,,,,,0.555886502,-0.007691062,1,0,0,1.453655,test_pile,41,0,41,0,1,TREASURE - DAFINA,,,,,,,,,,,,,,,,,,,,,,,,,,,,,,,,,,,,,,,,,,,,
,,,,,,,,,,W1448234,2020-10-18_15h57.23.754,swahili,2020.2.4,MacIntel,60,,,,,,,,,,,,,,,,,,,,,,,0.587234158,0.025906736,1,0,0,1.886735,test_first,,,,,0,0,0,0,1,,,,,,,,,,,,,,,,,,,,,,,,,,,,
,,,,,,,,,,W1448234,2020-10-18_15h57.23.754,swahili,2020.2.4,MacIntel,60,,,,,,,,,,,,,,,,,,,,,,,,,,,,,,,,,,,,,,,return,,,,,,,,,,,1.705905,7.63277,0.503179253,-0.177511739,1,0,0,2.371565,yes,TREASURE,HAMIJI,incorrect,0,0,0,0,1
,,,,,,,,,,W1448234,2020-10-18_15h57.23.754,swahili,2020.2.4,MacIntel,60,,,,,,,,,,,,,,,,,,,,,,,,,,,,,,,,,,,,,,,,,,,,,,,,,,,42.861535,-0.5816352,-0.090572377,1,0,0,2.055185,no,GRAPES,KAAMI,incorrect,1,0,1,0,1
,,,,,,,,,,W1448234,2020-10-18_15h57.23.754,swahili,2020.2.4,MacIntel,60,,,,,,,,,,,,,,,,,,,,,,,,,,,,,,,,,,,,,,,,,,,,,,,,,,,37.209975,0.362250434,-0.048372733,1,0,0,1.118455,yes,ORPHAN,YATIMA,incorrect,2,0,2,0,1
,,,,,,,,,,W1448234,2020-10-18_15h57.23.754,swahili,2020.2.4,MacIntel,60,,,,,,,,,,,,,,,,,,,,,,,,,,,,,,,,,,,,,,,,,,,,,,,,,,,19.03068,0.39930013,-0.047067277,1,0,0,1.207445,yes,BRIBE,HUNDO,incorrect,3,0,3,0,1
,,,,,,,,,,W1448234,2020-10-18_15h57.23.754,swahili,2020.2.4,MacIntel,60,,,,,,,,,,,,,,,,,,,,,,,,,,,,,,,,,,,,,,,,,,,,,,,,,,,12.548135,0.302951389,-0.133500648,1,0,0,1.002965,yes,OATH,KIAPO,incorrect,4,0,4,0,1
,,,,,,,,,,W1448234,2020-10-18_15h57.23.754,swahili,2020.2.4,MacIntel,60,,,,,,,,,,,,,,,,,,,,,,,,,,,,,,,,,,,,,,,,,,,,,,,,,,,14.15113,0.432438151,0.026675842,1,0,0,1.21882,yes,PARROT,KASUKU,incorrect,5,0,5,0,1
,,,,,,,,,,W1448234,2020-10-18_15h57.23.754,swahili,2020.2.4,MacIntel,60,,,,,,,,,,,,,,,,,,,,,,,,,,,,,,,,,,,,,,,,,,,,,,,,,,,22.491455,0.538753255,0.048190576,1,0,0,2.20527,yes,POEM,SHAAIRRI,incorrect,6,0,6,0,1
,,,,,,,,,,W1448234,2020-10-18_15h57.23.754,swahili,2020.2.4,MacIntel,60,,,,,,,,,,,,,,,,,,,,,,,,,,,,,,,,,,,,,,,,,,,,,,,,,,,8.722015,0.367431641,0.001882286,1,0,0,1.103175,yes,MERCHANT,AJAISHA,incorrect,7,0,7,0,1
,,,,,,,,,,W1448234,2020-10-18_15h57.23.754,swahili,2020.2.4,MacIntel,60,,,,,,,,,,,,,,,,,,,,,,,,,,,,,,,,,,,,,,,,,,,,,,,,,,,17.997685,0.382568359,0.03015706,1,0,0,1.066955,yes,AGENT,WAKALA,incorrect,8,0,8,0,1
,,,,,,,,,,W1448234,2020-10-18_15h57.23.754,swahili,2020.2.4,MacIntel,60,,,,,,,,,,,,,,,,,,,,,,,,,,,,,,,,,,,,,,,,,,,,,,,,,,,26.24783,0.382568359,0.03015706,1,0,0,0.85164,yes,YEAST,CHACHU,incorrect,9,0,9,0,1
,,,,,,,,,,W1448234,2020-10-18_15h57.23.754,swahili,2020.2.4,MacIntel,60,,,,,,,,,,,,,,,,,,,,,,,,,,,,,,,,,,,,,,,,0,0,0,0,1,,,,,,,,,,,,,,,,,,,,,,
,,,,,,,,,,W1448234,2020-10-18_15h57.23.754,swahili,2020.2.4,MacIntel,60,,,,,,,,,,,,,,,,,,,,,,GRAVE - KABURI,,,,,,,,return,3.890415,return,2.60964,0,0,0,0,1,,,,,,,,,,,,,,,,,,,,,,,,,,,,
,,,,,,,,,,W1448234,2020-10-18_15h57.23.754,swahili,2020.2.4,MacIntel,60,,,,,,,,,,,,,,,,,,,,,,DIVORCE - TALAKA,,,,,,,,,,return,1.32416,1,0,1,0,1,,,,,,,,,,,,,,,,,,,,,,,,,,,,
,,,,,,,,,,W1448234,2020-10-18_15h57.23.754,swahili,2020.2.4,MacIntel,60,,,,,,,,,,,,,,,,,,,,,,BOAT - MASHUA,,,,,,,,,,return,0.454585,2,0,2,0,1,,,,,,,,,,,,,,,,,,,,,,,,,,,,
,,,,,,,,,,W1448234,2020-10-18_15h57.23.754,swahili,2020.2.4,MacIntel,60,,,,,,,,,,,,,,,,,,,,,,BLAME - LAWAMA,,,,,,,,,,return,0.31587,3,0,3,0,1,,,,,,,,,,,,,,,,,,,,,,,,,,,,
,,,,,,,,,,W1448234,2020-10-18_15h57.23.754,swahili,2020.2.4,MacIntel,60,,,,,,,,,,,,,,,,,,,,,,BULL - FAHILI,,,,,,,,,,return,0.639185,4,0,4,0,1,,,,,,,,,,,,,,,,,,,,,,,,,,,,
,,,,,,,,,,W1448234,2020-10-18_15h57.23.754,swahili,2020.2.4,MacIntel,60,,,,,,,,,,,,,,,,,,,,,,TAILOR - MSHONI,,,,,,,,,,return,0.46805,5,0,5,0,1,,,,,,,,,,,,,,,,,,,,,,,,,,,,
,,,,,,,,,,W1448234,2020-10-18_15h57.23.754,swahili,2020.2.4,MacIntel,60,,,,,,,,,,,,,,,,,,,,,,,,,,,,,,,,,,,,,,,,1,0,1,0,1,,,,,,,,,,,,,,,,,,,,,,
,,,,,,,,,,W1448234,2020-10-18_15h57.23.754,swahili,2020.2.4,MacIntel,60,,,,,,,,,,,,,,,,,,,,,,,,,,,,,,,,,,,,,,,,,,,,,1,0,1,0,1,,,,,,,,,,,,,,,,,
,,,,,,,,,,W1448234,2020-10-18_15h57.23.754,swahili,2020.2.4,MacIntel,60,,,,,,,,,,-0.262565104,0.122692681,1,0,0,5.518335,unsorted_card,0,0,0,0,1,,,,,,,,,,,,,,,,,,,,,,,,,,,,,,,,,,,,,,,,,,,,,
,,,,,,,,,,W1448234,2020-10-18_15h57.23.754,swahili,2020.2.4,MacIntel,60,,,,,,,,,,-0.23687066,0.120334764,1,0,0,0.53337,unsorted_card,1,0,1,0,1,MERCHANT - TAJIRI,,,,,,,,,,,,,,,,,,,,,,,,,,,,,,,,,,,,,,,,,,,,
,,,,,,,,,,W1448234,2020-10-18_15h57.23.754,swahili,2020.2.4,MacIntel,60,,,,,,,,,,0.568787977,-0.047087516,1,0,0,1.135965,test_pile,2,0,2,0,1,MERCHANT - TAJIRI,,,,,,,,,,,,,,,,,,,,,,,,,,,,,,,,,,,,,,,,,,,,
,,,,,,,,,,W1448234,2020-10-18_15h57.23.754,swahili,2020.2.4,MacIntel,60,,,,,,,,,,-0.24898546,0.030774369,1,0,0,0.616495,unsorted_card,3,0,3,0,1,,,,,,,,,,,,,,,,,,,,,,,,,,,,,,,,,,,,,,,,,,,,,
,,,,,,,,,,W1448234,2020-10-18_15h57.23.754,swahili,2020.2.4,MacIntel,60,,,,,,,,,,0.489903429,0.450291451,1,0,0,0.90017,study_pile,4,0,4,0,1,PARROT - KASUKU,,,,,,,,,,,,,,,,,,,,,,,,,,,,,,,,,,,,,,,,,,,,
,,,,,,,,,,W1448234,2020-10-18_15h57.23.754,swahili,2020.2.4,MacIntel,60,,,,,,,,,,-0.251833767,-0.072812095,1,0,0,0.63118,unsorted_card,5,0,5,0,1,,,,,,,,,,,,,,,,,,,,,,,,,,,,,,,,,,,,,,,,,,,,,
,,,,,,,,,,W1448234,2020-10-18_15h57.23.754,swahili,2020.2.4,MacIntel,60,,,,,,,,,,0.609998915,-0.082213407,1,0,0,0.84978,test_pile,6,0,6,0,1,BULL - FAHILI,,,,,,,,,,,,,,,,,,,,,,,,,,,,,,,,,,,,,,,,,,,,
,,,,,,,,,,W1448234,2020-10-18_15h57.23.754,swahili,2020.2.4,MacIntel,60,,,,,,,,,,-0.370936415,0.081707416,1,0,0,0.78519,unsorted_card,7,0,7,0,1,,,,,,,,,,,,,,,,,,,,,,,,,,,,,,,,,,,,,,,,,,,,,
,,,,,,,,,,W1448234,2020-10-18_15h57.23.754,swahili,2020.2.4,MacIntel,60,,,,,,,,,,0.437489149,0.29853465,1,0,0,0.981725,study_pile,8,0,8,0,1,YEAST - HAMIRA,,,,,,,,,,,,,,,,,,,,,,,,,,,,,,,,,,,,,,,,,,,,
,,,,,,,,,,W1448234,2020-10-18_15h57.23.754,swahili,2020.2.4,MacIntel,60,,,,,,,,,,-0.332449002,0.100085006,1,0,0,0.84857,unsorted_card,9,0,9,0,1,,,,,,,,,,,,,,,,,,,,,,,,,,,,,,,,,,,,,,,,,,,,,
,,,,,,,,,,W1448234,2020-10-18_15h57.23.754,swahili,2020.2.4,MacIntel,60,,,,,,,,,,0.373263889,-0.022172523,1,0,0,0.818955,test_pile,10,0,10,0,1,BLAME - LAWAMA,,,,,,,,,,,,,,,,,,,,,,,,,,,,,,,,,,,,,,,,,,,,
,,,,,,,,,,W1448234,2020-10-18_15h57.23.754,swahili,2020.2.4,MacIntel,60,,,,,,,,,,-0.258794488,0.052390301,1,0,0,0.60004,unsorted_card,11,0,11,0,1,,,,,,,,,,,,,,,,,,,,,,,,,,,,,,,,,,,,,,,,,,,,,
,,,,,,,,,,W1448234,2020-10-18_15h57.23.754,swahili,2020.2.4,MacIntel,60,,,,,,,,,,0.442632378,0.485457821,1,0,0,0.81709,study_pile,12,0,12,0,1,OATH - YAMINI,,,,,,,,,,,,,,,,,,,,,,,,,,,,,,,,,,,,,,,,,,,,
,,,,,,,,,,W1448234,2020-10-18_15h57.23.754,swahili,2020.2.4,MacIntel,60,,,,,,,,,,-0.282340495,0.165884067,1,0,0,0.83419,unsorted_card,13,0,13,0,1,,,,,,,,,,,,,,,,,,,,,,,,,,,,,,,,,,,,,,,,,,,,,
,,,,,,,,,,W1448234,2020-10-18_15h57.23.754,swahili,2020.2.4,MacIntel,60,,,,,,,,,,0.376888021,-0.044203368,1,0,0,0.984675,test_pile,14,0,14,0,1,POEM - UTENZI,,,,,,,,,,,,,,,,,,,,,,,,,,,,,,,,,,,,,,,,,,,,
,,,,,,,,,,W1448234,2020-10-18_15h57.23.754,swahili,2020.2.4,MacIntel,60,,,,,,,,,,-0.468760851,-0.047714945,1,0,0,0.700445,unsorted_card,15,0,15,0,1,,,,,,,,,,,,,,,,,,,,,,,,,,,,,,,,,,,,,,,,,,,,,
,,,,,,,,,,W1448234,2020-10-18_15h57.23.754,swahili,2020.2.4,MacIntel,60,,,,,,,,,,0.48108724,0.496822377,1,0,0,1.017095,study_pile,16,0,16,0,1,TAILOR - MSHONI,,,,,,,,,,,,,,,,,,,,,,,,,,,,,,,,,,,,,,,,,,,,
,,,,,,,,,,W1448234,2020-10-18_15h57.23.754,swahili,2020.2.4,MacIntel,60,,,,,,,,,,-0.239122179,0.081909812,1,0,0,0.68477,unsorted_card,17,0,17,0,1,,,,,,,,,,,,,,,,,,,,,,,,,,,,,,,,,,,,,,,,,,,,,
,,,,,,,,,,W1448234,2020-10-18_15h57.23.754,swahili,2020.2.4,MacIntel,60,,,,,,,,,,0.511794705,0.101522021,1,0,0,0.651305,test_pile,18,0,18,0,1,GRAPES - ZABIBU,,,,,,,,,,,,,,,,,,,,,,,,,,,,,,,,,,,,,,,,,,,,
,,,,,,,,,,W1448234,2020-10-18_15h57.23.754,swahili,2020.2.4,MacIntel,60,,,,,,,,,,-0.212982856,0.010777607,1,0,0,0.616215,unsorted_card,19,0,19,0,1,,,,,,,,,,,,,,,,,,,,,,,,,,,,,,,,,,,,,,,,,,,,,
,,,,,,,,,,W1448234,2020-10-18_15h57.23.754,swahili,2020.2.4,MacIntel,60,,,,,,,,,,0.410394965,0.463821648,1,0,0,0.63469,study_pile,20,0,20,0,1,GRAVE - KABURI,,,,,,,,,,,,,,,,,,,,,,,,,,,,,,,,,,,,,,,,,,,,
,,,,,,,,,,W1448234,2020-10-18_15h57.23.754,swahili,2020.2.4,MacIntel,60,,,,,,,,,,-0.177137587,0.046561286,1,0,0,0.482765,unsorted_card,21,0,21,0,1,,,,,,,,,,,,,,,,,,,,,,,,,,,,,,,,,,,,,,,,,,,,,
,,,,,,,,,,W1448234,2020-10-18_15h57.23.754,swahili,2020.2.4,MacIntel,60,,,,,,,,,,0.406814236,0.008895321,1,0,0,0.58457,test_pile,22,0,22,0,1,AGENT - WAKILI,,,,,,,,,,,,,,,,,,,,,,,,,,,,,,,,,,,,,,,,,,,,
,,,,,,,,,,W1448234,2020-10-18_15h57.23.754,swahili,2020.2.4,MacIntel,60,,,,,,,,,,-0.29906684,0.036097393,1,0,0,0.498705,unsorted_card,23,0,23,0,1,,,,,,,,,,,,,,,,,,,,,,,,,,,,,,,,,,,,,,,,,,,,,
,,,,,,,,,,W1448234,2020-10-18_15h57.23.754,swahili,2020.2.4,MacIntel,60,,,,,,,,,,0.471983507,0.4653801,1,0,0,1.01939,study_pile,24,0,24,0,1,BRIBE - RUSHWA,,,,,,,,,,,,,,,,,,,,,,,,,,,,,,,,,,,,,,,,,,,,
,,,,,,,,,,W1448234,2020-10-18_15h57.23.754,swahili,2020.2.4,MacIntel,60,,,,,,,,,,-0.242675781,0.128845531,1,0,0,0.58207,unsorted_card,25,0,25,0,1,,,,,,,,,,,,,,,,,,,,,,,,,,,,,,,,,,,,,,,,,,,,,
,,,,,,,,,,W1448234,2020-10-18_15h57.23.754,swahili,2020.2.4,MacIntel,60,,,,,,,,,,0.478624132,0.183350874,1,0,0,0.66822,test_pile,26,0,26,0,1,ORPHAN - YATIMA,,,,,,,,,,,,,,,,,,,,,,,,,,,,,,,,,,,,,,,,,,,,
,,,,,,,,,,W1448234,2020-10-18_15h57.23.754,swahili,2020.2.4,MacIntel,60,,,,,,,,,,-0.205485026,0.03295013,1,0,0,0.733805,unsorted_card,27,0,27,0,1,,,,,,,,,,,,,,,,,,,,,,,,,,,,,,,,,,,,,,,,,,,,,
,,,,,,,,,,W1448234,2020-10-18_15h57.23.754,swahili,2020.2.4,MacIntel,60,,,,,,,,,,0.365413411,0.443399854,1,0,0,0.900165,study_pile,28,0,28,0,1,DIVORCE - TALAKA,,,,,,,,,,,,,,,,,,,,,,,,,,,,,,,,,,,,,,,,,,,,
,,,,,,,,,,W1448234,2020-10-18_15h57.23.754,swahili,2020.2.4,MacIntel,60,,,,,,,,,,-0.139952257,-0.005070029,1,0,0,0.684395,unsorted_card,29,0,29,0,1,,,,,,,,,,,,,,,,,,,,,,,,,,,,,,,,,,,,,,,,,,,,,
,,,,,,,,,,W1448234,2020-10-18_15h57.23.754,swahili,2020.2.4,MacIntel,60,,,,,,,,,,0.385953776,0.040691791,1,0,0,0.848915,test_pile,30,0,30,0,1,BOAT - MASHUA,,,,,,,,,,,,,,,,,,,,,,,,,,,,,,,,,,,,,,,,,,,,
,,,,,,,,,,W1448234,2020-10-18_15h57.23.754,swahili,2020.2.4,MacIntel,60,,,,,,,,,,-0.33499349,0.016535784,1,0,0,0.618,unsorted_card,31,0,31,0,1,,,,,,,,,,,,,,,,,,,,,,,,,,,,,,,,,,,,,,,,,,,,,
,,,,,,,,,,W1448234,2020-10-18_15h57.23.754,swahili,2020.2.4,MacIntel,60,,,,,,,,,,0.3894477,0.426762872,1,0,0,0.68301,study_pile,32,0,32,0,1,TREASURE - DAFINA,,,,,,,,,,,,,,,,,,,,,,,,,,,,,,,,,,,,,,,,,,,,
,,,,,,,,,,W1448234,2020-10-18_15h57.23.754,swahili,2020.2.4,MacIntel,60,,,,,,,,,,,,,,,,,,,,,,PARROT - KASUKU,-0.349262153,0.010656169,1,0,0,2.39071,study_first,return,1.869585,return,1.399595,0,0,0,0,1,,,,,,,,,,,,,,,,,,,,,,,,,,,,
,,,,,,,,,,W1448234,2020-10-18_15h57.23.754,swahili,2020.2.4,MacIntel,60,,,,,,,,,,,,,,,,,,,,,,TREASURE - DAFINA,,,,,,,,,,return,1.51084,1,0,1,0,1,,,,,,,,,,,,,,,,,,,,,,,,,,,,
,,,,,,,,,,W1448234,2020-10-18_15h57.23.754,swahili,2020.2.4,MacIntel,60,,,,,,,,,,,,,,,,,,,,,,TAILOR - MSHONI,,,,,,,,,,return,1.019925,2,0,2,0,1,,,,,,,,,,,,,,,,,,,,,,,,,,,,
,,,,,,,,,,W1448234,2020-10-18_15h57.23.754,swahili,2020.2.4,MacIntel,60,,,,,,,,,,,,,,,,,,,,,,OATH - YAMINI,,,,,,,,,,return,0.82231,3,0,3,0,1,,,,,,,,,,,,,,,,,,,,,,,,,,,,
,,,,,,,,,,W1448234,2020-10-18_15h57.23.754,swahili,2020.2.4,MacIntel,60,,,,,,,,,,,,,,,,,,,,,,GRAVE - KABURI,,,,,,,,,,return,0.600545,4,0,4,0,1,,,,,,,,,,,,,,,,,,,,,,,,,,,,
,,,,,,,,,,W1448234,2020-10-18_15h57.23.754,swahili,2020.2.4,MacIntel,60,,,,,,,,,,,,,,,,,,,,,,BRIBE - RUSHWA,,,,,,,,,,return,1.487055,5,0,5,0,1,,,,,,,,,,,,,,,,,,,,,,,,,,,,
,,,,,,,,,,W1448234,2020-10-18_15h57.23.754,swahili,2020.2.4,MacIntel,60,,,,,,,,,,,,,,,,,,,,,,YEAST - HAMIRA,,,,,,,,,,return,1.358865,6,0,6,0,1,,,,,,,,,,,,,,,,,,,,,,,,,,,,
,,,,,,,,,,W1448234,2020-10-18_15h57.23.754,swahili,2020.2.4,MacIntel,60,,,,,,,,,,,,,,,,,,,,,,DIVORCE - TALAKA,,,,,,,,,,return,0.970055,7,0,7,0,1,,,,,,,,,,,,,,,,,,,,,,,,,,,,
,,,,,,,,,,W1448234,2020-10-18_15h57.23.754,swahili,2020.2.4,MacIntel,60,,,,,,,,,,,,,,,,,,,,,,,,,,,,,,,,,,,,,,,,0,0,0,0,1,,,,,,,,,,,,,,,,,,,,,,
,,,,,,,,,,W1448234,2020-10-18_15h57.23.754,swahili,2020.2.4,MacIntel,60,,,,,,,,,,,,,,,,,,,,,,,,,,,,,,,,,,0,0,0,0,1,,,,,,,,,,,,,,,,,,,,,,,,,,,,
,,,,,,,,,,W1448234,2020-10-18_15h57.23.754,swahili,2020.2.4,MacIntel,60,,,,,,,,,,,,,,,,,,,,,,,,,,,,,,,,,,,,,,,return,,,,,,,,,,,0.65347,7.468595,0.380615234,-0.076303433,1,0,0,1.135225,yes,AGENT,KAHALI,incorrect,0,0,0,0,1
,,,,,,,,,,W1448234,2020-10-18_15h57.23.754,swahili,2020.2.4,MacIntel,60,,,,,,,,,,,,,,,,,,,,,,,,,,,,,,,,,,,,,,,,,,,,,,,,,,,8.186695,0.346636285,-0.127479356,1,0,0,1.52025,yes,BOAT,KANILI,incorrect,1,0,1,0,1
,,,,,,,,,,W1448234,2020-10-18_15h57.23.754,swahili,2020.2.4,MacIntel,60,,,,,,,,,,,,,,,,,,,,,,,,,,,,,,,,,,,,,,,,,,,,,,,,,,,10.14068,0.489431424,0.026544284,1,0,0,1.153785,yes,MERCHANT,ASAIKI,incorrect,2,0,2,0,1
,,,,,,,,,,W1448234,2020-10-18_15h57.23.754,swahili,2020.2.4,MacIntel,60,,,,,,,,,,,,,,,,,,,,,,,,,,,,,,,,,,,,,,,,,,,,,,,,,,,6.49859,0.342534722,-0.01729477,1,0,0,1.587605,yes,POEM,OKLALA,incorrect,3,0,3,0,1
,,,,,,,,,,W1448234,2020-10-18_15h57.23.754,swahili,2020.2.4,MacIntel,60,,,,,,,,,,,,,,,,,,,,,,,,,,,,,,,,,,,,,,,,,,,,,,,,,,,7.685805,0.358094618,-0.166177542,1,0,0,1.16824,yes,BULL,DANALI,incorrect,4,0,4,0,1
,,,,,,,,,,W1448234,2020-10-18_15h57.23.754,swahili,2020.2.4,MacIntel,60,,,,,,,,,,,,,,,,,,,,,,,,,,,,,,,,,,,,,,,,,,,,,,,,,,,5.797505,0.377696398,-0.176054485,1,0,0,1.154225,yes,ORPHAN,SAJNI,incorrect,5,0,5,0,1
,,,,,,,,,,W1448234,2020-10-18_15h57.23.754,swahili,2020.2.4,MacIntel,60,,,,,,,,,,,,,,,,,,,,,,,,,,,,,,,,,,,,,,,,,,,,,,,,,,,4.54347,0.3925727,-0.235953692,1,0,0,1.30401,yes,GRAPES,ASSJI,incorrect,6,0,6,0,1
,,,,,,,,,,W1448234,2020-10-18_15h57.23.754,swahili,2020.2.4,MacIntel,60,,,,,,,,,,,,,,,,,,,,,,,,,,,,,,,,,,,,,,,,,,,,,,,,,,,4.05934,0.51828342,-0.01507853,1,0,0,62.800885,yes,BLAME,ASJJK,incorrect,7,0,7,0,1
,,,,,,,,,,W1448234,2020-10-18_15h57.23.754,swahili,2020.2.4,MacIntel,60,,,,,,,,,,,,,,,,,,,,,,,,,,,,,,,,,,,,,,,,1,0,1,0,1,,,,,,,,,,,,,,,,,,,,,,
,,,,,,,,,,W1448234,2020-10-18_15h57.23.754,swahili,2020.2.4,MacIntel,60,,,,,,,,,,,,,,,,,,,,,,,,,,,,,,,,,,,,,,,,,,,,,2,0,2,0,1,,,,,,,,,,,,,,,,,
,,,,,,,,,,W1448234,2020-10-18_15h57.23.754,swahili,2020.2.4,MacIntel,60,,,,,,,,,,-0.248800998,-0.086848284,1,0,0,1.37498,unsorted_card,0,0,0,0,1,,,,,,,,,,,,,,,,,,,,,,,,,,,,,,,,,,,,,,,,,,,,,
,,,,,,,,,,W1448234,2020-10-18_15h57.23.754,swahili,2020.2.4,MacIntel,60,,,,,,,,,,0.417567274,-0.407494738,1,0,0,2.90734,done_pile,1,0,1,0,1,MERCHANT - TAJIRI,,,,,,,,,,,,,,,,,,,,,,,,,,,,,,,,,,,,,,,,,,,,
,,,,,,,,,,W1448234,2020-10-18_15h57.23.754,swahili,2020.2.4,MacIntel,60,,,,,,,,,,-0.302332899,-0.099265301,1,0,0,0.730285,unsorted_card,2,0,2,0,1,,,,,,,,,,,,,,,,,,,,,,,,,,,,,,,,,,,,,,,,,,,,,
,,,,,,,,,,W1448234,2020-10-18_15h57.23.754,swahili,2020.2.4,MacIntel,60,,,,,,,,,,0.483615451,-0.435344479,1,0,0,0.9515,done_pile,3,0,3,0,1,PARROT - KASUKU,,,,,,,,,,,,,,,,,,,,,,,,,,,,,,,,,,,,,,,,,,,,
,,,,,,,,,,W1448234,2020-10-18_15h57.23.754,swahili,2020.2.4,MacIntel,60,,,,,,,,,,-0.654101562,0.047289913,1,0,0,0.69918,unsorted_card,4,0,4,0,1,,,,,,,,,,,,,,,,,,,,,,,,,,,,,,,,,,,,,,,,,,,,,
,,,,,,,,,,W1448234,2020-10-18_15h57.23.754,swahili,2020.2.4,MacIntel,60,,,,,,,,,,0.534049479,-0.636911027,1,0,0,1.166805,done_pile,5,0,5,0,1,BULL - FAHILI,,,,,,,,,,,,,,,,,,,,,,,,,,,,,,,,,,,,,,,,,,,,
,,,,,,,,,,W1448234,2020-10-18_15h57.23.754,swahili,2020.2.4,MacIntel,60,,,,,,,,,,-0.132958984,0.101815495,1,0,0,0.88587,unsorted_card,6,0,6,0,1,,,,,,,,,,,,,,,,,,,,,,,,,,,,,,,,,,,,,,,,,,,,,
,,,,,,,,,,W1448234,2020-10-18_15h57.23.754,swahili,2020.2.4,MacIntel,60,,,,,,,,,,0.448339844,-0.611510282,1,0,0,0.881585,done_pile,7,0,7,0,1,YEAST - HAMIRA,,,,,,,,,,,,,,,,,,,,,,,,,,,,,,,,,,,,,,,,,,,,
,,,,,,,,,,W1448234,2020-10-18_15h57.23.754,swahili,2020.2.4,MacIntel,60,,,,,,,,,,-0.32985026,-0.169193248,1,0,0,0.93431,unsorted_card,8,0,8,0,1,,,,,,,,,,,,,,,,,,,,,,,,,,,,,,,,,,,,,,,,,,,,,
,,,,,,,,,,W1448234,2020-10-18_15h57.23.754,swahili,2020.2.4,MacIntel,60,,,,,,,,,,0.385367839,-0.421379129,1,0,0,1.01715,done_pile,9,0,9,0,1,BLAME - LAWAMA,,,,,,,,,,,,,,,,,,,,,,,,,,,,,,,,,,,,,,,,,,,,
,,,,,,,,,,W1448234,2020-10-18_15h57.23.754,swahili,2020.2.4,MacIntel,60,,,,,,,,,,-0.288346354,-0.007883339,1,0,0,0.70109,unsorted_card,10,0,10,0,1,,,,,,,,,,,,,,,,,,,,,,,,,,,,,,,,,,,,,,,,,,,,,
,,,,,,,,,,W1448234,2020-10-18_15h57.23.754,swahili,2020.2.4,MacIntel,60,,,,,,,,,,0.442149523,-0.404357594,1,0,0,0.618405,done_pile,11,0,11,0,1,OATH - YAMINI,,,,,,,,,,,,,,,,,,,,,,,,,,,,,,,,,,,,,,,,,,,,
,,,,,,,,,,W1448234,2020-10-18_15h57.23.754,swahili,2020.2.4,MacIntel,60,,,,,,,,,,-0.165315755,-0.001912646,1,0,0,1.06688,unsorted_card,12,0,12,0,1,,,,,,,,,,,,,,,,,,,,,,,,,,,,,,,,,,,,,,,,,,,,,
,,,,,,,,,,W1448234,2020-10-18_15h57.23.754,swahili,2020.2.4,MacIntel,60,,,,,,,,,,0.435742187,-0.543818815,1,0,0,1.034355,done_pile,13,0,13,0,1,POEM - UTENZI,,,,,,,,,,,,,,,,,,,,,,,,,,,,,,,,,,,,,,,,,,,,
,,,,,,,,,,W1448234,2020-10-18_15h57.23.754,swahili,2020.2.4,MacIntel,60,,,,,,,,,,-0.225005425,0.077517811,1,0,0,0.7351,unsorted_card,14,0,14,0,1,,,,,,,,,,,,,,,,,,,,,,,,,,,,,,,,,,,,,,,,,,,,,
,,,,,,,,,,W1448234,2020-10-18_15h57.23.754,swahili,2020.2.4,MacIntel,60,,,,,,,,,,0.527479384,-0.459439767,1,0,0,0.60102,done_pile,15,0,15,0,1,TAILOR - MSHONI,,,,,,,,,,,,,,,,,,,,,,,,,,,,,,,,,,,,,,,,,,,,
,,,,,,,,,,W1448234,2020-10-18_15h57.23.754,swahili,2020.2.4,MacIntel,60,,,,,,,,,,-0.390071615,-0.085542827,1,0,0,0.548015,unsorted_card,16,0,16,0,1,,,,,,,,,,,,,,,,,,,,,,,,,,,,,,,,,,,,,,,,,,,,,
,,,,,,,,,,W1448234,2020-10-18_15h57.23.754,swahili,2020.2.4,MacIntel,60,,,,,,,,,,0.376486545,-0.41517568,1,0,0,1.002965,done_pile,17,0,17,0,1,GRAPES - ZABIBU,,,,,,,,,,,,,,,,,,,,,,,,,,,,,,,,,,,,,,,,,,,,
,,,,,,,,,,W1448234,2020-10-18_15h57.23.754,swahili,2020.2.4,MacIntel,60,,,,,,,,,,-0.280929905,0.013135525,1,0,0,0.75247,unsorted_card,18,0,18,0,1,,,,,,,,,,,,,,,,,,,,,,,,,,,,,,,,,,,,,,,,,,,,,
,,,,,,,,,,W1448234,2020-10-18_15h57.23.754,swahili,2020.2.4,MacIntel,60,,,,,,,,,,0.35766059,-0.645482513,1,0,0,1.06337,done_pile,19,0,19,0,1,GRAVE - KABURI,,,,,,,,,,,,,,,,,,,,,,,,,,,,,,,,,,,,,,,,,,,,
,,,,,,,,,,W1448234,2020-10-18_15h57.23.754,swahili,2020.2.4,MacIntel,60,,,,,,,,,,-0.335720486,-0.044446244,1,0,0,0.800865,unsorted_card,20,0,20,0,1,,,,,,,,,,,,,,,,,,,,,,,,,,,,,,,,,,,,,,,,,,,,,
,,,,,,,,,,W1448234,2020-10-18_15h57.23.754,swahili,2020.2.4,MacIntel,60,,,,,,,,,,0.327235243,-0.507215431,1,0,0,0.98477,done_pile,21,0,21,0,1,AGENT - WAKILI,,,,,,,,,,,,,,,,,,,,,,,,,,,,,,,,,,,,,,,,,,,,
,,,,,,,,,,W1448234,2020-10-18_15h57.23.754,swahili,2020.2.4,MacIntel,60,,,,,,,,,,-0.288530816,0.175265139,1,0,0,1.15163,unsorted_card,22,0,22,0,1,,,,,,,,,,,,,,,,,,,,,,,,,,,,,,,,,,,,,,,,,,,,,
,,,,,,,,,,W1448234,2020-10-18_15h57.23.754,swahili,2020.2.4,MacIntel,60,,,,,,,,,,0.524104818,-0.592505262,1,0,0,1.06848,done_pile,23,0,23,0,1,BRIBE - RUSHWA,,,,,,,,,,,,,,,,,,,,,,,,,,,,,,,,,,,,,,,,,,,,
,,,,,,,,,,W1448234,2020-10-18_15h57.23.754,swahili,2020.2.4,MacIntel,60,,,,,,,,,,-0.392659505,-0.168282464,1,0,0,0.802065,unsorted_card,24,0,24,0,1,,,,,,,,,,,,,,,,,,,,,,,,,,,,,,,,,,,,,,,,,,,,,
,,,,,,,,,,W1448234,2020-10-18_15h57.23.754,swahili,2020.2.4,MacIntel,60,,,,,,,,,,0.49905599,-0.447852574,1,0,0,1.301595,done_pile,25,0,25,0,1,ORPHAN - YATIMA,,,,,,,,,,,,,,,,,,,,,,,,,,,,,,,,,,,,,,,,,,,,
,,,,,,,,,,W1448234,2020-10-18_15h57.23.754,swahili,2020.2.4,MacIntel,60,,,,,,,,,,-0.288259549,-0.174000162,1,0,0,0.750945,unsorted_card,26,0,26,0,1,,,,,,,,,,,,,,,,,,,,,,,,,,,,,,,,,,,,,,,,,,,,,
,,,,,,,,,,W1448234,2020-10-18_15h57.23.754,swahili,2020.2.4,MacIntel,60,,,,,,,,,,0.646831597,-0.548109618,1,0,0,1.03591,done_pile,27,0,27,0,1,DIVORCE - TALAKA,,,,,,,,,,,,,,,,,,,,,,,,,,,,,,,,,,,,,,,,,,,,
,,,,,,,,,,W1448234,2020-10-18_15h57.23.754,swahili,2020.2.4,MacIntel,60,,,,,,,,,,-0.141455078,0.03182683,1,0,0,0.834235,unsorted_card,28,0,28,0,1,,,,,,,,,,,,,,,,,,,,,,,,,,,,,,,,,,,,,,,,,,,,,
,,,,,,,,,,W1448234,2020-10-18_15h57.23.754,swahili,2020.2.4,MacIntel,60,,,,,,,,,,0.605251736,-0.543808695,1,0,0,0.832685,done_pile,29,0,29,0,1,BOAT - MASHUA,,,,,,,,,,,,,,,,,,,,,,,,,,,,,,,,,,,,,,,,,,,,
,,,,,,,,,,W1448234,2020-10-18_15h57.23.754,swahili,2020.2.4,MacIntel,60,,,,,,,,,,-0.406282552,0.156847069,1,0,0,0.734715,unsorted_card,30,0,30,0,1,,,,,,,,,,,,,,,,,,,,,,,,,,,,,,,,,,,,,,,,,,,,,
,,,,,,,,,,W1448234,2020-10-18_15h57.23.754,swahili,2020.2.4,MacIntel,60,,,,,,,,,,0.507286241,-0.581768135,1,0,0,1.035405,done_pile,31,0,31,0,1,TREASURE - DAFINA,,,,,,,,,,,,,,,,,,,,,,,,,,,,,,,,,,,,,,,,,,,,
,,,,,,,,,,W1448234,2020-10-18_15h57.23.754,swahili,2020.2.4,MacIntel,60,,,,,,,,,,,,,,,,,,,,,,,,,,,,,,,,,,,,,,,,0,0,0,0,1,,,,,,,,,,,,,,,,,,,,,,
,,,,,,,,,,W1448234,2020-10-18_15h57.23.754,swahili,2020.2.4,MacIntel,60,,,,,,,,,,,,,,,,,,,,,,,,,,,,,,,,,,,,,,,,1,0,1,0,1,,,,,,,,,,,,,,,,,,,,,,
