condition,consent_key.keys,consent_key.rt,done_with_instructions.keys,done_with_instructions.rt,instr_loop.thisRepN,instr_loop.thisTrialN,instr_loop.thisN,instr_loop.thisIndex,instr_loop.ran,Student ID #,date,expName,psychopyVersion,OS,frameRate,instr_learning_key.keys,instr_learning_key.rt,card_gen_loop.thisRepN,card_gen_loop.thisTrialN,card_gen_loop.thisN,card_gen_loop.thisIndex,card_gen_loop.ran,swa,eng,choose_pile.x,choose_pile.y,choose_pile.leftButton,choose_pile.midButton,choose_pile.rightButton,choose_pile.time,choose_pile.clicked_name,choices.thisRepN,choices.thisTrialN,choices.thisN,choices.thisIndex,choices.ran,card_to_show,mouse_pick.x,mouse_pick.y,mouse_pick.leftButton,mouse_pick.midButton,mouse_pick.rightButton,mouse_pick.time,mouse_pick.clicked_name,key_instr_study.keys,key_instr_study.rt,next_study.keys,next_study.rt,study_loop.thisRepN,study_loop.thisTrialN,study_loop.thisN,study_loop.thisIndex,study_loop.ran,key_instr_test.keys,learn_loop.thisRepN,learn_loop.thisTrialN,learn_loop.thisN,learn_loop.thisIndex,learn_loop.ran,trials.thisRepN,trials.thisTrialN,trials.thisN,trials.thisIndex,trials.ran,key_instr_test.rt,duration,yes_or_no.x,yes_or_no.y,yes_or_no.leftButton,yes_or_no.midButton,yes_or_no.rightButton,yes_or_no.time,yes_or_no.clicked_name,test_response.stim,test_response.resp,test_response.eval,test_loop.thisRepN,test_loop.thisTrialN,test_loop.thisN,test_loop.thisIndex,test_loop.ran,instr_movie_key.keys,instr_movie_key.rt,return_to_exp.keys,return_to_exp.rt,instr_assess_key.keys,instr_assess_key.rt,assess_loop.thisRepN,assess_loop.thisTrialN,assess_loop.thisN,assess_loop.thisIndex,assess_loop.ran,ans_gen_loop.thisRepN,ans_gen_loop.thisTrialN,ans_gen_loop.thisN,ans_gen_loop.thisIndex,ans_gen_loop.ran,sen,ans,instr_transfer_key.keys,instr_transfer_key.rt,transfer_response.resp,transfer_response.eval,select_word.x,select_word.y,select_word.leftButton,select_word.midButton,select_word.rightButton,select_word.time,select_word.clicked_name,transfers.thisRepN,transfers.thisTrialN,transfers.thisN,transfers.thisIndex,transfers.ran,end_experiment.keys,end_experiment.rt
2,return,22.574375,return,17.85703,0,0,0,0,1,1597537,2020-10-30_13h06.11.976,swahili,2020.2.4,MacIntel,60,,,,,,,,,,,,,,,,,,,,,,,,,,,,,,,,,,,,,,,,,,,,,,,,,,,,,,,,,,,,,,,,,,,,,,,,,,,,,,,,,,,,,,,,,,,,,,,,,,,,,,
,,,return,87.61264,1,0,1,0,1,1597537,2020-10-30_13h06.11.976,swahili,2020.2.4,MacIntel,60,,,,,,,,,,,,,,,,,,,,,,,,,,,,,,,,,,,,,,,,,,,,,,,,,,,,,,,,,,,,,,,,,,,,,,,,,,,,,,,,,,,,,,,,,,,,,,,,,,,,,,
,,,,,,,,,,1597537,2020-10-30_13h06.11.976,swahili,2020.2.4,MacIntel,60,return,13.060855,0,0,0,0,1,TAJIRI,MERCHANT,,,,,,,,,,,,,,,,,,,,,,,,,,,,,,,,,,,,,,,,,,,,,,,,,,,,,,,,,,,,,,,,,,,,,,,,,,,,,,,,,,,,,,,,,,,,,
,,,,,,,,,,1597537,2020-10-30_13h06.11.976,swahili,2020.2.4,MacIntel,60,,,0,1,1,1,1,KASUKU,PARROT,,,,,,,,,,,,,,,,,,,,,,,,,,,,,,,,,,,,,,,,,,,,,,,,,,,,,,,,,,,,,,,,,,,,,,,,,,,,,,,,,,,,,,,,,,,,,
,,,,,,,,,,1597537,2020-10-30_13h06.11.976,swahili,2020.2.4,MacIntel,60,,,0,2,2,2,1,FAHILI,BULL,,,,,,,,,,,,,,,,,,,,,,,,,,,,,,,,,,,,,,,,,,,,,,,,,,,,,,,,,,,,,,,,,,,,,,,,,,,,,,,,,,,,,,,,,,,,,
,,,,,,,,,,1597537,2020-10-30_13h06.11.976,swahili,2020.2.4,MacIntel,60,,,0,3,3,3,1,SAHANI,PLATE,,,,,,,,,,,,,,,,,,,,,,,,,,,,,,,,,,,,,,,,,,,,,,,,,,,,,,,,,,,,,,,,,,,,,,,,,,,,,,,,,,,,,,,,,,,,,
,,,,,,,,,,1597537,2020-10-30_13h06.11.976,swahili,2020.2.4,MacIntel,60,,,0,4,4,4,1,HAMIRA,YEAST,,,,,,,,,,,,,,,,,,,,,,,,,,,,,,,,,,,,,,,,,,,,,,,,,,,,,,,,,,,,,,,,,,,,,,,,,,,,,,,,,,,,,,,,,,,,,
,,,,,,,,,,1597537,2020-10-30_13h06.11.976,swahili,2020.2.4,MacIntel,60,,,0,5,5,5,1,LAWAMA,BLAME,,,,,,,,,,,,,,,,,,,,,,,,,,,,,,,,,,,,,,,,,,,,,,,,,,,,,,,,,,,,,,,,,,,,,,,,,,,,,,,,,,,,,,,,,,,,,
,,,,,,,,,,1597537,2020-10-30_13h06.11.976,swahili,2020.2.4,MacIntel,60,,,0,6,6,6,1,YAMINI,OATH,,,,,,,,,,,,,,,,,,,,,,,,,,,,,,,,,,,,,,,,,,,,,,,,,,,,,,,,,,,,,,,,,,,,,,,,,,,,,,,,,,,,,,,,,,,,,
,,,,,,,,,,1597537,2020-10-30_13h06.11.976,swahili,2020.2.4,MacIntel,60,,,0,7,7,7,1,NAFAKA,CORN,,,,,,,,,,,,,,,,,,,,,,,,,,,,,,,,,,,,,,,,,,,,,,,,,,,,,,,,,,,,,,,,,,,,,,,,,,,,,,,,,,,,,,,,,,,,,
,,,,,,,,,,1597537,2020-10-30_13h06.11.976,swahili,2020.2.4,MacIntel,60,,,0,8,8,8,1,UTENZI,POEM,,,,,,,,,,,,,,,,,,,,,,,,,,,,,,,,,,,,,,,,,,,,,,,,,,,,,,,,,,,,,,,,,,,,,,,,,,,,,,,,,,,,,,,,,,,,,
,,,,,,,,,,1597537,2020-10-30_13h06.11.976,swahili,2020.2.4,MacIntel,60,,,0,9,9,9,1,MSHONI,TAILOR,,,,,,,,,,,,,,,,,,,,,,,,,,,,,,,,,,,,,,,,,,,,,,,,,,,,,,,,,,,,,,,,,,,,,,,,,,,,,,,,,,,,,,,,,,,,,
,,,,,,,,,,1597537,2020-10-30_13h06.11.976,swahili,2020.2.4,MacIntel,60,,,0,10,10,10,1,JIBINI,CHEESE,,,,,,,,,,,,,,,,,,,,,,,,,,,,,,,,,,,,,,,,,,,,,,,,,,,,,,,,,,,,,,,,,,,,,,,,,,,,,,,,,,,,,,,,,,,,,
,,,,,,,,,,1597537,2020-10-30_13h06.11.976,swahili,2020.2.4,MacIntel,60,,,0,11,11,11,1,ZABIBU,GRAPES,,,,,,,,,,,,,,,,,,,,,,,,,,,,,,,,,,,,,,,,,,,,,,,,,,,,,,,,,,,,,,,,,,,,,,,,,,,,,,,,,,,,,,,,,,,,,
,,,,,,,,,,1597537,2020-10-30_13h06.11.976,swahili,2020.2.4,MacIntel,60,,,0,12,12,12,1,KABURI,GRAVE,,,,,,,,,,,,,,,,,,,,,,,,,,,,,,,,,,,,,,,,,,,,,,,,,,,,,,,,,,,,,,,,,,,,,,,,,,,,,,,,,,,,,,,,,,,,,
,,,,,,,,,,1597537,2020-10-30_13h06.11.976,swahili,2020.2.4,MacIntel,60,,,0,13,13,13,1,SAMADI,MANURE,,,,,,,,,,,,,,,,,,,,,,,,,,,,,,,,,,,,,,,,,,,,,,,,,,,,,,,,,,,,,,,,,,,,,,,,,,,,,,,,,,,,,,,,,,,,,
,,,,,,,,,,1597537,2020-10-30_13h06.11.976,swahili,2020.2.4,MacIntel,60,,,0,14,14,14,1,WAKILI,AGENT,,,,,,,,,,,,,,,,,,,,,,,,,,,,,,,,,,,,,,,,,,,,,,,,,,,,,,,,,,,,,,,,,,,,,,,,,,,,,,,,,,,,,,,,,,,,,
,,,,,,,,,,1597537,2020-10-30_13h06.11.976,swahili,2020.2.4,MacIntel,60,,,0,15,15,15,1,RUSHWA,BRIBE,,,,,,,,,,,,,,,,,,,,,,,,,,,,,,,,,,,,,,,,,,,,,,,,,,,,,,,,,,,,,,,,,,,,,,,,,,,,,,,,,,,,,,,,,,,,,
,,,,,,,,,,1597537,2020-10-30_13h06.11.976,swahili,2020.2.4,MacIntel,60,,,0,16,16,16,1,YATIMA,ORPHAN,,,,,,,,,,,,,,,,,,,,,,,,,,,,,,,,,,,,,,,,,,,,,,,,,,,,,,,,,,,,,,,,,,,,,,,,,,,,,,,,,,,,,,,,,,,,,
,,,,,,,,,,1597537,2020-10-30_13h06.11.976,swahili,2020.2.4,MacIntel,60,,,0,17,17,17,1,TALAKA,DIVORCE,,,,,,,,,,,,,,,,,,,,,,,,,,,,,,,,,,,,,,,,,,,,,,,,,,,,,,,,,,,,,,,,,,,,,,,,,,,,,,,,,,,,,,,,,,,,,
,,,,,,,,,,1597537,2020-10-30_13h06.11.976,swahili,2020.2.4,MacIntel,60,,,0,18,18,18,1,MASHUA,BOAT,,,,,,,,,,,,,,,,,,,,,,,,,,,,,,,,,,,,,,,,,,,,,,,,,,,,,,,,,,,,,,,,,,,,,,,,,,,,,,,,,,,,,,,,,,,,,
,,,,,,,,,,1597537,2020-10-30_13h06.11.976,swahili,2020.2.4,MacIntel,60,,,0,19,19,19,1,DAFINA,TREASURE,,,,,,,,,,,,,,,,,,,,,,,,,,,,,,,,,,,,,,,,,,,,,,,,,,,,,,,,,,,,,,,,,,,,,,,,,,,,,,,,,,,,,,,,,,,,,
,,,,,,,,,,1597537,2020-10-30_13h06.11.976,swahili,2020.2.4,MacIntel,60,,,,,,,,,,-0.375337728,-0.116500289,1,0,0,5.51627,unsorted_card,0,0,0,0,1,,,,,,,,,,,,,,,,,,,,,,,,,,,,,,,,,,,,,,,,,,,,,,,,,,,,,,,,,,,,,,,,,,,,,,,,,,,,,,,,,
,,,,,,,,,,1597537,2020-10-30_13h06.11.976,swahili,2020.2.4,MacIntel,60,,,,,,,,,,-0.40978597,-0.049016204,1,0,0,1.578915,unsorted_card,1,0,1,0,1,MERCHANT - TAJIRI,,,,,,,,,,,,,,,,,,,,,,,,,,,,,,,,,,,,,,,,,,,,,,,,,,,,,,,,,,,,,,,,,,,,,,,,,,,,,,,,
,,,,,,,,,,1597537,2020-10-30_13h06.11.976,swahili,2020.2.4,MacIntel,60,,,,,,,,,,-0.246980794,-0.035756655,1,0,0,1.685925,unsorted_card,2,0,2,0,1,MERCHANT - TAJIRI,,,,,,,,,,,,,,,,,,,,,,,,,,,,,,,,,,,,,,,,,,,,,,,,,,,,,,,,,,,,,,,,,,,,,,,,,,,,,,,,
,,,,,,,,,,1597537,2020-10-30_13h06.11.976,swahili,2020.2.4,MacIntel,60,,,,,,,,,,0.464261882,0.472330729,1,0,0,2.855515,study_pile,3,0,3,0,1,MERCHANT - TAJIRI,,,,,,,,,,,,,,,,,,,,,,,,,,,,,,,,,,,,,,,,,,,,,,,,,,,,,,,,,,,,,,,,,,,,,,,,,,,,,,,,
,,,,,,,,,,1597537,2020-10-30_13h06.11.976,swahili,2020.2.4,MacIntel,60,,,,,,,,,,-0.256872559,-0.015813079,1,0,0,1.09971,unsorted_card,4,0,4,0,1,,,,,,,,,,,,,,,,,,,,,,,,,,,,,,,,,,,,,,,,,,,,,,,,,,,,,,,,,,,,,,,,,,,,,,,,,,,,,,,,,
,,,,,,,,,,1597537,2020-10-30_13h06.11.976,swahili,2020.2.4,MacIntel,60,,,,,,,,,,0.394726562,0.461414931,1,0,0,2.0503,study_pile,5,0,5,0,1,PARROT - KASUKU,,,,,,,,,,,,,,,,,,,,,,,,,,,,,,,,,,,,,,,,,,,,,,,,,,,,,,,,,,,,,,,,,,,,,,,,,,,,,,,,
,,,,,,,,,,1597537,2020-10-30_13h06.11.976,swahili,2020.2.4,MacIntel,60,,,,,,,,,,-0.227827962,-0.068221933,1,0,0,1.014655,unsorted_card,6,0,6,0,1,,,,,,,,,,,,,,,,,,,,,,,,,,,,,,,,,,,,,,,,,,,,,,,,,,,,,,,,,,,,,,,,,,,,,,,,,,,,,,,,,
,,,,,,,,,,1597537,2020-10-30_13h06.11.976,swahili,2020.2.4,MacIntel,60,,,,,,,,,,0.452909342,0.499602141,1,0,0,0.86673,study_pile,7,0,7,0,1,BULL - FAHILI,,,,,,,,,,,,,,,,,,,,,,,,,,,,,,,,,,,,,,,,,,,,,,,,,,,,,,,,,,,,,,,,,,,,,,,,,,,,,,,,
,,,,,,,,,,1597537,2020-10-30_13h06.11.976,swahili,2020.2.4,MacIntel,60,,,,,,,,,,-0.226228841,0.111798322,1,0,0,0.598805,unsorted_card,8,0,8,0,1,,,,,,,,,,,,,,,,,,,,,,,,,,,,,,,,,,,,,,,,,,,,,,,,,,,,,,,,,,,,,,,,,,,,,,,,,,,,,,,,,
,,,,,,,,,,1597537,2020-10-30_13h06.11.976,swahili,2020.2.4,MacIntel,60,,,,,,,,,,0.391727702,0.485474537,1,0,0,0.930945,study_pile,9,0,9,0,1,PLATE - SAHANI,,,,,,,,,,,,,,,,,,,,,,,,,,,,,,,,,,,,,,,,,,,,,,,,,,,,,,,,,,,,,,,,,,,,,,,,,,,,,,,,
,,,,,,,,,,1597537,2020-10-30_13h06.11.976,swahili,2020.2.4,MacIntel,60,,,,,,,,,,-0.299544271,-0.010568576,1,0,0,0.58106,unsorted_card,10,0,10,0,1,,,,,,,,,,,,,,,,,,,,,,,,,,,,,,,,,,,,,,,,,,,,,,,,,,,,,,,,,,,,,,,,,,,,,,,,,,,,,,,,,
,,,,,,,,,,1597537,2020-10-30_13h06.11.976,swahili,2020.2.4,MacIntel,60,,,,,,,,,,0.451997884,0.470833333,1,0,0,0.93299,study_pile,11,0,11,0,1,YEAST - HAMIRA,,,,,,,,,,,,,,,,,,,,,,,,,,,,,,,,,,,,,,,,,,,,,,,,,,,,,,,,,,,,,,,,,,,,,,,,,,,,,,,,
,,,,,,,,,,1597537,2020-10-30_13h06.11.976,swahili,2020.2.4,MacIntel,60,,,,,,,,,,-0.136328125,0.140530961,1,0,0,0.597425,unsorted_card,12,0,12,0,1,,,,,,,,,,,,,,,,,,,,,,,,,,,,,,,,,,,,,,,,,,,,,,,,,,,,,,,,,,,,,,,,,,,,,,,,,,,,,,,,,
,,,,,,,,,,1597537,2020-10-30_13h06.11.976,swahili,2020.2.4,MacIntel,60,,,,,,,,,,0.446240234,0.530114294,1,0,0,1.773555,study_pile,13,0,13,0,1,BLAME - LAWAMA,,,,,,,,,,,,,,,,,,,,,,,,,,,,,,,,,,,,,,,,,,,,,,,,,,,,,,,,,,,,,,,,,,,,,,,,,,,,,,,,
,,,,,,,,,,1597537,2020-10-30_13h06.11.976,swahili,2020.2.4,MacIntel,60,,,,,,,,,,-0.190144857,0.01526331,1,0,0,0.664465,unsorted_card,14,0,14,0,1,,,,,,,,,,,,,,,,,,,,,,,,,,,,,,,,,,,,,,,,,,,,,,,,,,,,,,,,,,,,,,,,,,,,,,,,,,,,,,,,,
,,,,,,,,,,1597537,2020-10-30_13h06.11.976,swahili,2020.2.4,MacIntel,60,,,,,,,,,,0.411873372,0.499493634,1,0,0,1.634675,study_pile,15,0,15,0,1,OATH - YAMINI,,,,,,,,,,,,,,,,,,,,,,,,,,,,,,,,,,,,,,,,,,,,,,,,,,,,,,,,,,,,,,,,,,,,,,,,,,,,,,,,
,,,,,,,,,,1597537,2020-10-30_13h06.11.976,swahili,2020.2.4,MacIntel,60,,,,,,,,,,-0.343981934,0.025477431,1,0,0,1.13259,unsorted_card,16,0,16,0,1,,,,,,,,,,,,,,,,,,,,,,,,,,,,,,,,,,,,,,,,,,,,,,,,,,,,,,,,,,,,,,,,,,,,,,,,,,,,,,,,,
,,,,,,,,,,1597537,2020-10-30_13h06.11.976,swahili,2020.2.4,MacIntel,60,,,,,,,,,,0.332995605,0.403689236,1,0,0,1.41699,study_pile,17,0,17,0,1,CORN - NAFAKA,,,,,,,,,,,,,,,,,,,,,,,,,,,,,,,,,,,,,,,,,,,,,,,,,,,,,,,,,,,,,,,,,,,,,,,,,,,,,,,,
,,,,,,,,,,1597537,2020-10-30_13h06.11.976,swahili,2020.2.4,MacIntel,60,,,,,,,,,,-0.269669596,-0.00630787,1,0,0,1.08147,unsorted_card,18,0,18,0,1,,,,,,,,,,,,,,,,,,,,,,,,,,,,,,,,,,,,,,,,,,,,,,,,,,,,,,,,,,,,,,,,,,,,,,,,,,,,,,,,,
,,,,,,,,,,1597537,2020-10-30_13h06.11.976,swahili,2020.2.4,MacIntel,60,,,,,,,,,,0.486979167,0.477372685,1,0,0,1.015815,study_pile,19,0,19,0,1,POEM - UTENZI,,,,,,,,,,,,,,,,,,,,,,,,,,,,,,,,,,,,,,,,,,,,,,,,,,,,,,,,,,,,,,,,,,,,,,,,,,,,,,,,
,,,,,,,,,,1597537,2020-10-30_13h06.11.976,swahili,2020.2.4,MacIntel,60,,,,,,,,,,-0.193074544,-0.011935764,1,0,0,0.71486,unsorted_card,20,0,20,0,1,,,,,,,,,,,,,,,,,,,,,,,,,,,,,,,,,,,,,,,,,,,,,,,,,,,,,,,,,,,,,,,,,,,,,,,,,,,,,,,,,
,,,,,,,,,,1597537,2020-10-30_13h06.11.976,swahili,2020.2.4,MacIntel,60,,,,,,,,,,0.412231445,0.513881655,1,0,0,1.93987,study_pile,21,0,21,0,1,TAILOR - MSHONI,,,,,,,,,,,,,,,,,,,,,,,,,,,,,,,,,,,,,,,,,,,,,,,,,,,,,,,,,,,,,,,,,,,,,,,,,,,,,,,,
,,,,,,,,,,1597537,2020-10-30_13h06.11.976,swahili,2020.2.4,MacIntel,60,,,,,,,,,,-0.324312337,0.005432581,1,0,0,0.74817,unsorted_card,22,0,22,0,1,,,,,,,,,,,,,,,,,,,,,,,,,,,,,,,,,,,,,,,,,,,,,,,,,,,,,,,,,,,,,,,,,,,,,,,,,,,,,,,,,
,,,,,,,,,,1597537,2020-10-30_13h06.11.976,swahili,2020.2.4,MacIntel,60,,,,,,,,,,0.409777832,0.474001736,1,0,0,1.634245,study_pile,23,0,23,0,1,CHEESE - JIBINI,,,,,,,,,,,,,,,,,,,,,,,,,,,,,,,,,,,,,,,,,,,,,,,,,,,,,,,,,,,,,,,,,,,,,,,,,,,,,,,,
,,,,,,,,,,1597537,2020-10-30_13h06.11.976,swahili,2020.2.4,MacIntel,60,,,,,,,,,,-0.231217448,-0.059367766,1,0,0,1.133665,unsorted_card,24,0,24,0,1,,,,,,,,,,,,,,,,,,,,,,,,,,,,,,,,,,,,,,,,,,,,,,,,,,,,,,,,,,,,,,,,,,,,,,,,,,,,,,,,,
,,,,,,,,,,1597537,2020-10-30_13h06.11.976,swahili,2020.2.4,MacIntel,60,,,,,,,,,,0.463545736,0.488114873,1,0,0,2.58194,study_pile,25,0,25,0,1,GRAPES - ZABIBU,,,,,,,,,,,,,,,,,,,,,,,,,,,,,,,,,,,,,,,,,,,,,,,,,,,,,,,,,,,,,,,,,,,,,,,,,,,,,,,,
,,,,,,,,,,1597537,2020-10-30_13h06.11.976,swahili,2020.2.4,MacIntel,60,,,,,,,,,,-0.160457357,-0.084866898,1,0,0,0.782155,unsorted_card,26,0,26,0,1,,,,,,,,,,,,,,,,,,,,,,,,,,,,,,,,,,,,,,,,,,,,,,,,,,,,,,,,,,,,,,,,,,,,,,,,,,,,,,,,,
,,,,,,,,,,1597537,2020-10-30_13h06.11.976,swahili,2020.2.4,MacIntel,60,,,,,,,,,,0.438952637,0.528139468,1,0,0,1.115855,study_pile,27,0,27,0,1,GRAVE - KABURI,,,,,,,,,,,,,,,,,,,,,,,,,,,,,,,,,,,,,,,,,,,,,,,,,,,,,,,,,,,,,,,,,,,,,,,,,,,,,,,,
,,,,,,,,,,1597537,2020-10-30_13h06.11.976,swahili,2020.2.4,MacIntel,60,,,,,,,,,,-0.315242513,-0.15375434,1,0,0,0.665045,unsorted_card,28,0,28,0,1,,,,,,,,,,,,,,,,,,,,,,,,,,,,,,,,,,,,,,,,,,,,,,,,,,,,,,,,,,,,,,,,,,,,,,,,,,,,,,,,,
,,,,,,,,,,1597537,2020-10-30_13h06.11.976,swahili,2020.2.4,MacIntel,60,,,,,,,,,,0.45230306,0.465285012,1,0,0,3.42443,study_pile,29,0,29,0,1,MANURE - SAMADI,,,,,,,,,,,,,,,,,,,,,,,,,,,,,,,,,,,,,,,,,,,,,,,,,,,,,,,,,,,,,,,,,,,,,,,,,,,,,,,,
,,,,,,,,,,1597537,2020-10-30_13h06.11.976,swahili,2020.2.4,MacIntel,60,,,,,,,,,,-0.14358724,0.090639468,1,0,0,1.033995,unsorted_card,30,0,30,0,1,,,,,,,,,,,,,,,,,,,,,,,,,,,,,,,,,,,,,,,,,,,,,,,,,,,,,,,,,,,,,,,,,,,,,,,,,,,,,,,,,
,,,,,,,,,,1597537,2020-10-30_13h06.11.976,swahili,2020.2.4,MacIntel,60,,,,,,,,,,0.440498861,0.533015046,1,0,0,2.233505,study_pile,31,0,31,0,1,AGENT - WAKILI,,,,,,,,,,,,,,,,,,,,,,,,,,,,,,,,,,,,,,,,,,,,,,,,,,,,,,,,,,,,,,,,,,,,,,,,,,,,,,,,
,,,,,,,,,,1597537,2020-10-30_13h06.11.976,swahili,2020.2.4,MacIntel,60,,,,,,,,,,-0.196044922,-0.044328704,1,0,0,1.048785,unsorted_card,32,0,32,0,1,,,,,,,,,,,,,,,,,,,,,,,,,,,,,,,,,,,,,,,,,,,,,,,,,,,,,,,,,,,,,,,,,,,,,,,,,,,,,,,,,
,,,,,,,,,,1597537,2020-10-30_13h06.11.976,swahili,2020.2.4,MacIntel,60,,,,,,,,,,0.391255697,0.488823785,1,0,0,2.449305,study_pile,33,0,33,0,1,BRIBE - RUSHWA,,,,,,,,,,,,,,,,,,,,,,,,,,,,,,,,,,,,,,,,,,,,,,,,,,,,,,,,,,,,,,,,,,,,,,,,,,,,,,,,
,,,,,,,,,,1597537,2020-10-30_13h06.11.976,swahili,2020.2.4,MacIntel,60,,,,,,,,,,-0.397473145,-0.053616898,1,0,0,0.6151,unsorted_card,34,0,34,0,1,,,,,,,,,,,,,,,,,,,,,,,,,,,,,,,,,,,,,,,,,,,,,,,,,,,,,,,,,,,,,,,,,,,,,,,,,,,,,,,,,
,,,,,,,,,,1597537,2020-10-30_13h06.11.976,swahili,2020.2.4,MacIntel,60,,,,,,,,,,0.349153646,0.4322989,1,0,0,1.236465,study_pile,35,0,35,0,1,ORPHAN - YATIMA,,,,,,,,,,,,,,,,,,,,,,,,,,,,,,,,,,,,,,,,,,,,,,,,,,,,,,,,,,,,,,,,,,,,,,,,,,,,,,,,
,,,,,,,,,,1597537,2020-10-30_13h06.11.976,swahili,2020.2.4,MacIntel,60,,,,,,,,,,-0.120467122,0.136335359,1,0,0,0.8993,unsorted_card,36,0,36,0,1,,,,,,,,,,,,,,,,,,,,,,,,,,,,,,,,,,,,,,,,,,,,,,,,,,,,,,,,,,,,,,,,,,,,,,,,,,,,,,,,,
,,,,,,,,,,1597537,2020-10-30_13h06.11.976,swahili,2020.2.4,MacIntel,60,,,,,,,,,,0.506693522,0.492918113,1,0,0,1.117695,study_pile,37,0,37,0,1,DIVORCE - TALAKA,,,,,,,,,,,,,,,,,,,,,,,,,,,,,,,,,,,,,,,,,,,,,,,,,,,,,,,,,,,,,,,,,,,,,,,,,,,,,,,,
,,,,,,,,,,1597537,2020-10-30_13h06.11.976,swahili,2020.2.4,MacIntel,60,,,,,,,,,,-0.191194661,-0.005635127,1,0,0,0.914875,unsorted_card,38,0,38,0,1,,,,,,,,,,,,,,,,,,,,,,,,,,,,,,,,,,,,,,,,,,,,,,,,,,,,,,,,,,,,,,,,,,,,,,,,,,,,,,,,,
,,,,,,,,,,1597537,2020-10-30_13h06.11.976,swahili,2020.2.4,MacIntel,60,,,,,,,,,,0.464302572,0.519516782,1,0,0,0.94895,study_pile,39,0,39,0,1,BOAT - MASHUA,,,,,,,,,,,,,,,,,,,,,,,,,,,,,,,,,,,,,,,,,,,,,,,,,,,,,,,,,,,,,,,,,,,,,,,,,,,,,,,,
,,,,,,,,,,1597537,2020-10-30_13h06.11.976,swahili,2020.2.4,MacIntel,60,,,,,,,,,,-0.159997559,0.051757813,1,0,0,0.731265,unsorted_card,40,0,40,0,1,,,,,,,,,,,,,,,,,,,,,,,,,,,,,,,,,,,,,,,,,,,,,,,,,,,,,,,,,,,,,,,,,,,,,,,,,,,,,,,,,
,,,,,,,,,,1597537,2020-10-30_13h06.11.976,swahili,2020.2.4,MacIntel,60,,,,,,,,,,0.420446777,0.536378762,1,0,0,1.49801,study_pile,41,0,41,0,1,TREASURE - DAFINA,,,,,,,,,,,,,,,,,,,,,,,,,,,,,,,,,,,,,,,,,,,,,,,,,,,,,,,,,,,,,,,,,,,,,,,,,,,,,,,,
,,,,,,,,,,1597537,2020-10-30_13h06.11.976,swahili,2020.2.4,MacIntel,60,,,,,,,,,,,,,,,,,,,,,,GRAPES - ZABIBU,,,,,,,,return,4.799635,return,4.55007,0,0,0,0,1,,,,,,,,,,,,,,,,,,,,,,,,,,,,,,,,,,,,,,,,,,,,,,,,,,,,,,,,,,,,,,,,
,,,,,,,,,,1597537,2020-10-30_13h06.11.976,swahili,2020.2.4,MacIntel,60,,,,,,,,,,,,,,,,,,,,,,AGENT - WAKILI,,,,,,,,,,return,4.89405,1,0,1,0,1,,,,,,,,,,,,,,,,,,,,,,,,,,,,,,,,,,,,,,,,,,,,,,,,,,,,,,,,,,,,,,,,
,,,,,,,,,,1597537,2020-10-30_13h06.11.976,swahili,2020.2.4,MacIntel,60,,,,,,,,,,,,,,,,,,,,,,MANURE - SAMADI,,,,,,,,,,return,2.5668,2,0,2,0,1,,,,,,,,,,,,,,,,,,,,,,,,,,,,,,,,,,,,,,,,,,,,,,,,,,,,,,,,,,,,,,,,
,,,,,,,,,,1597537,2020-10-30_13h06.11.976,swahili,2020.2.4,MacIntel,60,,,,,,,,,,,,,,,,,,,,,,TAILOR - MSHONI,,,,,,,,,,return,3.565715,3,0,3,0,1,,,,,,,,,,,,,,,,,,,,,,,,,,,,,,,,,,,,,,,,,,,,,,,,,,,,,,,,,,,,,,,,
,,,,,,,,,,1597537,2020-10-30_13h06.11.976,swahili,2020.2.4,MacIntel,60,,,,,,,,,,,,,,,,,,,,,,CHEESE - JIBINI,,,,,,,,,,return,3.52915,4,0,4,0,1,,,,,,,,,,,,,,,,,,,,,,,,,,,,,,,,,,,,,,,,,,,,,,,,,,,,,,,,,,,,,,,,
,,,,,,,,,,1597537,2020-10-30_13h06.11.976,swahili,2020.2.4,MacIntel,60,,,,,,,,,,,,,,,,,,,,,,ORPHAN - YATIMA,,,,,,,,,,return,4.151045,5,0,5,0,1,,,,,,,,,,,,,,,,,,,,,,,,,,,,,,,,,,,,,,,,,,,,,,,,,,,,,,,,,,,,,,,,
,,,,,,,,,,1597537,2020-10-30_13h06.11.976,swahili,2020.2.4,MacIntel,60,,,,,,,,,,,,,,,,,,,,,,GRAVE - KABURI,,,,,,,,,,return,4.252435,6,0,6,0,1,,,,,,,,,,,,,,,,,,,,,,,,,,,,,,,,,,,,,,,,,,,,,,,,,,,,,,,,,,,,,,,,
,,,,,,,,,,1597537,2020-10-30_13h06.11.976,swahili,2020.2.4,MacIntel,60,,,,,,,,,,,,,,,,,,,,,,YEAST - HAMIRA,,,,,,,,,,return,5.648675,7,0,7,0,1,,,,,,,,,,,,,,,,,,,,,,,,,,,,,,,,,,,,,,,,,,,,,,,,,,,,,,,,,,,,,,,,
,,,,,,,,,,1597537,2020-10-30_13h06.11.976,swahili,2020.2.4,MacIntel,60,,,,,,,,,,,,,,,,,,,,,,PARROT - KASUKU,,,,,,,,,,return,6.91606,8,0,8,0,1,,,,,,,,,,,,,,,,,,,,,,,,,,,,,,,,,,,,,,,,,,,,,,,,,,,,,,,,,,,,,,,,
,,,,,,,,,,1597537,2020-10-30_13h06.11.976,swahili,2020.2.4,MacIntel,60,,,,,,,,,,,,,,,,,,,,,,TREASURE - DAFINA,,,,,,,,,,return,7.224975,9,0,9,0,1,,,,,,,,,,,,,,,,,,,,,,,,,,,,,,,,,,,,,,,,,,,,,,,,,,,,,,,,,,,,,,,,
,,,,,,,,,,1597537,2020-10-30_13h06.11.976,swahili,2020.2.4,MacIntel,60,,,,,,,,,,,,,,,,,,,,,,BULL - FAHILI,,,,,,,,,,return,4.34204,10,0,10,0,1,,,,,,,,,,,,,,,,,,,,,,,,,,,,,,,,,,,,,,,,,,,,,,,,,,,,,,,,,,,,,,,,
,,,,,,,,,,1597537,2020-10-30_13h06.11.976,swahili,2020.2.4,MacIntel,60,,,,,,,,,,,,,,,,,,,,,,BOAT - MASHUA,,,,,,,,,,return,5.16043,11,0,11,0,1,,,,,,,,,,,,,,,,,,,,,,,,,,,,,,,,,,,,,,,,,,,,,,,,,,,,,,,,,,,,,,,,
,,,,,,,,,,1597537,2020-10-30_13h06.11.976,swahili,2020.2.4,MacIntel,60,,,,,,,,,,,,,,,,,,,,,,POEM - UTENZI,,,,,,,,,,return,4.760785,12,0,12,0,1,,,,,,,,,,,,,,,,,,,,,,,,,,,,,,,,,,,,,,,,,,,,,,,,,,,,,,,,,,,,,,,,
,,,,,,,,,,1597537,2020-10-30_13h06.11.976,swahili,2020.2.4,MacIntel,60,,,,,,,,,,,,,,,,,,,,,,OATH - YAMINI,,,,,,,,,,return,1.280905,13,0,13,0,1,,,,,,,,,,,,,,,,,,,,,,,,,,,,,,,,,,,,,,,,,,,,,,,,,,,,,,,,,,,,,,,,
,,,,,,,,,,1597537,2020-10-30_13h06.11.976,swahili,2020.2.4,MacIntel,60,,,,,,,,,,,,,,,,,,,,,,MERCHANT - TAJIRI,,,,,,,,,,return,5.47946,14,0,14,0,1,,,,,,,,,,,,,,,,,,,,,,,,,,,,,,,,,,,,,,,,,,,,,,,,,,,,,,,,,,,,,,,,
,,,,,,,,,,1597537,2020-10-30_13h06.11.976,swahili,2020.2.4,MacIntel,60,,,,,,,,,,,,,,,,,,,,,,BRIBE - RUSHWA,,,,,,,,,,return,4.850695,15,0,15,0,1,,,,,,,,,,,,,,,,,,,,,,,,,,,,,,,,,,,,,,,,,,,,,,,,,,,,,,,,,,,,,,,,
,,,,,,,,,,1597537,2020-10-30_13h06.11.976,swahili,2020.2.4,MacIntel,60,,,,,,,,,,,,,,,,,,,,,,DIVORCE - TALAKA,,,,,,,,,,return,4.45249,16,0,16,0,1,,,,,,,,,,,,,,,,,,,,,,,,,,,,,,,,,,,,,,,,,,,,,,,,,,,,,,,,,,,,,,,,
,,,,,,,,,,1597537,2020-10-30_13h06.11.976,swahili,2020.2.4,MacIntel,60,,,,,,,,,,,,,,,,,,,,,,BLAME - LAWAMA,,,,,,,,,,return,4.0803,17,0,17,0,1,,,,,,,,,,,,,,,,,,,,,,,,,,,,,,,,,,,,,,,,,,,,,,,,,,,,,,,,,,,,,,,,
,,,,,,,,,,1597537,2020-10-30_13h06.11.976,swahili,2020.2.4,MacIntel,60,,,,,,,,,,,,,,,,,,,,,,CORN - NAFAKA,,,,,,,,,,return,4.111395,18,0,18,0,1,,,,,,,,,,,,,,,,,,,,,,,,,,,,,,,,,,,,,,,,,,,,,,,,,,,,,,,,,,,,,,,,
,,,,,,,,,,1597537,2020-10-30_13h06.11.976,swahili,2020.2.4,MacIntel,60,,,,,,,,,,,,,,,,,,,,,,PLATE - SAHANI,,,,,,,,,,return,2.0032,19,0,19,0,1,,,,,,,,,,,,,,,,,,,,,,,,,,,,,,,,,,,,,,,,,,,,,,,,,,,,,,,,,,,,,,,,
,,,,,,,,,,1597537,2020-10-30_13h06.11.976,swahili,2020.2.4,MacIntel,60,,,,,,,,,,,,,,,,,,,,,,,,,,,,,,,,,,,,,,,,0,0,0,0,1,,,,,,,,,,,,,,,,,,,,,,,,,,,,,,,,,,,,,,,,,,,,,,,,,,,,,,,,,,
,,,,,,,,,,1597537,2020-10-30_13h06.11.976,swahili,2020.2.4,MacIntel,60,,,,,,,,,,,,,,,,,,,,,,,,,,,,,,,,,,,,,,,,1,0,1,0,1,,,,,,,,,,,,,,,,,,,,,,,,,,,,,,,,,,,,,,,,,,,,,,,,,,,,,,,,,,
,,,,,,,,,,1597537,2020-10-30_13h06.11.976,swahili,2020.2.4,MacIntel,60,,,,,,,,,,,,,,,,,,,,,,,,,,,,,,,,,,,,,,,,,,,,,0,0,0,0,1,,,,,,,,,,,,,,,,,,,,,,,,,,,,,,,,,,,,,,,,,,,,,,,,,,,,,
,,,,,,,,,,1597537,2020-10-30_13h06.11.976,swahili,2020.2.4,MacIntel,60,,,,,,,,,,-0.248291016,-0.103139468,1,0,0,3.47593,unsorted_card,0,0,0,0,1,,,,,,,,,,,,,,,,,,,,,,,,,,,,,,,,,,,,,,,,,,,,,,,,,,,,,,,,,,,,,,,,,,,,,,,,,,,,,,,,,
,,,,,,,,,,1597537,2020-10-30_13h06.11.976,swahili,2020.2.4,MacIntel,60,,,,,,,,,,0.480578613,0.046846065,1,0,0,3.000755,test_pile,1,0,1,0,1,MERCHANT - TAJIRI,,,,,,,,,,,,,,,,,,,,,,,,,,,,,,,,,,,,,,,,,,,,,,,,,,,,,,,,,,,,,,,,,,,,,,,,,,,,,,,,
,,,,,,,,,,1597537,2020-10-30_13h06.11.976,swahili,2020.2.4,MacIntel,60,,,,,,,,,,-0.347517904,0.16968316,1,0,0,0.629625,unsorted_card,2,0,2,0,1,,,,,,,,,,,,,,,,,,,,,,,,,,,,,,,,,,,,,,,,,,,,,,,,,,,,,,,,,,,,,,,,,,,,,,,,,,,,,,,,,
,,,,,,,,,,1597537,2020-10-30_13h06.11.976,swahili,2020.2.4,MacIntel,60,,,,,,,,,,0.523787435,0.04146412,1,0,0,1.951175,test_pile,3,0,3,0,1,PARROT - KASUKU,,,,,,,,,,,,,,,,,,,,,,,,,,,,,,,,,,,,,,,,,,,,,,,,,,,,,,,,,,,,,,,,,,,,,,,,,,,,,,,,
,,,,,,,,,,1597537,2020-10-30_13h06.11.976,swahili,2020.2.4,MacIntel,60,,,,,,,,,,-0.279602051,-0.101106771,1,0,0,0.665965,unsorted_card,4,0,4,0,1,,,,,,,,,,,,,,,,,,,,,,,,,,,,,,,,,,,,,,,,,,,,,,,,,,,,,,,,,,,,,,,,,,,,,,,,,,,,,,,,,
,,,,,,,,,,1597537,2020-10-30_13h06.11.976,swahili,2020.2.4,MacIntel,60,,,,,,,,,,0.41451416,0.103768808,1,0,0,1.772125,test_pile,5,0,5,0,1,BULL - FAHILI,,,,,,,,,,,,,,,,,,,,,,,,,,,,,,,,,,,,,,,,,,,,,,,,,,,,,,,,,,,,,,,,,,,,,,,,,,,,,,,,
,,,,,,,,,,1597537,2020-10-30_13h06.11.976,swahili,2020.2.4,MacIntel,60,,,,,,,,,,-0.193273926,0.161791088,1,0,0,1.516335,unsorted_card,6,0,6,0,1,,,,,,,,,,,,,,,,,,,,,,,,,,,,,,,,,,,,,,,,,,,,,,,,,,,,,,,,,,,,,,,,,,,,,,,,,,,,,,,,,
,,,,,,,,,,1597537,2020-10-30_13h06.11.976,swahili,2020.2.4,MacIntel,60,,,,,,,,,,0.551212565,0.507798032,1,0,0,2.133735,study_pile,7,0,7,0,1,PLATE - SAHANI,,,,,,,,,,,,,,,,,,,,,,,,,,,,,,,,,,,,,,,,,,,,,,,,,,,,,,,,,,,,,,,,,,,,,,,,,,,,,,,,
,,,,,,,,,,1597537,2020-10-30_13h06.11.976,swahili,2020.2.4,MacIntel,60,,,,,,,,,,-0.211767578,-0.089532697,1,0,0,0.71768,unsorted_card,8,0,8,0,1,,,,,,,,,,,,,,,,,,,,,,,,,,,,,,,,,,,,,,,,,,,,,,,,,,,,,,,,,,,,,,,,,,,,,,,,,,,,,,,,,
,,,,,,,,,,1597537,2020-10-30_13h06.11.976,swahili,2020.2.4,MacIntel,60,,,,,,,,,,0.468835449,0.43395544,1,0,0,7.980165,study_pile,9,0,9,0,1,YEAST - HAMIRA,,,,,,,,,,,,,,,,,,,,,,,,,,,,,,,,,,,,,,,,,,,,,,,,,,,,,,,,,,,,,,,,,,,,,,,,,,,,,,,,
,,,,,,,,,,1597537,2020-10-30_13h06.11.976,swahili,2020.2.4,MacIntel,60,,,,,,,,,,-0.207897949,0.032718461,1,0,0,2.13131,unsorted_card,10,0,10,0,1,,,,,,,,,,,,,,,,,,,,,,,,,,,,,,,,,,,,,,,,,,,,,,,,,,,,,,,,,,,,,,,,,,,,,,,,,,,,,,,,,
,,,,,,,,,,1597537,2020-10-30_13h06.11.976,swahili,2020.2.4,MacIntel,60,,,,,,,,,,0.463948568,0.350217014,1,0,0,3.751085,study_pile,11,0,11,0,1,BLAME - LAWAMA,,,,,,,,,,,,,,,,,,,,,,,,,,,,,,,,,,,,,,,,,,,,,,,,,,,,,,,,,,,,,,,,,,,,,,,,,,,,,,,,
,,,,,,,,,,1597537,2020-10-30_13h06.11.976,swahili,2020.2.4,MacIntel,60,,,,,,,,,,-0.321358236,0.075716146,1,0,0,0.90586,unsorted_card,12,0,12,0,1,,,,,,,,,,,,,,,,,,,,,,,,,,,,,,,,,,,,,,,,,,,,,,,,,,,,,,,,,,,,,,,,,,,,,,,,,,,,,,,,,
,,,,,,,,,,1597537,2020-10-30_13h06.11.976,swahili,2020.2.4,MacIntel,60,,,,,,,,,,0.346158854,-0.013266782,1,0,0,1.431825,test_pile,13,0,13,0,1,OATH - YAMINI,,,,,,,,,,,,,,,,,,,,,,,,,,,,,,,,,,,,,,,,,,,,,,,,,,,,,,,,,,,,,,,,,,,,,,,,,,,,,,,,
,,,,,,,,,,1597537,2020-10-30_13h06.11.976,swahili,2020.2.4,MacIntel,60,,,,,,,,,,-0.253271484,0.170905671,1,0,0,0.56522,unsorted_card,14,0,14,0,1,,,,,,,,,,,,,,,,,,,,,,,,,,,,,,,,,,,,,,,,,,,,,,,,,,,,,,,,,,,,,,,,,,,,,,,,,,,,,,,,,
,,,,,,,,,,1597537,2020-10-30_13h06.11.976,swahili,2020.2.4,MacIntel,60,,,,,,,,,,0.424068197,0.393019387,1,0,0,3.569325,study_pile,15,0,15,0,1,CORN - NAFAKA,,,,,,,,,,,,,,,,,,,,,,,,,,,,,,,,,,,,,,,,,,,,,,,,,,,,,,,,,,,,,,,,,,,,,,,,,,,,,,,,
,,,,,,,,,,1597537,2020-10-30_13h06.11.976,swahili,2020.2.4,MacIntel,60,,,,,,,,,,-0.227901204,-0.055338542,1,0,0,0.68194,unsorted_card,16,0,16,0,1,,,,,,,,,,,,,,,,,,,,,,,,,,,,,,,,,,,,,,,,,,,,,,,,,,,,,,,,,,,,,,,,,,,,,,,,,,,,,,,,,
,,,,,,,,,,1597537,2020-10-30_13h06.11.976,swahili,2020.2.4,MacIntel,60,,,,,,,,,,0.421789551,-0.032175926,1,0,0,2.015285,test_pile,17,0,17,0,1,POEM - UTENZI,,,,,,,,,,,,,,,,,,,,,,,,,,,,,,,,,,,,,,,,,,,,,,,,,,,,,,,,,,,,,,,,,,,,,,,,,,,,,,,,
,,,,,,,,,,1597537,2020-10-30_13h06.11.976,swahili,2020.2.4,MacIntel,60,,,,,,,,,,-0.142285156,-0.013006366,1,0,0,0.765625,unsorted_card,18,0,18,0,1,,,,,,,,,,,,,,,,,,,,,,,,,,,,,,,,,,,,,,,,,,,,,,,,,,,,,,,,,,,,,,,,,,,,,,,,,,,,,,,,,
,,,,,,,,,,1597537,2020-10-30_13h06.11.976,swahili,2020.2.4,MacIntel,60,,,,,,,,,,0.430546061,0.441854745,1,0,0,2.004835,study_pile,19,0,19,0,1,TAILOR - MSHONI,,,,,,,,,,,,,,,,,,,,,,,,,,,,,,,,,,,,,,,,,,,,,,,,,,,,,,,,,,,,,,,,,,,,,,,,,,,,,,,,
,,,,,,,,,,1597537,2020-10-30_13h06.11.976,swahili,2020.2.4,MacIntel,60,,,,,,,,,,-0.17249349,0.051381655,1,0,0,0.748765,unsorted_card,20,0,20,0,1,,,,,,,,,,,,,,,,,,,,,,,,,,,,,,,,,,,,,,,,,,,,,,,,,,,,,,,,,,,,,,,,,,,,,,,,,,,,,,,,,
,,,,,,,,,,1597537,2020-10-30_13h06.11.976,swahili,2020.2.4,MacIntel,60,,,,,,,,,,0.483650716,-0.090661169,1,0,0,1.583835,test_pile,21,0,21,0,1,CHEESE - JIBINI,,,,,,,,,,,,,,,,,,,,,,,,,,,,,,,,,,,,,,,,,,,,,,,,,,,,,,,,,,,,,,,,,,,,,,,,,,,,,,,,
,,,,,,,,,,1597537,2020-10-30_13h06.11.976,swahili,2020.2.4,MacIntel,60,,,,,,,,,,-0.221252441,-0.210206887,1,0,0,0.61487,unsorted_card,22,0,22,0,1,,,,,,,,,,,,,,,,,,,,,,,,,,,,,,,,,,,,,,,,,,,,,,,,,,,,,,,,,,,,,,,,,,,,,,,,,,,,,,,,,
,,,,,,,,,,1597537,2020-10-30_13h06.11.976,swahili,2020.2.4,MacIntel,60,,,,,,,,,,0.549564616,0.475889757,1,0,0,2.151915,study_pile,23,0,23,0,1,GRAPES - ZABIBU,,,,,,,,,,,,,,,,,,,,,,,,,,,,,,,,,,,,,,,,,,,,,,,,,,,,,,,,,,,,,,,,,,,,,,,,,,,,,,,,
,,,,,,,,,,1597537,2020-10-30_13h06.11.976,swahili,2020.2.4,MacIntel,60,,,,,,,,,,-0.202685547,0.091739005,1,0,0,1.048115,unsorted_card,24,0,24,0,1,,,,,,,,,,,,,,,,,,,,,,,,,,,,,,,,,,,,,,,,,,,,,,,,,,,,,,,,,,,,,,,,,,,,,,,,,,,,,,,,,
,,,,,,,,,,1597537,2020-10-30_13h06.11.976,swahili,2020.2.4,MacIntel,60,,,,,,,,,,0.503133138,0.080866609,1,0,0,3.12357,test_pile,25,0,25,0,1,GRAVE - KABURI,,,,,,,,,,,,,,,,,,,,,,,,,,,,,,,,,,,,,,,,,,,,,,,,,,,,,,,,,,,,,,,,,,,,,,,,,,,,,,,,
,,,,,,,,,,1597537,2020-10-30_13h06.11.976,swahili,2020.2.4,MacIntel,60,,,,,,,,,,-0.209098307,0.043786169,1,0,0,2.650925,unsorted_card,26,0,26,0,1,,,,,,,,,,,,,,,,,,,,,,,,,,,,,,,,,,,,,,,,,,,,,,,,,,,,,,,,,,,,,,,,,,,,,,,,,,,,,,,,,
,,,,,,,,,,1597537,2020-10-30_13h06.11.976,swahili,2020.2.4,MacIntel,60,,,,,,,,,,0.557515462,0.545493345,1,0,0,1.665895,study_pile,27,0,27,0,1,MANURE - SAMADI,,,,,,,,,,,,,,,,,,,,,,,,,,,,,,,,,,,,,,,,,,,,,,,,,,,,,,,,,,,,,,,,,,,,,,,,,,,,,,,,
,,,,,,,,,,1597537,2020-10-30_13h06.11.976,swahili,2020.2.4,MacIntel,60,,,,,,,,,,-0.201782227,0.123365162,1,0,0,0.717105,unsorted_card,28,0,28,0,1,,,,,,,,,,,,,,,,,,,,,,,,,,,,,,,,,,,,,,,,,,,,,,,,,,,,,,,,,,,,,,,,,,,,,,,,,,,,,,,,,
,,,,,,,,,,1597537,2020-10-30_13h06.11.976,swahili,2020.2.4,MacIntel,60,,,,,,,,,,0.539542643,0.500889757,1,0,0,1.78258,study_pile,29,0,29,0,1,AGENT - WAKILI,,,,,,,,,,,,,,,,,,,,,,,,,,,,,,,,,,,,,,,,,,,,,,,,,,,,,,,,,,,,,,,,,,,,,,,,,,,,,,,,
,,,,,,,,,,1597537,2020-10-30_13h06.11.976,swahili,2020.2.4,MacIntel,60,,,,,,,,,,-0.215775553,-0.026605903,1,0,0,1.20008,unsorted_card,30,0,30,0,1,,,,,,,,,,,,,,,,,,,,,,,,,,,,,,,,,,,,,,,,,,,,,,,,,,,,,,,,,,,,,,,,,,,,,,,,,,,,,,,,,
,,,,,,,,,,1597537,2020-10-30_13h06.11.976,swahili,2020.2.4,MacIntel,60,,,,,,,,,,0.479012044,0.468735532,1,0,0,2.422985,study_pile,31,0,31,0,1,BRIBE - RUSHWA,,,,,,,,,,,,,,,,,,,,,,,,,,,,,,,,,,,,,,,,,,,,,,,,,,,,,,,,,,,,,,,,,,,,,,,,,,,,,,,,
,,,,,,,,,,1597537,2020-10-30_13h06.11.976,swahili,2020.2.4,MacIntel,60,,,,,,,,,,-0.206713867,0.06556713,1,0,0,0.633495,unsorted_card,32,0,32,0,1,,,,,,,,,,,,,,,,,,,,,,,,,,,,,,,,,,,,,,,,,,,,,,,,,,,,,,,,,,,,,,,,,,,,,,,,,,,,,,,,,
,,,,,,,,,,1597537,2020-10-30_13h06.11.976,swahili,2020.2.4,MacIntel,60,,,,,,,,,,0.453731283,0.394104456,1,0,0,2.86762,study_pile,33,0,33,0,1,ORPHAN - YATIMA,,,,,,,,,,,,,,,,,,,,,,,,,,,,,,,,,,,,,,,,,,,,,,,,,,,,,,,,,,,,,,,,,,,,,,,,,,,,,,,,
,,,,,,,,,,1597537,2020-10-30_13h06.11.976,swahili,2020.2.4,MacIntel,60,,,,,,,,,,-0.335070801,0.013483796,1,0,0,0.73237,unsorted_card,34,0,34,0,1,,,,,,,,,,,,,,,,,,,,,,,,,,,,,,,,,,,,,,,,,,,,,,,,,,,,,,,,,,,,,,,,,,,,,,,,,,,,,,,,,
,,,,,,,,,,1597537,2020-10-30_13h06.11.976,swahili,2020.2.4,MacIntel,60,,,,,,,,,,0.505993652,0.454947917,1,0,0,3.4851,study_pile,35,0,35,0,1,DIVORCE - TALAKA,,,,,,,,,,,,,,,,,,,,,,,,,,,,,,,,,,,,,,,,,,,,,,,,,,,,,,,,,,,,,,,,,,,,,,,,,,,,,,,,
,,,,,,,,,,1597537,2020-10-30_13h06.11.976,swahili,2020.2.4,MacIntel,60,,,,,,,,,,-0.319710286,0.0046875,1,0,0,0.9178,unsorted_card,36,0,36,0,1,,,,,,,,,,,,,,,,,,,,,,,,,,,,,,,,,,,,,,,,,,,,,,,,,,,,,,,,,,,,,,,,,,,,,,,,,,,,,,,,,
,,,,,,,,,,1597537,2020-10-30_13h06.11.976,swahili,2020.2.4,MacIntel,60,,,,,,,,,,0.485888672,0.471390336,1,0,0,1.135815,study_pile,37,0,37,0,1,BOAT - MASHUA,,,,,,,,,,,,,,,,,,,,,,,,,,,,,,,,,,,,,,,,,,,,,,,,,,,,,,,,,,,,,,,,,,,,,,,,,,,,,,,,
,,,,,,,,,,1597537,2020-10-30_13h06.11.976,swahili,2020.2.4,MacIntel,60,,,,,,,,,,-0.196158854,0.148184317,1,0,0,0.56446,unsorted_card,38,0,38,0,1,,,,,,,,,,,,,,,,,,,,,,,,,,,,,,,,,,,,,,,,,,,,,,,,,,,,,,,,,,,,,,,,,,,,,,,,,,,,,,,,,
,,,,,,,,,,1597537,2020-10-30_13h06.11.976,swahili,2020.2.4,MacIntel,60,,,,,,,,,,0.456095378,0.433188657,1,0,0,0.86661,study_pile,39,0,39,0,1,TREASURE - DAFINA,,,,,,,,,,,,,,,,,,,,,,,,,,,,,,,,,,,,,,,,,,,,,,,,,,,,,,,,,,,,,,,,,,,,,,,,,,,,,,,,
,,,,,,,,,,1597537,2020-10-30_13h06.11.976,swahili,2020.2.4,MacIntel,60,,,,,,,,,,,,,,,,,,,,,,DIVORCE - TALAKA,-0.550948079,0.082284433,1,0,0,1.48409,study_first,return,2.734105,return,5.093315,0,0,0,0,1,,,,,,,,,,,,,,,,,,,,,,,,,,,,,,,,,,,,,,,,,,,,,,,,,,,,,,,,,,,,,,,,
,,,,,,,,,,1597537,2020-10-30_13h06.11.976,swahili,2020.2.4,MacIntel,60,,,,,,,,,,,,,,,,,,,,,,TAILOR - MSHONI,,,,,,,,,,return,5.62859,1,0,1,0,1,,,,,,,,,,,,,,,,,,,,,,,,,,,,,,,,,,,,,,,,,,,,,,,,,,,,,,,,,,,,,,,,
,,,,,,,,,,1597537,2020-10-30_13h06.11.976,swahili,2020.2.4,MacIntel,60,,,,,,,,,,,,,,,,,,,,,,CORN - NAFAKA,,,,,,,,,,return,7.31954,2,0,2,0,1,,,,,,,,,,,,,,,,,,,,,,,,,,,,,,,,,,,,,,,,,,,,,,,,,,,,,,,,,,,,,,,,
,,,,,,,,,,1597537,2020-10-30_13h06.11.976,swahili,2020.2.4,MacIntel,60,,,,,,,,,,,,,,,,,,,,,,ORPHAN - YATIMA,,,,,,,,,,return,4.08439,3,0,3,0,1,,,,,,,,,,,,,,,,,,,,,,,,,,,,,,,,,,,,,,,,,,,,,,,,,,,,,,,,,,,,,,,,
,,,,,,,,,,1597537,2020-10-30_13h06.11.976,swahili,2020.2.4,MacIntel,60,,,,,,,,,,,,,,,,,,,,,,GRAPES - ZABIBU,,,,,,,,,,return,4.16097,4,0,4,0,1,,,,,,,,,,,,,,,,,,,,,,,,,,,,,,,,,,,,,,,,,,,,,,,,,,,,,,,,,,,,,,,,
,,,,,,,,,,1597537,2020-10-30_13h06.11.976,swahili,2020.2.4,MacIntel,60,,,,,,,,,,,,,,,,,,,,,,MANURE - SAMADI,,,,,,,,,,return,6.059065,5,0,5,0,1,,,,,,,,,,,,,,,,,,,,,,,,,,,,,,,,,,,,,,,,,,,,,,,,,,,,,,,,,,,,,,,,
,,,,,,,,,,1597537,2020-10-30_13h06.11.976,swahili,2020.2.4,MacIntel,60,,,,,,,,,,,,,,,,,,,,,,BOAT - MASHUA,,,,,,,,,,return,6.68223,6,0,6,0,1,,,,,,,,,,,,,,,,,,,,,,,,,,,,,,,,,,,,,,,,,,,,,,,,,,,,,,,,,,,,,,,,
,,,,,,,,,,1597537,2020-10-30_13h06.11.976,swahili,2020.2.4,MacIntel,60,,,,,,,,,,,,,,,,,,,,,,TREASURE - DAFINA,,,,,,,,,,return,4.25798,7,0,7,0,1,,,,,,,,,,,,,,,,,,,,,,,,,,,,,,,,,,,,,,,,,,,,,,,,,,,,,,,,,,,,,,,,
,,,,,,,,,,1597537,2020-10-30_13h06.11.976,swahili,2020.2.4,MacIntel,60,,,,,,,,,,,,,,,,,,,,,,PLATE - SAHANI,,,,,,,,,,return,3.147575,8,0,8,0,1,,,,,,,,,,,,,,,,,,,,,,,,,,,,,,,,,,,,,,,,,,,,,,,,,,,,,,,,,,,,,,,,
,,,,,,,,,,1597537,2020-10-30_13h06.11.976,swahili,2020.2.4,MacIntel,60,,,,,,,,,,,,,,,,,,,,,,BRIBE - RUSHWA,,,,,,,,,,return,1.807365,9,0,9,0,1,,,,,,,,,,,,,,,,,,,,,,,,,,,,,,,,,,,,,,,,,,,,,,,,,,,,,,,,,,,,,,,,
,,,,,,,,,,1597537,2020-10-30_13h06.11.976,swahili,2020.2.4,MacIntel,60,,,,,,,,,,,,,,,,,,,,,,BLAME - LAWAMA,,,,,,,,,,return,1.655055,10,0,10,0,1,,,,,,,,,,,,,,,,,,,,,,,,,,,,,,,,,,,,,,,,,,,,,,,,,,,,,,,,,,,,,,,,
,,,,,,,,,,1597537,2020-10-30_13h06.11.976,swahili,2020.2.4,MacIntel,60,,,,,,,,,,,,,,,,,,,,,,YEAST - HAMIRA,,,,,,,,,,return,3.66402,11,0,11,0,1,,,,,,,,,,,,,,,,,,,,,,,,,,,,,,,,,,,,,,,,,,,,,,,,,,,,,,,,,,,,,,,,
,,,,,,,,,,1597537,2020-10-30_13h06.11.976,swahili,2020.2.4,MacIntel,60,,,,,,,,,,,,,,,,,,,,,,AGENT - WAKILI,,,,,,,,,,return,1.571085,12,0,12,0,1,,,,,,,,,,,,,,,,,,,,,,,,,,,,,,,,,,,,,,,,,,,,,,,,,,,,,,,,,,,,,,,,
,,,,,,,,,,1597537,2020-10-30_13h06.11.976,swahili,2020.2.4,MacIntel,60,,,,,,,,,,,,,,,,,,,,,,,,,,,,,,,,,,,,,,,,0,0,0,0,1,,,,,,,,,,,,,,,,,,,,,,,,,,,,,,,,,,,,,,,,,,,,,,,,,,,,,,,,,,
,,,,,,,,,,1597537,2020-10-30_13h06.11.976,swahili,2020.2.4,MacIntel,60,,,,,,,,,,,,,,,,,,,,,,,,,,,,,,,,,,0,0,0,0,1,,,,,,,,,,,,,,,,,,,,,,,,,,,,,,,,,,,,,,,,,,,,,,,,,,,,,,,,,,,,,,,,
,,,,,,,,,,1597537,2020-10-30_13h06.11.976,swahili,2020.2.4,MacIntel,60,,,,,,,,,,,,,,,,,,,,,,,,,,,,,,,,,,,,,,,return,,,,,,,,,,,0.984865,32.514115,0.375553385,-0.106032986,1,0,0,1.71555,yes,MERCHANT,FAKAILA,incorrect,0,0,0,0,1,,,,,,,,,,,,,,,,,,,,,,,,,,,,,,,,,,,,
,,,,,,,,,,1597537,2020-10-30_13h06.11.976,swahili,2020.2.4,MacIntel,60,,,,,,,,,,,,,,,,,,,,,,,,,,,,,,,,,,,,,,,,,,,,,,,,,,,6.593475,0.360087077,-0.140270544,1,0,0,0.883565,yes,PARROT,KATSUMI,incorrect,1,0,1,0,1,,,,,,,,,,,,,,,,,,,,,,,,,,,,,,,,,,,,
,,,,,,,,,,1597537,2020-10-30_13h06.11.976,swahili,2020.2.4,MacIntel,60,,,,,,,,,,,,,,,,,,,,,,,,,,,,,,,,,,,,,,,,,,,,,,,,,,,2.889745,0.384073893,-0.133868634,1,0,0,0.851205,yes,CHEESE,JIBINI,incorrect,2,0,2,0,1,,,,,,,,,,,,,,,,,,,,,,,,,,,,,,,,,,,,
,,,,,,,,,,1597537,2020-10-30_13h06.11.976,swahili,2020.2.4,MacIntel,60,,,,,,,,,,,,,,,,,,,,,,,,,,,,,,,,,,,,,,,,,,,,,,,,,,,5.935965,0.372705078,-0.101446759,1,0,0,0.957035,yes,GRAVE,SJSJS,incorrect,3,0,3,0,1,,,,,,,,,,,,,,,,,,,,,,,,,,,,,,,,,,,,
,,,,,,,,,,1597537,2020-10-30_13h06.11.976,swahili,2020.2.4,MacIntel,60,,,,,,,,,,,,,,,,,,,,,,,,,,,,,,,,,,,,,,,,,,,,,,,,,,,5.420555,0.343180339,-0.163512731,1,0,0,0.967735,yes,POEM,UTENIS,incorrect,4,0,4,0,1,,,,,,,,,,,,,,,,,,,,,,,,,,,,,,,,,,,,
,,,,,,,,,,1597537,2020-10-30_13h06.11.976,swahili,2020.2.4,MacIntel,60,,,,,,,,,,,,,,,,,,,,,,,,,,,,,,,,,,,,,,,,,,,,,,,,,,,3.20173,0.426745605,-0.09672309,1,0,0,0.81725,yes,BULL,FAHILI,incorrect,5,0,5,0,1,,,,,,,,,,,,,,,,,,,,,,,,,,,,,,,,,,,,
,,,,,,,,,,1597537,2020-10-30_13h06.11.976,swahili,2020.2.4,MacIntel,60,,,,,,,,,,,,,,,,,,,,,,,,,,,,,,,,,,,,,,,,,,,,,,,,,,,2.923315,0.376472982,-0.144704861,1,0,0,0.717465,yes,OATH,YAMINI,incorrect,6,0,6,0,1,,,,,,,,,,,,,,,,,,,,,,,,,,,,,,,,,,,,
,,,,,,,,,,1597537,2020-10-30_13h06.11.976,swahili,2020.2.4,MacIntel,60,,,,,,,,,,,,,,,,,,,,,,,,,,,,,,,,,,,,,,,,1,0,1,0,1,,,,,,,,,,,,,,,,,,,,,,,,,,,,,,,,,,,,,,,,,,,,,,,,,,,,,,,,,,
,,,,,,,,,,1597537,2020-10-30_13h06.11.976,swahili,2020.2.4,MacIntel,60,,,,,,,,,,,,,,,,,,,,,,,,,,,,,,,,,,,,,,,,,,,,,1,0,1,0,1,,,,,,,,,,,,,,,,,,,,,,,,,,,,,,,,,,,,,,,,,,,,,,,,,,,,,
,,,,,,,,,,1597537,2020-10-30_13h06.11.976,swahili,2020.2.4,MacIntel,60,,,,,,,,,,-0.311633301,-0.091789641,1,0,0,2.791445,unsorted_card,0,0,0,0,1,,,,,,,,,,,,,,,,,,,,,,,,,,,,,,,,,,,,,,,,,,,,,,,,,,,,,,,,,,,,,,,,,,,,,,,,,,,,,,,,,
,,,,,,,,,,1597537,2020-10-30_13h06.11.976,swahili,2020.2.4,MacIntel,60,,,,,,,,,,0.445068359,0.490813079,1,0,0,4.06974,study_pile,1,0,1,0,1,MERCHANT - TAJIRI,,,,,,,,,,,,,,,,,,,,,,,,,,,,,,,,,,,,,,,,,,,,,,,,,,,,,,,,,,,,,,,,,,,,,,,,,,,,,,,,
,,,,,,,,,,1597537,2020-10-30_13h06.11.976,swahili,2020.2.4,MacIntel,60,,,,,,,,,,-0.199198405,-0.090747975,1,0,0,0.804345,unsorted_card,2,0,2,0,1,,,,,,,,,,,,,,,,,,,,,,,,,,,,,,,,,,,,,,,,,,,,,,,,,,,,,,,,,,,,,,,,,,,,,,,,,,,,,,,,,
,,,,,,,,,,1597537,2020-10-30_13h06.11.976,swahili,2020.2.4,MacIntel,60,,,,,,,,,,0.453812663,0.486740451,1,0,0,5.75349,study_pile,3,0,3,0,1,PARROT - KASUKU,,,,,,,,,,,,,,,,,,,,,,,,,,,,,,,,,,,,,,,,,,,,,,,,,,,,,,,,,,,,,,,,,,,,,,,,,,,,,,,,
,,,,,,,,,,1597537,2020-10-30_13h06.11.976,swahili,2020.2.4,MacIntel,60,,,,,,,,,,-0.141833496,-0.11733941,1,0,0,0.86634,unsorted_card,4,0,4,0,1,,,,,,,,,,,,,,,,,,,,,,,,,,,,,,,,,,,,,,,,,,,,,,,,,,,,,,,,,,,,,,,,,,,,,,,,,,,,,,,,,
,,,,,,,,,,1597537,2020-10-30_13h06.11.976,swahili,2020.2.4,MacIntel,60,,,,,,,,,,0.465738932,0.475947627,1,0,0,1.53354,study_pile,5,0,5,0,1,BULL - FAHILI,,,,,,,,,,,,,,,,,,,,,,,,,,,,,,,,,,,,,,,,,,,,,,,,,,,,,,,,,,,,,,,,,,,,,,,,,,,,,,,,
,,,,,,,,,,1597537,2020-10-30_13h06.11.976,swahili,2020.2.4,MacIntel,60,,,,,,,,,,-0.178474935,-0.032364005,1,0,0,0.879805,unsorted_card,6,0,6,0,1,,,,,,,,,,,,,,,,,,,,,,,,,,,,,,,,,,,,,,,,,,,,,,,,,,,,,,,,,,,,,,,,,,,,,,,,,,,,,,,,,
,,,,,,,,,,1597537,2020-10-30_13h06.11.976,swahili,2020.2.4,MacIntel,60,,,,,,,,,,0.44851888,0.484461806,1,0,0,1.17308,study_pile,7,0,7,0,1,PLATE - SAHANI,,,,,,,,,,,,,,,,,,,,,,,,,,,,,,,,,,,,,,,,,,,,,,,,,,,,,,,,,,,,,,,,,,,,,,,,,,,,,,,,
,,,,,,,,,,1597537,2020-10-30_13h06.11.976,swahili,2020.2.4,MacIntel,60,,,,,,,,,,-0.1940389,-0.119429977,1,0,0,0.682845,unsorted_card,8,0,8,0,1,,,,,,,,,,,,,,,,,,,,,,,,,,,,,,,,,,,,,,,,,,,,,,,,,,,,,,,,,,,,,,,,,,,,,,,,,,,,,,,,,
,,,,,,,,,,1597537,2020-10-30_13h06.11.976,swahili,2020.2.4,MacIntel,60,,,,,,,,,,0.444287109,0.530439815,1,0,0,1.450065,study_pile,9,0,9,0,1,YEAST - HAMIRA,,,,,,,,,,,,,,,,,,,,,,,,,,,,,,,,,,,,,,,,,,,,,,,,,,,,,,,,,,,,,,,,,,,,,,,,,,,,,,,,
,,,,,,,,,,1597537,2020-10-30_13h06.11.976,swahili,2020.2.4,MacIntel,60,,,,,,,,,,-0.213130697,3.6169E-05,1,0,0,0.59807,unsorted_card,10,0,10,0,1,,,,,,,,,,,,,,,,,,,,,,,,,,,,,,,,,,,,,,,,,,,,,,,,,,,,,,,,,,,,,,,,,,,,,,,,,,,,,,,,,
,,,,,,,,,,1597537,2020-10-30_13h06.11.976,swahili,2020.2.4,MacIntel,60,,,,,,,,,,0.417378743,0.511118345,1,0,0,1.100995,study_pile,11,0,11,0,1,BLAME - LAWAMA,,,,,,,,,,,,,,,,,,,,,,,,,,,,,,,,,,,,,,,,,,,,,,,,,,,,,,,,,,,,,,,,,,,,,,,,,,,,,,,,
,,,,,,,,,,1597537,2020-10-30_13h06.11.976,swahili,2020.2.4,MacIntel,60,,,,,,,,,,-0.175887044,0.086501736,1,0,0,0.730845,unsorted_card,12,0,12,0,1,,,,,,,,,,,,,,,,,,,,,,,,,,,,,,,,,,,,,,,,,,,,,,,,,,,,,,,,,,,,,,,,,,,,,,,,,,,,,,,,,
,,,,,,,,,,1597537,2020-10-30_13h06.11.976,swahili,2020.2.4,MacIntel,60,,,,,,,,,,0.420650228,-0.057443576,1,0,0,1.34908,test_pile,13,0,13,0,1,OATH - YAMINI,,,,,,,,,,,,,,,,,,,,,,,,,,,,,,,,,,,,,,,,,,,,,,,,,,,,,,,,,,,,,,,,,,,,,,,,,,,,,,,,
,,,,,,,,,,1597537,2020-10-30_13h06.11.976,swahili,2020.2.4,MacIntel,60,,,,,,,,,,-0.212084961,0.062449363,1,0,0,1.151395,unsorted_card,14,0,14,0,1,,,,,,,,,,,,,,,,,,,,,,,,,,,,,,,,,,,,,,,,,,,,,,,,,,,,,,,,,,,,,,,,,,,,,,,,,,,,,,,,,
,,,,,,,,,,1597537,2020-10-30_13h06.11.976,swahili,2020.2.4,MacIntel,60,,,,,,,,,,0.418119303,0.437268519,1,0,0,2.117125,study_pile,15,0,15,0,1,CORN - NAFAKA,,,,,,,,,,,,,,,,,,,,,,,,,,,,,,,,,,,,,,,,,,,,,,,,,,,,,,,,,,,,,,,,,,,,,,,,,,,,,,,,
,,,,,,,,,,1597537,2020-10-30_13h06.11.976,swahili,2020.2.4,MacIntel,60,,,,,,,,,,-0.291866048,0.008557581,1,0,0,0.62092,unsorted_card,16,0,16,0,1,,,,,,,,,,,,,,,,,,,,,,,,,,,,,,,,,,,,,,,,,,,,,,,,,,,,,,,,,,,,,,,,,,,,,,,,,,,,,,,,,
,,,,,,,,,,1597537,2020-10-30_13h06.11.976,swahili,2020.2.4,MacIntel,60,,,,,,,,,,0.353336589,-0.011183449,1,0,0,1.11584,test_pile,17,0,17,0,1,POEM - UTENZI,,,,,,,,,,,,,,,,,,,,,,,,,,,,,,,,,,,,,,,,,,,,,,,,,,,,,,,,,,,,,,,,,,,,,,,,,,,,,,,,
,,,,,,,,,,1597537,2020-10-30_13h06.11.976,swahili,2020.2.4,MacIntel,60,,,,,,,,,,-0.276843262,-0.01108941,1,0,0,0.499255,unsorted_card,18,0,18,0,1,,,,,,,,,,,,,,,,,,,,,,,,,,,,,,,,,,,,,,,,,,,,,,,,,,,,,,,,,,,,,,,,,,,,,,,,,,,,,,,,,
,,,,,,,,,,1597537,2020-10-30_13h06.11.976,swahili,2020.2.4,MacIntel,60,,,,,,,,,,0.43425293,0.114402488,1,0,0,1.634375,test_pile,19,0,19,0,1,TAILOR - MSHONI,,,,,,,,,,,,,,,,,,,,,,,,,,,,,,,,,,,,,,,,,,,,,,,,,,,,,,,,,,,,,,,,,,,,,,,,,,,,,,,,
,,,,,,,,,,1597537,2020-10-30_13h06.11.976,swahili,2020.2.4,MacIntel,60,,,,,,,,,,-0.206831868,0.115784144,1,0,0,0.498825,unsorted_card,20,0,20,0,1,,,,,,,,,,,,,,,,,,,,,,,,,,,,,,,,,,,,,,,,,,,,,,,,,,,,,,,,,,,,,,,,,,,,,,,,,,,,,,,,,
,,,,,,,,,,1597537,2020-10-30_13h06.11.976,swahili,2020.2.4,MacIntel,60,,,,,,,,,,0.490360514,0.119509549,1,0,0,0.884055,test_pile,21,0,21,0,1,CHEESE - JIBINI,,,,,,,,,,,,,,,,,,,,,,,,,,,,,,,,,,,,,,,,,,,,,,,,,,,,,,,,,,,,,,,,,,,,,,,,,,,,,,,,
,,,,,,,,,,1597537,2020-10-30_13h06.11.976,swahili,2020.2.4,MacIntel,60,,,,,,,,,,-0.259330241,-0.006937211,1,0,0,0.550115,unsorted_card,22,0,22,0,1,,,,,,,,,,,,,,,,,,,,,,,,,,,,,,,,,,,,,,,,,,,,,,,,,,,,,,,,,,,,,,,,,,,,,,,,,,,,,,,,,
,,,,,,,,,,1597537,2020-10-30_13h06.11.976,swahili,2020.2.4,MacIntel,60,,,,,,,,,,0.406998698,0.034628183,1,0,0,1.56489,test_pile,23,0,23,0,1,GRAPES - ZABIBU,,,,,,,,,,,,,,,,,,,,,,,,,,,,,,,,,,,,,,,,,,,,,,,,,,,,,,,,,,,,,,,,,,,,,,,,,,,,,,,,
,,,,,,,,,,1597537,2020-10-30_13h06.11.976,swahili,2020.2.4,MacIntel,60,,,,,,,,,,-0.253605143,-0.052379919,1,0,0,0.482495,unsorted_card,24,0,24,0,1,,,,,,,,,,,,,,,,,,,,,,,,,,,,,,,,,,,,,,,,,,,,,,,,,,,,,,,,,,,,,,,,,,,,,,,,,,,,,,,,,
,,,,,,,,,,1597537,2020-10-30_13h06.11.976,swahili,2020.2.4,MacIntel,60,,,,,,,,,,0.360392253,0.122793692,1,0,0,1.051415,test_pile,25,0,25,0,1,GRAVE - KABURI,,,,,,,,,,,,,,,,,,,,,,,,,,,,,,,,,,,,,,,,,,,,,,,,,,,,,,,,,,,,,,,,,,,,,,,,,,,,,,,,
,,,,,,,,,,1597537,2020-10-30_13h06.11.976,swahili,2020.2.4,MacIntel,60,,,,,,,,,,-0.271289063,-0.093995949,1,0,0,0.46541,unsorted_card,26,0,26,0,1,,,,,,,,,,,,,,,,,,,,,,,,,,,,,,,,,,,,,,,,,,,,,,,,,,,,,,,,,,,,,,,,,,,,,,,,,,,,,,,,,
,,,,,,,,,,1597537,2020-10-30_13h06.11.976,swahili,2020.2.4,MacIntel,60,,,,,,,,,,0.42224528,0.480483218,1,0,0,0.85637,study_pile,27,0,27,0,1,MANURE - SAMADI,,,,,,,,,,,,,,,,,,,,,,,,,,,,,,,,,,,,,,,,,,,,,,,,,,,,,,,,,,,,,,,,,,,,,,,,,,,,,,,,
,,,,,,,,,,1597537,2020-10-30_13h06.11.976,swahili,2020.2.4,MacIntel,60,,,,,,,,,,-0.102868652,0.054969618,1,0,0,0.49943,unsorted_card,28,0,28,0,1,,,,,,,,,,,,,,,,,,,,,,,,,,,,,,,,,,,,,,,,,,,,,,,,,,,,,,,,,,,,,,,,,,,,,,,,,,,,,,,,,
,,,,,,,,,,1597537,2020-10-30_13h06.11.976,swahili,2020.2.4,MacIntel,60,,,,,,,,,,0.355485026,0.066804109,1,0,0,1.85038,test_pile,29,0,29,0,1,AGENT - WAKILI,,,,,,,,,,,,,,,,,,,,,,,,,,,,,,,,,,,,,,,,,,,,,,,,,,,,,,,,,,,,,,,,,,,,,,,,,,,,,,,,
,,,,,,,,,,1597537,2020-10-30_13h06.11.976,swahili,2020.2.4,MacIntel,60,,,,,,,,,,-0.25916748,-0.046636285,1,0,0,0.898735,unsorted_card,30,0,30,0,1,,,,,,,,,,,,,,,,,,,,,,,,,,,,,,,,,,,,,,,,,,,,,,,,,,,,,,,,,,,,,,,,,,,,,,,,,,,,,,,,,
,,,,,,,,,,1597537,2020-10-30_13h06.11.976,swahili,2020.2.4,MacIntel,60,,,,,,,,,,0.374674479,0.430635127,1,0,0,1.43277,study_pile,31,0,31,0,1,BRIBE - RUSHWA,,,,,,,,,,,,,,,,,,,,,,,,,,,,,,,,,,,,,,,,,,,,,,,,,,,,,,,,,,,,,,,,,,,,,,,,,,,,,,,,
,,,,,,,,,,1597537,2020-10-30_13h06.11.976,swahili,2020.2.4,MacIntel,60,,,,,,,,,,-0.166963704,0.206235532,1,0,0,0.517635,unsorted_card,32,0,32,0,1,,,,,,,,,,,,,,,,,,,,,,,,,,,,,,,,,,,,,,,,,,,,,,,,,,,,,,,,,,,,,,,,,,,,,,,,,,,,,,,,,
,,,,,,,,,,1597537,2020-10-30_13h06.11.976,swahili,2020.2.4,MacIntel,60,,,,,,,,,,0.407128906,0.396600116,1,0,0,0.8488,study_pile,33,0,33,0,1,ORPHAN - YATIMA,,,,,,,,,,,,,,,,,,,,,,,,,,,,,,,,,,,,,,,,,,,,,,,,,,,,,,,,,,,,,,,,,,,,,,,,,,,,,,,,
,,,,,,,,,,1597537,2020-10-30_13h06.11.976,swahili,2020.2.4,MacIntel,60,,,,,,,,,,-0.170296224,-0.04537037,1,0,0,0.498085,unsorted_card,34,0,34,0,1,,,,,,,,,,,,,,,,,,,,,,,,,,,,,,,,,,,,,,,,,,,,,,,,,,,,,,,,,,,,,,,,,,,,,,,,,,,,,,,,,
,,,,,,,,,,1597537,2020-10-30_13h06.11.976,swahili,2020.2.4,MacIntel,60,,,,,,,,,,0.40822347,0.000759549,1,0,0,1.315455,test_pile,35,0,35,0,1,DIVORCE - TALAKA,,,,,,,,,,,,,,,,,,,,,,,,,,,,,,,,,,,,,,,,,,,,,,,,,,,,,,,,,,,,,,,,,,,,,,,,,,,,,,,,
,,,,,,,,,,1597537,2020-10-30_13h06.11.976,swahili,2020.2.4,MacIntel,60,,,,,,,,,,-0.188216146,0.075217014,1,0,0,0.53367,unsorted_card,36,0,36,0,1,,,,,,,,,,,,,,,,,,,,,,,,,,,,,,,,,,,,,,,,,,,,,,,,,,,,,,,,,,,,,,,,,,,,,,,,,,,,,,,,,
,,,,,,,,,,1597537,2020-10-30_13h06.11.976,swahili,2020.2.4,MacIntel,60,,,,,,,,,,0.41780599,0.438100405,1,0,0,1.956295,study_pile,37,0,37,0,1,BOAT - MASHUA,,,,,,,,,,,,,,,,,,,,,,,,,,,,,,,,,,,,,,,,,,,,,,,,,,,,,,,,,,,,,,,,,,,,,,,,,,,,,,,,
,,,,,,,,,,1597537,2020-10-30_13h06.11.976,swahili,2020.2.4,MacIntel,60,,,,,,,,,,-0.234269206,-0.013396991,1,0,0,0.565525,unsorted_card,38,0,38,0,1,,,,,,,,,,,,,,,,,,,,,,,,,,,,,,,,,,,,,,,,,,,,,,,,,,,,,,,,,,,,,,,,,,,,,,,,,,,,,,,,,
,,,,,,,,,,1597537,2020-10-30_13h06.11.976,swahili,2020.2.4,MacIntel,60,,,,,,,,,,0.461698405,0.066080729,1,0,0,1.23328,test_pile,39,0,39,0,1,TREASURE - DAFINA,,,,,,,,,,,,,,,,,,,,,,,,,,,,,,,,,,,,,,,,,,,,,,,,,,,,,,,,,,,,,,,,,,,,,,,,,,,,,,,,
,,,,,,,,,,1597537,2020-10-30_13h06.11.976,swahili,2020.2.4,MacIntel,60,,,,,,,,,,,,,,,,,,,,,,,0.316955566,-0.196477141,1,0,0,1.31737,test_first,,,,,0,0,0,0,1,,,,,,,,,,,,,,,,,,,,,,,,,,,,,,,,,,,,,,,,,,,,,,,,,,,,,,,,,,,,,,,,
,,,,,,,,,,1597537,2020-10-30_13h06.11.976,swahili,2020.2.4,MacIntel,60,,,,,,,,,,,,,,,,,,,,,,,,,,,,,,,,,,,,,,,return,,,,,,,,,,,2.068275,7.359065,0.374438477,0.171563947,1,0,0,1.00112,yes,GRAVE,SABURI,incorrect,0,0,0,0,1,,,,,,,,,,,,,,,,,,,,,,,,,,,,,,,,,,,,
,,,,,,,,,,1597537,2020-10-30_13h06.11.976,swahili,2020.2.4,MacIntel,60,,,,,,,,,,,,,,,,,,,,,,,,,,,,,,,,,,,,,,,,,,,,,,,,,,,3.28502,0.49416097,-0.011132813,1,0,0,0.6491,yes,DIVORCE,TALKALA,incorrect,1,0,1,0,1,,,,,,,,,,,,,,,,,,,,,,,,,,,,,,,,,,,,
,,,,,,,,,,1597537,2020-10-30_13h06.11.976,swahili,2020.2.4,MacIntel,60,,,,,,,,,,,,,,,,,,,,,,,,,,,,,,,,,,,,,,,,,,,,,,,,,,,3.184805,0.482470703,-0.010648148,1,0,0,0.732845,yes,TAILOR,MUSHURI,incorrect,2,0,2,0,1,,,,,,,,,,,,,,,,,,,,,,,,,,,,,,,,,,,,
,,,,,,,,,,1597537,2020-10-30_13h06.11.976,swahili,2020.2.4,MacIntel,60,,,,,,,,,,,,,,,,,,,,,,,,,,,,,,,,,,,,,,,,,,,,,,,,,,,2.55645,0.434440104,-0.059049479,1,0,0,0.866435,yes,GRAPES,ZABURI,incorrect,3,0,3,0,1,,,,,,,,,,,,,,,,,,,,,,,,,,,,,,,,,,,,
,,,,,,,,,,1597537,2020-10-30_13h06.11.976,swahili,2020.2.4,MacIntel,60,,,,,,,,,,,,,,,,,,,,,,,,,,,,,,,,,,,,,,,,,,,,,,,,,,,9.379955,0.390291341,-0.171209491,1,0,0,0.649715,yes,POEM,UTENSIL,incorrect,4,0,4,0,1,,,,,,,,,,,,,,,,,,,,,,,,,,,,,,,,,,,,
,,,,,,,,,,1597537,2020-10-30_13h06.11.976,swahili,2020.2.4,MacIntel,60,,,,,,,,,,,,,,,,,,,,,,,,,,,,,,,,,,,,,,,,,,,,,,,,,,,4.68534,0.40250651,-0.14609375,1,0,0,0.68991,yes,TREASURE,TAFINI,incorrect,5,0,5,0,1,,,,,,,,,,,,,,,,,,,,,,,,,,,,,,,,,,,,
,,,,,,,,,,1597537,2020-10-30_13h06.11.976,swahili,2020.2.4,MacIntel,60,,,,,,,,,,,,,,,,,,,,,,,,,,,,,,,,,,,,,,,,,,,,,,,,,,,3.15234,0.402758789,-0.154933449,1,0,0,0.584615,yes,AGENT,WALKILI,incorrect,6,0,6,0,1,,,,,,,,,,,,,,,,,,,,,,,,,,,,,,,,,,,,
,,,,,,,,,,1597537,2020-10-30_13h06.11.976,swahili,2020.2.4,MacIntel,60,,,,,,,,,,,,,,,,,,,,,,,,,,,,,,,,,,,,,,,,,,,,,,,,,,,2.28875,0.451607259,-0.014532697,1,0,0,0.584615,yes,OATH,YAMINI,incorrect,7,0,7,0,1,,,,,,,,,,,,,,,,,,,,,,,,,,,,,,,,,,,,
,,,,,,,,,,1597537,2020-10-30_13h06.11.976,swahili,2020.2.4,MacIntel,60,,,,,,,,,,,,,,,,,,,,,,,,,,,,,,,,,,,,,,,,,,,,,,,,,,,4.370365,0.35592041,-0.132682292,1,0,0,0.9517,yes,CHEESE,JIBINI,incorrect,8,0,8,0,1,,,,,,,,,,,,,,,,,,,,,,,,,,,,,,,,,,,,
,,,,,,,,,,1597537,2020-10-30_13h06.11.976,swahili,2020.2.4,MacIntel,60,,,,,,,,,,,,,,,,,,,,,,,,,,,,,,,,,,,,,,,,0,0,0,0,1,,,,,,,,,,,,,,,,,,,,,,,,,,,,,,,,,,,,,,,,,,,,,,,,,,,,,,,,,,
,,,,,,,,,,1597537,2020-10-30_13h06.11.976,swahili,2020.2.4,MacIntel,60,,,,,,,,,,,,,,,,,,,,,,MERCHANT - TAJIRI,,,,,,,,return,1.75103,return,3.01656,0,0,0,0,1,,,,,,,,,,,,,,,,,,,,,,,,,,,,,,,,,,,,,,,,,,,,,,,,,,,,,,,,,,,,,,,,
,,,,,,,,,,1597537,2020-10-30_13h06.11.976,swahili,2020.2.4,MacIntel,60,,,,,,,,,,,,,,,,,,,,,,CORN - NAFAKA,,,,,,,,,,return,1.558585,1,0,1,0,1,,,,,,,,,,,,,,,,,,,,,,,,,,,,,,,,,,,,,,,,,,,,,,,,,,,,,,,,,,,,,,,,
,,,,,,,,,,1597537,2020-10-30_13h06.11.976,swahili,2020.2.4,MacIntel,60,,,,,,,,,,,,,,,,,,,,,,PARROT - KASUKU,,,,,,,,,,return,1.69239,2,0,2,0,1,,,,,,,,,,,,,,,,,,,,,,,,,,,,,,,,,,,,,,,,,,,,,,,,,,,,,,,,,,,,,,,,
,,,,,,,,,,1597537,2020-10-30_13h06.11.976,swahili,2020.2.4,MacIntel,60,,,,,,,,,,,,,,,,,,,,,,BULL - FAHILI,,,,,,,,,,return,1.779665,3,0,3,0,1,,,,,,,,,,,,,,,,,,,,,,,,,,,,,,,,,,,,,,,,,,,,,,,,,,,,,,,,,,,,,,,,
,,,,,,,,,,1597537,2020-10-30_13h06.11.976,swahili,2020.2.4,MacIntel,60,,,,,,,,,,,,,,,,,,,,,,YEAST - HAMIRA,,,,,,,,,,return,1.78407,4,0,4,0,1,,,,,,,,,,,,,,,,,,,,,,,,,,,,,,,,,,,,,,,,,,,,,,,,,,,,,,,,,,,,,,,,
,,,,,,,,,,1597537,2020-10-30_13h06.11.976,swahili,2020.2.4,MacIntel,60,,,,,,,,,,,,,,,,,,,,,,PLATE - SAHANI,,,,,,,,,,return,1.28393,5,0,5,0,1,,,,,,,,,,,,,,,,,,,,,,,,,,,,,,,,,,,,,,,,,,,,,,,,,,,,,,,,,,,,,,,,
,,,,,,,,,,1597537,2020-10-30_13h06.11.976,swahili,2020.2.4,MacIntel,60,,,,,,,,,,,,,,,,,,,,,,BRIBE - RUSHWA,,,,,,,,,,return,0.934735,6,0,6,0,1,,,,,,,,,,,,,,,,,,,,,,,,,,,,,,,,,,,,,,,,,,,,,,,,,,,,,,,,,,,,,,,,
,,,,,,,,,,1597537,2020-10-30_13h06.11.976,swahili,2020.2.4,MacIntel,60,,,,,,,,,,,,,,,,,,,,,,ORPHAN - YATIMA,,,,,,,,,,return,0.974895,7,0,7,0,1,,,,,,,,,,,,,,,,,,,,,,,,,,,,,,,,,,,,,,,,,,,,,,,,,,,,,,,,,,,,,,,,
,,,,,,,,,,1597537,2020-10-30_13h06.11.976,swahili,2020.2.4,MacIntel,60,,,,,,,,,,,,,,,,,,,,,,MANURE - SAMADI,,,,,,,,,,return,0.899175,8,0,8,0,1,,,,,,,,,,,,,,,,,,,,,,,,,,,,,,,,,,,,,,,,,,,,,,,,,,,,,,,,,,,,,,,,
,,,,,,,,,,1597537,2020-10-30_13h06.11.976,swahili,2020.2.4,MacIntel,60,,,,,,,,,,,,,,,,,,,,,,BOAT - MASHUA,,,,,,,,,,return,1.057345,9,0,9,0,1,,,,,,,,,,,,,,,,,,,,,,,,,,,,,,,,,,,,,,,,,,,,,,,,,,,,,,,,,,,,,,,,
,,,,,,,,,,1597537,2020-10-30_13h06.11.976,swahili,2020.2.4,MacIntel,60,,,,,,,,,,,,,,,,,,,,,,BLAME - LAWAMA,,,,,,,,,,return,0.87268,10,0,10,0,1,,,,,,,,,,,,,,,,,,,,,,,,,,,,,,,,,,,,,,,,,,,,,,,,,,,,,,,,,,,,,,,,
,,,,,,,,,,1597537,2020-10-30_13h06.11.976,swahili,2020.2.4,MacIntel,60,,,,,,,,,,,,,,,,,,,,,,,,,,,,,,,,,,,,,,,,1,0,1,0,1,,,,,,,,,,,,,,,,,,,,,,,,,,,,,,,,,,,,,,,,,,,,,,,,,,,,,,,,,,
,,,,,,,,,,1597537,2020-10-30_13h06.11.976,swahili,2020.2.4,MacIntel,60,,,,,,,,,,,,,,,,,,,,,,,,,,,,,,,,,,,,,,,,,,,,,2,0,2,0,1,,,,,,,,,,,,,,,,,,,,,,,,,,,,,,,,,,,,,,,,,,,,,,,,,,,,,
,,,,,,,,,,1597537,2020-10-30_13h06.11.976,swahili,2020.2.4,MacIntel,60,,,,,,,,,,-0.204911296,-0.098415799,1,0,0,27.56894,unsorted_card,0,0,0,0,1,,,,,,,,,,,,,,,,,,,,,,,,,,,,,,,,,,,,,,,,,,,,,,,,,,,,,,,,,,,,,,,,,,,,,,,,,,,,,,,,,
,,,,,,,,,,1597537,2020-10-30_13h06.11.976,swahili,2020.2.4,MacIntel,60,,,,,,,,,,0.433353678,-0.078718171,1,0,0,1.91607,test_pile,1,0,1,0,1,MERCHANT - TAJIRI,,,,,,,,,,,,,,,,,,,,,,,,,,,,,,,,,,,,,,,,,,,,,,,,,,,,,,,,,,,,,,,,,,,,,,,,,,,,,,,,
,,,,,,,,,,1597537,2020-10-30_13h06.11.976,swahili,2020.2.4,MacIntel,60,,,,,,,,,,-0.302266439,-0.031228299,1,0,0,0.632705,unsorted_card,2,0,2,0,1,,,,,,,,,,,,,,,,,,,,,,,,,,,,,,,,,,,,,,,,,,,,,,,,,,,,,,,,,,,,,,,,,,,,,,,,,,,,,,,,,
,,,,,,,,,,1597537,2020-10-30_13h06.11.976,swahili,2020.2.4,MacIntel,60,,,,,,,,,,0.555749512,-0.077727141,1,0,0,1.000245,test_pile,3,0,3,0,1,PARROT - KASUKU,,,,,,,,,,,,,,,,,,,,,,,,,,,,,,,,,,,,,,,,,,,,,,,,,,,,,,,,,,,,,,,,,,,,,,,,,,,,,,,,
,,,,,,,,,,1597537,2020-10-30_13h06.11.976,swahili,2020.2.4,MacIntel,60,,,,,,,,,,-0.182657878,0.105497685,1,0,0,0.464545,unsorted_card,4,0,4,0,1,,,,,,,,,,,,,,,,,,,,,,,,,,,,,,,,,,,,,,,,,,,,,,,,,,,,,,,,,,,,,,,,,,,,,,,,,,,,,,,,,
,,,,,,,,,,1597537,2020-10-30_13h06.11.976,swahili,2020.2.4,MacIntel,60,,,,,,,,,,0.460807292,0.450846354,1,0,0,1.322805,study_pile,5,0,5,0,1,BULL - FAHILI,,,,,,,,,,,,,,,,,,,,,,,,,,,,,,,,,,,,,,,,,,,,,,,,,,,,,,,,,,,,,,,,,,,,,,,,,,,,,,,,
,,,,,,,,,,1597537,2020-10-30_13h06.11.976,swahili,2020.2.4,MacIntel,60,,,,,,,,,,-0.321244303,0.114532697,1,0,0,0.46568,unsorted_card,6,0,6,0,1,,,,,,,,,,,,,,,,,,,,,,,,,,,,,,,,,,,,,,,,,,,,,,,,,,,,,,,,,,,,,,,,,,,,,,,,,,,,,,,,,
,,,,,,,,,,1597537,2020-10-30_13h06.11.976,swahili,2020.2.4,MacIntel,60,,,,,,,,,,0.357430013,0.364055266,1,0,0,1.0974,study_pile,7,0,7,0,1,PLATE - SAHANI,,,,,,,,,,,,,,,,,,,,,,,,,,,,,,,,,,,,,,,,,,,,,,,,,,,,,,,,,,,,,,,,,,,,,,,,,,,,,,,,
,,,,,,,,,,1597537,2020-10-30_13h06.11.976,swahili,2020.2.4,MacIntel,60,,,,,,,,,,-0.348657227,0.016702836,1,0,0,0.48237,unsorted_card,8,0,8,0,1,,,,,,,,,,,,,,,,,,,,,,,,,,,,,,,,,,,,,,,,,,,,,,,,,,,,,,,,,,,,,,,,,,,,,,,,,,,,,,,,,
,,,,,,,,,,1597537,2020-10-30_13h06.11.976,swahili,2020.2.4,MacIntel,60,,,,,,,,,,0.553710938,0.403689236,1,0,0,1.149065,study_pile,9,0,9,0,1,YEAST - HAMIRA,,,,,,,,,,,,,,,,,,,,,,,,,,,,,,,,,,,,,,,,,,,,,,,,,,,,,,,,,,,,,,,,,,,,,,,,,,,,,,,,
,,,,,,,,,,1597537,2020-10-30_13h06.11.976,swahili,2020.2.4,MacIntel,60,,,,,,,,,,-0.214941406,0.063874421,1,0,0,0.531655,unsorted_card,10,0,10,0,1,,,,,,,,,,,,,,,,,,,,,,,,,,,,,,,,,,,,,,,,,,,,,,,,,,,,,,,,,,,,,,,,,,,,,,,,,,,,,,,,,
,,,,,,,,,,1597537,2020-10-30_13h06.11.976,swahili,2020.2.4,MacIntel,60,,,,,,,,,,0.386735026,0.020710359,1,0,0,2.436345,test_pile,11,0,11,0,1,BLAME - LAWAMA,,,,,,,,,,,,,,,,,,,,,,,,,,,,,,,,,,,,,,,,,,,,,,,,,,,,,,,,,,,,,,,,,,,,,,,,,,,,,,,,
,,,,,,,,,,1597537,2020-10-30_13h06.11.976,swahili,2020.2.4,MacIntel,60,,,,,,,,,,-0.272306315,0.049544271,1,0,0,0.51351,unsorted_card,12,0,12,0,1,,,,,,,,,,,,,,,,,,,,,,,,,,,,,,,,,,,,,,,,,,,,,,,,,,,,,,,,,,,,,,,,,,,,,,,,,,,,,,,,,
,,,,,,,,,,1597537,2020-10-30_13h06.11.976,swahili,2020.2.4,MacIntel,60,,,,,,,,,,0.485282389,-0.439257813,1,0,0,0.900885,done_pile,13,0,13,0,1,OATH - YAMINI,,,,,,,,,,,,,,,,,,,,,,,,,,,,,,,,,,,,,,,,,,,,,,,,,,,,,,,,,,,,,,,,,,,,,,,,,,,,,,,,
,,,,,,,,,,1597537,2020-10-30_13h06.11.976,swahili,2020.2.4,MacIntel,60,,,,,,,,,,-0.272823079,-0.031633391,1,0,0,0.53182,unsorted_card,14,0,14,0,1,,,,,,,,,,,,,,,,,,,,,,,,,,,,,,,,,,,,,,,,,,,,,,,,,,,,,,,,,,,,,,,,,,,,,,,,,,,,,,,,,
,,,,,,,,,,1597537,2020-10-30_13h06.11.976,swahili,2020.2.4,MacIntel,60,,,,,,,,,,0.499499512,-0.025962095,1,0,0,0.904445,test_pile,15,0,15,0,1,CORN - NAFAKA,,,,,,,,,,,,,,,,,,,,,,,,,,,,,,,,,,,,,,,,,,,,,,,,,,,,,,,,,,,,,,,,,,,,,,,,,,,,,,,,
,,,,,,,,,,1597537,2020-10-30_13h06.11.976,swahili,2020.2.4,MacIntel,60,,,,,,,,,,-0.148632812,-0.004767072,1,0,0,0.515595,unsorted_card,16,0,16,0,1,,,,,,,,,,,,,,,,,,,,,,,,,,,,,,,,,,,,,,,,,,,,,,,,,,,,,,,,,,,,,,,,,,,,,,,,,,,,,,,,,
,,,,,,,,,,1597537,2020-10-30_13h06.11.976,swahili,2020.2.4,MacIntel,60,,,,,,,,,,0.380777995,0.028602431,1,0,0,1.216955,test_pile,17,0,17,0,1,POEM - UTENZI,,,,,,,,,,,,,,,,,,,,,,,,,,,,,,,,,,,,,,,,,,,,,,,,,,,,,,,,,,,,,,,,,,,,,,,,,,,,,,,,
,,,,,,,,,,1597537,2020-10-30_13h06.11.976,swahili,2020.2.4,MacIntel,60,,,,,,,,,,-0.21792806,-0.066218171,1,0,0,0.48379,unsorted_card,18,0,18,0,1,,,,,,,,,,,,,,,,,,,,,,,,,,,,,,,,,,,,,,,,,,,,,,,,,,,,,,,,,,,,,,,,,,,,,,,,,,,,,,,,,
,,,,,,,,,,1597537,2020-10-30_13h06.11.976,swahili,2020.2.4,MacIntel,60,,,,,,,,,,0.457556152,0.421990741,1,0,0,1.4672,study_pile,19,0,19,0,1,TAILOR - MSHONI,,,,,,,,,,,,,,,,,,,,,,,,,,,,,,,,,,,,,,,,,,,,,,,,,,,,,,,,,,,,,,,,,,,,,,,,,,,,,,,,
,,,,,,,,,,1597537,2020-10-30_13h06.11.976,swahili,2020.2.4,MacIntel,60,,,,,,,,,,-0.319429525,0.026056134,1,0,0,0.516615,unsorted_card,20,0,20,0,1,,,,,,,,,,,,,,,,,,,,,,,,,,,,,,,,,,,,,,,,,,,,,,,,,,,,,,,,,,,,,,,,,,,,,,,,,,,,,,,,,
,,,,,,,,,,1597537,2020-10-30_13h06.11.976,swahili,2020.2.4,MacIntel,60,,,,,,,,,,0.343684896,-0.515321181,1,0,0,0.832175,done_pile,21,0,21,0,1,CHEESE - JIBINI,,,,,,,,,,,,,,,,,,,,,,,,,,,,,,,,,,,,,,,,,,,,,,,,,,,,,,,,,,,,,,,,,,,,,,,,,,,,,,,,
,,,,,,,,,,1597537,2020-10-30_13h06.11.976,swahili,2020.2.4,MacIntel,60,,,,,,,,,,-0.274157715,0.034563079,1,0,0,0.515725,unsorted_card,22,0,22,0,1,,,,,,,,,,,,,,,,,,,,,,,,,,,,,,,,,,,,,,,,,,,,,,,,,,,,,,,,,,,,,,,,,,,,,,,,,,,,,,,,,
,,,,,,,,,,1597537,2020-10-30_13h06.11.976,swahili,2020.2.4,MacIntel,60,,,,,,,,,,0.398079427,-0.03969184,1,0,0,1.199575,test_pile,23,0,23,0,1,GRAPES - ZABIBU,,,,,,,,,,,,,,,,,,,,,,,,,,,,,,,,,,,,,,,,,,,,,,,,,,,,,,,,,,,,,,,,,,,,,,,,,,,,,,,,
,,,,,,,,,,1597537,2020-10-30_13h06.11.976,swahili,2020.2.4,MacIntel,60,,,,,,,,,,-0.222993978,0.011624711,1,0,0,0.466175,unsorted_card,24,0,24,0,1,,,,,,,,,,,,,,,,,,,,,,,,,,,,,,,,,,,,,,,,,,,,,,,,,,,,,,,,,,,,,,,,,,,,,,,,,,,,,,,,,
,,,,,,,,,,1597537,2020-10-30_13h06.11.976,swahili,2020.2.4,MacIntel,60,,,,,,,,,,0.550931803,0.417664931,1,0,0,1.033245,study_pile,25,0,25,0,1,GRAVE - KABURI,,,,,,,,,,,,,,,,,,,,,,,,,,,,,,,,,,,,,,,,,,,,,,,,,,,,,,,,,,,,,,,,,,,,,,,,,,,,,,,,
,,,,,,,,,,1597537,2020-10-30_13h06.11.976,swahili,2020.2.4,MacIntel,60,,,,,,,,,,-0.258947754,0.11379485,1,0,0,0.50037,unsorted_card,26,0,26,0,1,,,,,,,,,,,,,,,,,,,,,,,,,,,,,,,,,,,,,,,,,,,,,,,,,,,,,,,,,,,,,,,,,,,,,,,,,,,,,,,,,
,,,,,,,,,,1597537,2020-10-30_13h06.11.976,swahili,2020.2.4,MacIntel,60,,,,,,,,,,0.38302002,0.466710069,1,0,0,1.14967,study_pile,27,0,27,0,1,MANURE - SAMADI,,,,,,,,,,,,,,,,,,,,,,,,,,,,,,,,,,,,,,,,,,,,,,,,,,,,,,,,,,,,,,,,,,,,,,,,,,,,,,,,
,,,,,,,,,,1597537,2020-10-30_13h06.11.976,swahili,2020.2.4,MacIntel,60,,,,,,,,,,-0.135148112,0.020052083,1,0,0,0.537605,unsorted_card,28,0,28,0,1,,,,,,,,,,,,,,,,,,,,,,,,,,,,,,,,,,,,,,,,,,,,,,,,,,,,,,,,,,,,,,,,,,,,,,,,,,,,,,,,,
,,,,,,,,,,1597537,2020-10-30_13h06.11.976,swahili,2020.2.4,MacIntel,60,,,,,,,,,,0.578487142,0.001121238,1,0,0,0.98181,test_pile,29,0,29,0,1,AGENT - WAKILI,,,,,,,,,,,,,,,,,,,,,,,,,,,,,,,,,,,,,,,,,,,,,,,,,,,,,,,,,,,,,,,,,,,,,,,,,,,,,,,,
,,,,,,,,,,1597537,2020-10-30_13h06.11.976,swahili,2020.2.4,MacIntel,60,,,,,,,,,,-0.19818929,-0.000130208,1,0,0,0.532,unsorted_card,30,0,30,0,1,,,,,,,,,,,,,,,,,,,,,,,,,,,,,,,,,,,,,,,,,,,,,,,,,,,,,,,,,,,,,,,,,,,,,,,,,,,,,,,,,
,,,,,,,,,,1597537,2020-10-30_13h06.11.976,swahili,2020.2.4,MacIntel,60,,,,,,,,,,0.475349935,0.541970486,1,0,0,0.86763,study_pile,31,0,31,0,1,BRIBE - RUSHWA,,,,,,,,,,,,,,,,,,,,,,,,,,,,,,,,,,,,,,,,,,,,,,,,,,,,,,,,,,,,,,,,,,,,,,,,,,,,,,,,
,,,,,,,,,,1597537,2020-10-30_13h06.11.976,swahili,2020.2.4,MacIntel,60,,,,,,,,,,-0.258968099,0.099124711,1,0,0,0.482205,unsorted_card,32,0,32,0,1,,,,,,,,,,,,,,,,,,,,,,,,,,,,,,,,,,,,,,,,,,,,,,,,,,,,,,,,,,,,,,,,,,,,,,,,,,,,,,,,,
,,,,,,,,,,1597537,2020-10-30_13h06.11.976,swahili,2020.2.4,MacIntel,60,,,,,,,,,,0.304968262,0.533311632,1,0,0,1.083845,study_pile,33,0,33,0,1,ORPHAN - YATIMA,,,,,,,,,,,,,,,,,,,,,,,,,,,,,,,,,,,,,,,,,,,,,,,,,,,,,,,,,,,,,,,,,,,,,,,,,,,,,,,,
,,,,,,,,,,1597537,2020-10-30_13h06.11.976,swahili,2020.2.4,MacIntel,60,,,,,,,,,,-0.162548828,-0.037029803,1,0,0,0.46444,unsorted_card,34,0,34,0,1,,,,,,,,,,,,,,,,,,,,,,,,,,,,,,,,,,,,,,,,,,,,,,,,,,,,,,,,,,,,,,,,,,,,,,,,,,,,,,,,,
,,,,,,,,,,1597537,2020-10-30_13h06.11.976,swahili,2020.2.4,MacIntel,60,,,,,,,,,,0.41299235,-0.047706887,1,0,0,1.215295,test_pile,35,0,35,0,1,DIVORCE - TALAKA,,,,,,,,,,,,,,,,,,,,,,,,,,,,,,,,,,,,,,,,,,,,,,,,,,,,,,,,,,,,,,,,,,,,,,,,,,,,,,,,
,,,,,,,,,,1597537,2020-10-30_13h06.11.976,swahili,2020.2.4,MacIntel,60,,,,,,,,,,-0.245621745,-0.012659144,1,0,0,0.38072,unsorted_card,36,0,36,0,1,,,,,,,,,,,,,,,,,,,,,,,,,,,,,,,,,,,,,,,,,,,,,,,,,,,,,,,,,,,,,,,,,,,,,,,,,,,,,,,,,
,,,,,,,,,,1597537,2020-10-30_13h06.11.976,swahili,2020.2.4,MacIntel,60,,,,,,,,,,0.466906738,0.459208623,1,0,0,0.84877,study_pile,37,0,37,0,1,BOAT - MASHUA,,,,,,,,,,,,,,,,,,,,,,,,,,,,,,,,,,,,,,,,,,,,,,,,,,,,,,,,,,,,,,,,,,,,,,,,,,,,,,,,
,,,,,,,,,,1597537,2020-10-30_13h06.11.976,swahili,2020.2.4,MacIntel,60,,,,,,,,,,-0.256193034,0.081481481,1,0,0,0.483435,unsorted_card,38,0,38,0,1,,,,,,,,,,,,,,,,,,,,,,,,,,,,,,,,,,,,,,,,,,,,,,,,,,,,,,,,,,,,,,,,,,,,,,,,,,,,,,,,,
,,,,,,,,,,1597537,2020-10-30_13h06.11.976,swahili,2020.2.4,MacIntel,60,,,,,,,,,,0.519734701,-0.075622106,1,0,0,1.549985,test_pile,39,0,39,0,1,TREASURE - DAFINA,,,,,,,,,,,,,,,,,,,,,,,,,,,,,,,,,,,,,,,,,,,,,,,,,,,,,,,,,,,,,,,,,,,,,,,,,,,,,,,,
,,,,,,,,,,1597537,2020-10-30_13h06.11.976,swahili,2020.2.4,MacIntel,60,,,,,,,,,,,,,,,,,,,,,,YEAST - HAMIRA,-0.471354167,-0.235286458,1,0,0,1.12256,study_first,return,1.68583,return,9.217275,0,0,0,0,1,,,,,,,,,,,,,,,,,,,,,,,,,,,,,,,,,,,,,,,,,,,,,,,,,,,,,,,,,,,,,,,,
,,,,,,,,,,1597537,2020-10-30_13h06.11.976,swahili,2020.2.4,MacIntel,60,,,,,,,,,,,,,,,,,,,,,,PLATE - SAHANI,,,,,,,,,,return,5.58846,1,0,1,0,1,,,,,,,,,,,,,,,,,,,,,,,,,,,,,,,,,,,,,,,,,,,,,,,,,,,,,,,,,,,,,,,,
,,,,,,,,,,1597537,2020-10-30_13h06.11.976,swahili,2020.2.4,MacIntel,60,,,,,,,,,,,,,,,,,,,,,,BOAT - MASHUA,,,,,,,,,,return,2.673775,2,0,2,0,1,,,,,,,,,,,,,,,,,,,,,,,,,,,,,,,,,,,,,,,,,,,,,,,,,,,,,,,,,,,,,,,,
,,,,,,,,,,1597537,2020-10-30_13h06.11.976,swahili,2020.2.4,MacIntel,60,,,,,,,,,,,,,,,,,,,,,,GRAVE - KABURI,,,,,,,,,,return,3.793535,3,0,3,0,1,,,,,,,,,,,,,,,,,,,,,,,,,,,,,,,,,,,,,,,,,,,,,,,,,,,,,,,,,,,,,,,,
,,,,,,,,,,1597537,2020-10-30_13h06.11.976,swahili,2020.2.4,MacIntel,60,,,,,,,,,,,,,,,,,,,,,,BRIBE - RUSHWA,,,,,,,,,,return,2.134315,4,0,4,0,1,,,,,,,,,,,,,,,,,,,,,,,,,,,,,,,,,,,,,,,,,,,,,,,,,,,,,,,,,,,,,,,,
,,,,,,,,,,1597537,2020-10-30_13h06.11.976,swahili,2020.2.4,MacIntel,60,,,,,,,,,,,,,,,,,,,,,,ORPHAN - YATIMA,,,,,,,,,,return,3.257125,5,0,5,0,1,,,,,,,,,,,,,,,,,,,,,,,,,,,,,,,,,,,,,,,,,,,,,,,,,,,,,,,,,,,,,,,,
,,,,,,,,,,1597537,2020-10-30_13h06.11.976,swahili,2020.2.4,MacIntel,60,,,,,,,,,,,,,,,,,,,,,,MANURE - SAMADI,,,,,,,,,,return,22.07358,6,0,6,0,1,,,,,,,,,,,,,,,,,,,,,,,,,,,,,,,,,,,,,,,,,,,,,,,,,,,,,,,,,,,,,,,,
,,,,,,,,,,1597537,2020-10-30_13h06.11.976,swahili,2020.2.4,MacIntel,60,,,,,,,,,,,,,,,,,,,,,,BULL - FAHILI,,,,,,,,,,return,0.834975,7,0,7,0,1,,,,,,,,,,,,,,,,,,,,,,,,,,,,,,,,,,,,,,,,,,,,,,,,,,,,,,,,,,,,,,,,
,,,,,,,,,,1597537,2020-10-30_13h06.11.976,swahili,2020.2.4,MacIntel,60,,,,,,,,,,,,,,,,,,,,,,TAILOR - MSHONI,,,,,,,,,,return,0.770295,8,0,8,0,1,,,,,,,,,,,,,,,,,,,,,,,,,,,,,,,,,,,,,,,,,,,,,,,,,,,,,,,,,,,,,,,,
,,,,,,,,,,1597537,2020-10-30_13h06.11.976,swahili,2020.2.4,MacIntel,60,,,,,,,,,,,,,,,,,,,,,,,,,,,,,,,,,,,,,,,,0,0,0,0,1,,,,,,,,,,,,,,,,,,,,,,,,,,,,,,,,,,,,,,,,,,,,,,,,,,,,,,,,,,
,,,,,,,,,,1597537,2020-10-30_13h06.11.976,swahili,2020.2.4,MacIntel,60,,,,,,,,,,,,,,,,,,,,,,,,,,,,,,,,,,0,0,0,0,1,,,,,,,,,,,,,,,,,,,,,,,,,,,,,,,,,,,,,,,,,,,,,,,,,,,,,,,,,,,,,,,,
,,,,,,,,,,1597537,2020-10-30_13h06.11.976,swahili,2020.2.4,MacIntel,60,,,,,,,,,,,,,,,,,,,,,,,,,,,,,,,,,,,,,,,return,,,,,,,,,,,0.517385,12.967625,0.22865804,0.162941262,1,0,0,0.984345,yes,PARROT,KATSU,incorrect,0,0,0,0,1,,,,,,,,,,,,,,,,,,,,,,,,,,,,,,,,,,,,
,,,,,,,,,,1597537,2020-10-30_13h06.11.976,swahili,2020.2.4,MacIntel,60,,,,,,,,,,,,,,,,,,,,,,,,,,,,,,,,,,,,,,,,,,,,,,,,,,,2.721705,0.417610677,-0.167730035,1,0,0,0.65145,yes,AGENT,WAKILI,incorrect,1,0,1,0,1,,,,,,,,,,,,,,,,,,,,,,,,,,,,,,,,,,,,
,,,,,,,,,,1597537,2020-10-30_13h06.11.976,swahili,2020.2.4,MacIntel,60,,,,,,,,,,,,,,,,,,,,,,,,,,,,,,,,,,,,,,,,,,,,,,,,,,,3.067525,0.415881348,-0.153580729,1,0,0,0.701105,yes,MERCHANT,TAJINI,incorrect,2,0,2,0,1,,,,,,,,,,,,,,,,,,,,,,,,,,,,,,,,,,,,
,,,,,,,,,,1597537,2020-10-30_13h06.11.976,swahili,2020.2.4,MacIntel,60,,,,,,,,,,,,,,,,,,,,,,,,,,,,,,,,,,,,,,,,,,,,,,,,,,,5.871205,0.397806803,-0.234100116,1,0,0,0.833775,yes,POEM,UTEZIL,incorrect,3,0,3,0,1,,,,,,,,,,,,,,,,,,,,,,,,,,,,,,,,,,,,
,,,,,,,,,,1597537,2020-10-30_13h06.11.976,swahili,2020.2.4,MacIntel,60,,,,,,,,,,,,,,,,,,,,,,,,,,,,,,,,,,,,,,,,,,,,,,,,,,,4.04064,0.395829264,-0.223871528,1,0,0,0.666015,yes,BLAME,LAWINI,incorrect,4,0,4,0,1,,,,,,,,,,,,,,,,,,,,,,,,,,,,,,,,,,,,
,,,,,,,,,,1597537,2020-10-30_13h06.11.976,swahili,2020.2.4,MacIntel,60,,,,,,,,,,,,,,,,,,,,,,,,,,,,,,,,,,,,,,,,,,,,,,,,,,,7.15966,0.408898926,-0.10682147,1,0,0,1.002925,yes,TREASURE,TAFIN,incorrect,5,0,5,0,1,,,,,,,,,,,,,,,,,,,,,,,,,,,,,,,,,,,,
,,,,,,,,,,1597537,2020-10-30_13h06.11.976,swahili,2020.2.4,MacIntel,60,,,,,,,,,,,,,,,,,,,,,,,,,,,,,,,,,,,,,,,,,,,,,,,,,,,4.59122,0.379321289,-0.163418692,1,0,0,0.651465,yes,DIVORCE,TAKALA,incorrect,6,0,6,0,1,,,,,,,,,,,,,,,,,,,,,,,,,,,,,,,,,,,,
,,,,,,,,,,1597537,2020-10-30_13h06.11.976,swahili,2020.2.4,MacIntel,60,,,,,,,,,,,,,,,,,,,,,,,,,,,,,,,,,,,,,,,,,,,,,,,,,,,3.68551,0.440022786,-0.165813079,1,0,0,0.951455,yes,CORN,SKSK,incorrect,7,0,7,0,1,,,,,,,,,,,,,,,,,,,,,,,,,,,,,,,,,,,,
,,,,,,,,,,1597537,2020-10-30_13h06.11.976,swahili,2020.2.4,MacIntel,60,,,,,,,,,,,,,,,,,,,,,,,,,,,,,,,,,,,,,,,,,,,,,,,,,,,4.66,0.426737467,-0.004202836,1,0,0,0.717175,yes,GRAPES,ZABURI,incorrect,8,0,8,0,1,,,,,,,,,,,,,,,,,,,,,,,,,,,,,,,,,,,,
,,,,,,,,,,1597537,2020-10-30_13h06.11.976,swahili,2020.2.4,MacIntel,60,,,,,,,,,,,,,,,,,,,,,,,,,,,,,,,,,,,,,,,,1,0,1,0,1,,,,,,,,,,,,,,,,,,,,,,,,,,,,,,,,,,,,,,,,,,,,,,,,,,,,,,,,,,
,,,,,,,,,,1597537,2020-10-30_13h06.11.976,swahili,2020.2.4,MacIntel,60,,,,,,,,,,,,,,,,,,,,,,,,,,,,,,,,,,,,,,,,,,,,,3,0,3,0,1,,,,,,,,,,,,,,,,,,,,,,,,,,,,,,,,,,,,,,,,,,,,,,,,,,,,,
,,,,,,,,,,1597537,2020-10-30_13h06.11.976,swahili,2020.2.4,MacIntel,60,,,,,,,,,,0.201774089,-0.195341435,1,0,0,0.19004,unsorted_card,0,0,0,0,1,,,,,,,,,,,,,,,,,,,,,,,,,,,,,,,,,,,,,,,,,,,,,,,,,,,,,,,,,,,,,,,,,,,,,,,,,,,,,,,,,
,,,,,,,,,,1597537,2020-10-30_13h06.11.976,swahili,2020.2.4,MacIntel,60,,,,,,,,,,0.349414063,-0.021940104,1,0,0,2.11602,test_pile,1,0,1,0,1,MERCHANT - TAJIRI,,,,,,,,,,,,,,,,,,,,,,,,,,,,,,,,,,,,,,,,,,,,,,,,,,,,,,,,,,,,,,,,,,,,,,,,,,,,,,,,
,,,,,,,,,,1597537,2020-10-30_13h06.11.976,swahili,2020.2.4,MacIntel,60,,,,,,,,,,-0.267850749,-0.023198785,1,0,0,0.53326,unsorted_card,2,0,2,0,1,,,,,,,,,,,,,,,,,,,,,,,,,,,,,,,,,,,,,,,,,,,,,,,,,,,,,,,,,,,,,,,,,,,,,,,,,,,,,,,,,
,,,,,,,,,,1597537,2020-10-30_13h06.11.976,swahili,2020.2.4,MacIntel,60,,,,,,,,,,0.498706055,-0.002018229,1,0,0,0.565945,test_pile,3,0,3,0,1,PARROT - KASUKU,,,,,,,,,,,,,,,,,,,,,,,,,,,,,,,,,,,,,,,,,,,,,,,,,,,,,,,,,,,,,,,,,,,,,,,,,,,,,,,,
,,,,,,,,,,1597537,2020-10-30_13h06.11.976,swahili,2020.2.4,MacIntel,60,,,,,,,,,,-0.151745605,0.006633391,1,0,0,0.481705,unsorted_card,4,0,4,0,1,,,,,,,,,,,,,,,,,,,,,,,,,,,,,,,,,,,,,,,,,,,,,,,,,,,,,,,,,,,,,,,,,,,,,,,,,,,,,,,,,
,,,,,,,,,,1597537,2020-10-30_13h06.11.976,swahili,2020.2.4,MacIntel,60,,,,,,,,,,0.696700033,0.106814236,1,0,0,0.48422,test_pile,5,0,5,0,1,BULL - FAHILI,,,,,,,,,,,,,,,,,,,,,,,,,,,,,,,,,,,,,,,,,,,,,,,,,,,,,,,,,,,,,,,,,,,,,,,,,,,,,,,,
,,,,,,,,,,1597537,2020-10-30_13h06.11.976,swahili,2020.2.4,MacIntel,60,,,,,,,,,,-0.318477376,0.022757523,1,0,0,0.781185,unsorted_card,6,0,6,0,1,,,,,,,,,,,,,,,,,,,,,,,,,,,,,,,,,,,,,,,,,,,,,,,,,,,,,,,,,,,,,,,,,,,,,,,,,,,,,,,,,
,,,,,,,,,,1597537,2020-10-30_13h06.11.976,swahili,2020.2.4,MacIntel,60,,,,,,,,,,0.416556803,-0.030186632,1,0,0,0.484915,test_pile,7,0,7,0,1,PLATE - SAHANI,,,,,,,,,,,,,,,,,,,,,,,,,,,,,,,,,,,,,,,,,,,,,,,,,,,,,,,,,,,,,,,,,,,,,,,,,,,,,,,,
,,,,,,,,,,1597537,2020-10-30_13h06.11.976,swahili,2020.2.4,MacIntel,60,,,,,,,,,,-0.104292806,-0.03822338,1,0,0,0.548495,unsorted_card,8,0,8,0,1,,,,,,,,,,,,,,,,,,,,,,,,,,,,,,,,,,,,,,,,,,,,,,,,,,,,,,,,,,,,,,,,,,,,,,,,,,,,,,,,,
,,,,,,,,,,1597537,2020-10-30_13h06.11.976,swahili,2020.2.4,MacIntel,60,,,,,,,,,,0.662190755,0.013274016,1,0,0,0.565585,test_pile,9,0,9,0,1,YEAST - HAMIRA,,,,,,,,,,,,,,,,,,,,,,,,,,,,,,,,,,,,,,,,,,,,,,,,,,,,,,,,,,,,,,,,,,,,,,,,,,,,,,,,
,,,,,,,,,,1597537,2020-10-30_13h06.11.976,swahili,2020.2.4,MacIntel,60,,,,,,,,,,-0.13207194,-0.008622685,1,0,0,0.51515,unsorted_card,10,0,10,0,1,,,,,,,,,,,,,,,,,,,,,,,,,,,,,,,,,,,,,,,,,,,,,,,,,,,,,,,,,,,,,,,,,,,,,,,,,,,,,,,,,
,,,,,,,,,,1597537,2020-10-30_13h06.11.976,swahili,2020.2.4,MacIntel,60,,,,,,,,,,0.480806478,-0.078038194,1,0,0,0.467895,test_pile,11,0,11,0,1,BLAME - LAWAMA,,,,,,,,,,,,,,,,,,,,,,,,,,,,,,,,,,,,,,,,,,,,,,,,,,,,,,,,,,,,,,,,,,,,,,,,,,,,,,,,
,,,,,,,,,,1597537,2020-10-30_13h06.11.976,swahili,2020.2.4,MacIntel,60,,,,,,,,,,-0.228930664,-0.044574653,1,0,0,0.49893,unsorted_card,12,0,12,0,1,,,,,,,,,,,,,,,,,,,,,,,,,,,,,,,,,,,,,,,,,,,,,,,,,,,,,,,,,,,,,,,,,,,,,,,,,,,,,,,,,
,,,,,,,,,,1597537,2020-10-30_13h06.11.976,swahili,2020.2.4,MacIntel,60,,,,,,,,,,0.46949056,-0.007204861,1,0,0,0.631625,test_pile,13,0,13,0,1,CORN - NAFAKA,,,,,,,,,,,,,,,,,,,,,,,,,,,,,,,,,,,,,,,,,,,,,,,,,,,,,,,,,,,,,,,,,,,,,,,,,,,,,,,,
,,,,,,,,,,1597537,2020-10-30_13h06.11.976,swahili,2020.2.4,MacIntel,60,,,,,,,,,,-0.220015462,-0.198654514,1,0,0,0.482385,unsorted_card,14,0,14,0,1,,,,,,,,,,,,,,,,,,,,,,,,,,,,,,,,,,,,,,,,,,,,,,,,,,,,,,,,,,,,,,,,,,,,,,,,,,,,,,,,,
,,,,,,,,,,1597537,2020-10-30_13h06.11.976,swahili,2020.2.4,MacIntel,60,,,,,,,,,,0.497131348,-0.06547309,1,0,0,0.43723,test_pile,15,0,15,0,1,POEM - UTENZI,,,,,,,,,,,,,,,,,,,,,,,,,,,,,,,,,,,,,,,,,,,,,,,,,,,,,,,,,,,,,,,,,,,,,,,,,,,,,,,,
,,,,,,,,,,1597537,2020-10-30_13h06.11.976,swahili,2020.2.4,MacIntel,60,,,,,,,,,,-0.351631673,-0.134845197,1,0,0,0.533345,unsorted_card,16,0,16,0,1,,,,,,,,,,,,,,,,,,,,,,,,,,,,,,,,,,,,,,,,,,,,,,,,,,,,,,,,,,,,,,,,,,,,,,,,,,,,,,,,,
,,,,,,,,,,1597537,2020-10-30_13h06.11.976,swahili,2020.2.4,MacIntel,60,,,,,,,,,,0.42553304,0.005164931,1,0,0,0.482565,test_pile,17,0,17,0,1,TAILOR - MSHONI,,,,,,,,,,,,,,,,,,,,,,,,,,,,,,,,,,,,,,,,,,,,,,,,,,,,,,,,,,,,,,,,,,,,,,,,,,,,,,,,
,,,,,,,,,,1597537,2020-10-30_13h06.11.976,swahili,2020.2.4,MacIntel,60,,,,,,,,,,-0.268924967,-0.141442419,1,0,0,0.53192,unsorted_card,18,0,18,0,1,,,,,,,,,,,,,,,,,,,,,,,,,,,,,,,,,,,,,,,,,,,,,,,,,,,,,,,,,,,,,,,,,,,,,,,,,,,,,,,,,
,,,,,,,,,,1597537,2020-10-30_13h06.11.976,swahili,2020.2.4,MacIntel,60,,,,,,,,,,0.415592448,-0.093467882,1,0,0,0.49895,test_pile,19,0,19,0,1,GRAPES - ZABIBU,,,,,,,,,,,,,,,,,,,,,,,,,,,,,,,,,,,,,,,,,,,,,,,,,,,,,,,,,,,,,,,,,,,,,,,,,,,,,,,,
,,,,,,,,,,1597537,2020-10-30_13h06.11.976,swahili,2020.2.4,MacIntel,60,,,,,,,,,,-0.219706217,-0.064822049,1,0,0,0.43117,unsorted_card,20,0,20,0,1,,,,,,,,,,,,,,,,,,,,,,,,,,,,,,,,,,,,,,,,,,,,,,,,,,,,,,,,,,,,,,,,,,,,,,,,,,,,,,,,,
,,,,,,,,,,1597537,2020-10-30_13h06.11.976,swahili,2020.2.4,MacIntel,60,,,,,,,,,,0.599694824,0.043381076,1,0,0,0.43328,test_pile,21,0,21,0,1,GRAVE - KABURI,,,,,,,,,,,,,,,,,,,,,,,,,,,,,,,,,,,,,,,,,,,,,,,,,,,,,,,,,,,,,,,,,,,,,,,,,,,,,,,,
,,,,,,,,,,1597537,2020-10-30_13h06.11.976,swahili,2020.2.4,MacIntel,60,,,,,,,,,,-0.102494303,0.021339699,1,0,0,0.434355,unsorted_card,22,0,22,0,1,,,,,,,,,,,,,,,,,,,,,,,,,,,,,,,,,,,,,,,,,,,,,,,,,,,,,,,,,,,,,,,,,,,,,,,,,,,,,,,,,
,,,,,,,,,,1597537,2020-10-30_13h06.11.976,swahili,2020.2.4,MacIntel,60,,,,,,,,,,0.511560059,0.029159433,1,0,0,0.349275,test_pile,23,0,23,0,1,MANURE - SAMADI,,,,,,,,,,,,,,,,,,,,,,,,,,,,,,,,,,,,,,,,,,,,,,,,,,,,,,,,,,,,,,,,,,,,,,,,,,,,,,,,
,,,,,,,,,,1597537,2020-10-30_13h06.11.976,swahili,2020.2.4,MacIntel,60,,,,,,,,,,-0.222941081,0.036552373,1,0,0,0.44963,unsorted_card,24,0,24,0,1,,,,,,,,,,,,,,,,,,,,,,,,,,,,,,,,,,,,,,,,,,,,,,,,,,,,,,,,,,,,,,,,,,,,,,,,,,,,,,,,,
,,,,,,,,,,1597537,2020-10-30_13h06.11.976,swahili,2020.2.4,MacIntel,60,,,,,,,,,,0.551184082,0.045985243,1,0,0,0.399005,test_pile,25,0,25,0,1,AGENT - WAKILI,,,,,,,,,,,,,,,,,,,,,,,,,,,,,,,,,,,,,,,,,,,,,,,,,,,,,,,,,,,,,,,,,,,,,,,,,,,,,,,,
,,,,,,,,,,1597537,2020-10-30_13h06.11.976,swahili,2020.2.4,MacIntel,60,,,,,,,,,,-0.146000163,0.045985243,1,0,0,0.400265,unsorted_card,26,0,26,0,1,,,,,,,,,,,,,,,,,,,,,,,,,,,,,,,,,,,,,,,,,,,,,,,,,,,,,,,,,,,,,,,,,,,,,,,,,,,,,,,,,
,,,,,,,,,,1597537,2020-10-30_13h06.11.976,swahili,2020.2.4,MacIntel,60,,,,,,,,,,0.313895671,-0.051851852,1,0,0,0.449415,test_pile,27,0,27,0,1,BRIBE - RUSHWA,,,,,,,,,,,,,,,,,,,,,,,,,,,,,,,,,,,,,,,,,,,,,,,,,,,,,,,,,,,,,,,,,,,,,,,,,,,,,,,,
,,,,,,,,,,1597537,2020-10-30_13h06.11.976,swahili,2020.2.4,MacIntel,60,,,,,,,,,,-0.173543294,-0.074537037,1,0,0,0.4135,unsorted_card,28,0,28,0,1,,,,,,,,,,,,,,,,,,,,,,,,,,,,,,,,,,,,,,,,,,,,,,,,,,,,,,,,,,,,,,,,,,,,,,,,,,,,,,,,,
,,,,,,,,,,1597537,2020-10-30_13h06.11.976,swahili,2020.2.4,MacIntel,60,,,,,,,,,,0.50534668,-0.060329861,1,0,0,0.418145,test_pile,29,0,29,0,1,ORPHAN - YATIMA,,,,,,,,,,,,,,,,,,,,,,,,,,,,,,,,,,,,,,,,,,,,,,,,,,,,,,,,,,,,,,,,,,,,,,,,,,,,,,,,
,,,,,,,,,,1597537,2020-10-30_13h06.11.976,swahili,2020.2.4,MacIntel,60,,,,,,,,,,-0.061039225,-0.060329861,1,0,0,0.380645,unsorted_card,30,0,30,0,1,,,,,,,,,,,,,,,,,,,,,,,,,,,,,,,,,,,,,,,,,,,,,,,,,,,,,,,,,,,,,,,,,,,,,,,,,,,,,,,,,
,,,,,,,,,,1597537,2020-10-30_13h06.11.976,swahili,2020.2.4,MacIntel,60,,,,,,,,,,0.460880534,-0.093279803,1,0,0,0.51705,test_pile,31,0,31,0,1,DIVORCE - TALAKA,,,,,,,,,,,,,,,,,,,,,,,,,,,,,,,,,,,,,,,,,,,,,,,,,,,,,,,,,,,,,,,,,,,,,,,,,,,,,,,,
,,,,,,,,,,1597537,2020-10-30_13h06.11.976,swahili,2020.2.4,MacIntel,60,,,,,,,,,,-0.211954753,-0.2,1,0,0,0.43087,unsorted_card,32,0,32,0,1,,,,,,,,,,,,,,,,,,,,,,,,,,,,,,,,,,,,,,,,,,,,,,,,,,,,,,,,,,,,,,,,,,,,,,,,,,,,,,,,,
,,,,,,,,,,1597537,2020-10-30_13h06.11.976,swahili,2020.2.4,MacIntel,60,,,,,,,,,,0.590938314,-0.057233796,1,0,0,0.43287,test_pile,33,0,33,0,1,BOAT - MASHUA,,,,,,,,,,,,,,,,,,,,,,,,,,,,,,,,,,,,,,,,,,,,,,,,,,,,,,,,,,,,,,,,,,,,,,,,,,,,,,,,
,,,,,,,,,,1597537,2020-10-30_13h06.11.976,swahili,2020.2.4,MacIntel,60,,,,,,,,,,-0.091463216,-0.05375434,1,0,0,0.565415,unsorted_card,34,0,34,0,1,,,,,,,,,,,,,,,,,,,,,,,,,,,,,,,,,,,,,,,,,,,,,,,,,,,,,,,,,,,,,,,,,,,,,,,,,,,,,,,,,
,,,,,,,,,,1597537,2020-10-30_13h06.11.976,swahili,2020.2.4,MacIntel,60,,,,,,,,,,0.428125,0.045081019,1,0,0,0.57221,test_pile,35,0,35,0,1,TREASURE - DAFINA,,,,,,,,,,,,,,,,,,,,,,,,,,,,,,,,,,,,,,,,,,,,,,,,,,,,,,,,,,,,,,,,,,,,,,,,,,,,,,,,
,,,,,,,,,,1597537,2020-10-30_13h06.11.976,swahili,2020.2.4,MacIntel,60,,,,,,,,,,,,,,,,,,,,,,,,,,,,,,,,,,0,0,0,0,1,,,,,,,,,,,,,,,,,,,,,,,,,,,,,,,,,,,,,,,,,,,,,,,,,,,,,,,,,,,,,,,,
,,,,,,,,,,1597537,2020-10-30_13h06.11.976,swahili,2020.2.4,MacIntel,60,,,,,,,,,,,,,,,,,,,,,,,,,,,,,,,,,,,,,,,return,,,,,,,,,,,2.085175,3.887155,0.405167643,-0.099023438,1,0,0,0.966405,yes,GRAPES,ZABIRU,incorrect,0,0,0,0,1,,,,,,,,,,,,,,,,,,,,,,,,,,,,,,,,,,,,
,,,,,,,,,,1597537,2020-10-30_13h06.11.976,swahili,2020.2.4,MacIntel,60,,,,,,,,,,,,,,,,,,,,,,,,,,,,,,,,,,,,,,,,,,,,,,,,,,,5.37518,0.434899902,-0.186668113,1,0,0,0.58354,yes,BULL,FAHILI,incorrect,1,0,1,0,1,,,,,,,,,,,,,,,,,,,,,,,,,,,,,,,,,,,,
,,,,,,,,,,1597537,2020-10-30_13h06.11.976,swahili,2020.2.4,MacIntel,60,,,,,,,,,,,,,,,,,,,,,,,,,,,,,,,,,,,,,,,,,,,,,,,,,,,5.859885,0.42425944,-0.136472801,1,0,0,0.700475,yes,TAILOR,MUSUMI,incorrect,2,0,2,0,1,,,,,,,,,,,,,,,,,,,,,,,,,,,,,,,,,,,,
,,,,,,,,,,1597537,2020-10-30_13h06.11.976,swahili,2020.2.4,MacIntel,60,,,,,,,,,,,,,,,,,,,,,,,,,,,,,,,,,,,,,,,,,,,,,,,,,,,3.417965,0.423238118,-0.070753762,1,0,0,0.65064,yes,PLATE,SAHINI,incorrect,3,0,3,0,1,,,,,,,,,,,,,,,,,,,,,,,,,,,,,,,,,,,,
,,,,,,,,,,1597537,2020-10-30_13h06.11.976,swahili,2020.2.4,MacIntel,60,,,,,,,,,,,,,,,,,,,,,,,,,,,,,,,,,,,,,,,,,,,,,,,,,,,3.88574,0.407173665,-0.031597222,1,0,0,0.76652,yes,ORPHAN,MSKS,incorrect,4,0,4,0,1,,,,,,,,,,,,,,,,,,,,,,,,,,,,,,,,,,,,
,,,,,,,,,,1597537,2020-10-30_13h06.11.976,swahili,2020.2.4,MacIntel,60,,,,,,,,,,,,,,,,,,,,,,,,,,,,,,,,,,,,,,,,,,,,,,,,,,,4.59024,0.425634766,-0.056344039,1,0,0,0.68506,yes,MERCHANT,TAJIRI,incorrect,5,0,5,0,1,,,,,,,,,,,,,,,,,,,,,,,,,,,,,,,,,,,,
,,,,,,,,,,1597537,2020-10-30_13h06.11.976,swahili,2020.2.4,MacIntel,60,,,,,,,,,,,,,,,,,,,,,,,,,,,,,,,,,,,,,,,,,,,,,,,,,,,2.96728,0.367744954,-0.048914931,1,0,0,0.7513,yes,BLAME,LAWIRI,incorrect,6,0,6,0,1,,,,,,,,,,,,,,,,,,,,,,,,,,,,,,,,,,,,
,,,,,,,,,,1597537,2020-10-30_13h06.11.976,swahili,2020.2.4,MacIntel,60,,,,,,,,,,,,,,,,,,,,,,,,,,,,,,,,,,,,,,,,,,,,,,,,,,,3.216735,0.324576823,-0.161971933,1,0,0,0.569435,yes,MANURE,JSJS,incorrect,7,0,7,0,1,,,,,,,,,,,,,,,,,,,,,,,,,,,,,,,,,,,,
,,,,,,,,,,1597537,2020-10-30_13h06.11.976,swahili,2020.2.4,MacIntel,60,,,,,,,,,,,,,,,,,,,,,,,,,,,,,,,,,,,,,,,,,,,,,,,,,,,2.973745,0.384440104,-0.102669271,1,0,0,0.74962,yes,BOAT,MASHURI,incorrect,8,0,8,0,1,,,,,,,,,,,,,,,,,,,,,,,,,,,,,,,,,,,,
,,,,,,,,,,1597537,2020-10-30_13h06.11.976,swahili,2020.2.4,MacIntel,60,,,,,,,,,,,,,,,,,,,,,,,,,,,,,,,,,,,,,,,,,,,,,,,,,,,7.05628,0.415812174,-0.116160301,1,0,0,0.605185,yes,GRAVE,YABURI,incorrect,9,0,9,0,1,,,,,,,,,,,,,,,,,,,,,,,,,,,,,,,,,,,,
,,,,,,,,,,1597537,2020-10-30_13h06.11.976,swahili,2020.2.4,MacIntel,60,,,,,,,,,,,,,,,,,,,,,,,,,,,,,,,,,,,,,,,,,,,,,,,,,,,5.78634,0.539672852,-0.045247396,1,0,0,0.63399,yes,BRIBE,RUSHIMI,incorrect,10,0,10,0,1,,,,,,,,,,,,,,,,,,,,,,,,,,,,,,,,,,,,
,,,,,,,,,,1597537,2020-10-30_13h06.11.976,swahili,2020.2.4,MacIntel,60,,,,,,,,,,,,,,,,,,,,,,,,,,,,,,,,,,,,,,,,,,,,,,,,,,,4.885675,0.453072103,-0.173531539,1,0,0,0.6517,yes,CORN,TALKA,incorrect,11,0,11,0,1,,,,,,,,,,,,,,,,,,,,,,,,,,,,,,,,,,,,
,,,,,,,,,,1597537,2020-10-30_13h06.11.976,swahili,2020.2.4,MacIntel,60,,,,,,,,,,,,,,,,,,,,,,,,,,,,,,,,,,,,,,,,,,,,,,,,,,,9.31266,0.316292318,-0.037630208,1,0,0,0.751705,yes,POEM,UTEZIL,incorrect,12,0,12,0,1,,,,,,,,,,,,,,,,,,,,,,,,,,,,,,,,,,,,
,,,,,,,,,,1597537,2020-10-30_13h06.11.976,swahili,2020.2.4,MacIntel,60,,,,,,,,,,,,,,,,,,,,,,,,,,,,,,,,,,,,,,,,,,,,,,,,,,,4.167825,0.446350098,-0.092107928,1,0,0,0.700935,yes,TREASURE,FIN,incorrect,13,0,13,0,1,,,,,,,,,,,,,,,,,,,,,,,,,,,,,,,,,,,,
,,,,,,,,,,1597537,2020-10-30_13h06.11.976,swahili,2020.2.4,MacIntel,60,,,,,,,,,,,,,,,,,,,,,,,,,,,,,,,,,,,,,,,,,,,,,,,,,,,2.233515,0.471260579,-0.007371238,1,0,0,0.6408,yes,AGENT,WAKILI,incorrect,14,0,14,0,1,,,,,,,,,,,,,,,,,,,,,,,,,,,,,,,,,,,,
,,,,,,,,,,1597537,2020-10-30_13h06.11.976,swahili,2020.2.4,MacIntel,60,,,,,,,,,,,,,,,,,,,,,,,,,,,,,,,,,,,,,,,,,,,,,,,,,,,8.97997,0.623482259,0.058485243,1,0,0,0.61781,yes,PARROT,TAKASU,incorrect,15,0,15,0,1,,,,,,,,,,,,,,,,,,,,,,,,,,,,,,,,,,,,
,,,,,,,,,,1597537,2020-10-30_13h06.11.976,swahili,2020.2.4,MacIntel,60,,,,,,,,,,,,,,,,,,,,,,,,,,,,,,,,,,,,,,,,,,,,,,,,,,,3.169275,0.429549154,-0.061733218,1,0,0,0.66598,yes,YEAST,HAMIRI,incorrect,16,0,16,0,1,,,,,,,,,,,,,,,,,,,,,,,,,,,,,,,,,,,,
,,,,,,,,,,1597537,2020-10-30_13h06.11.976,swahili,2020.2.4,MacIntel,60,,,,,,,,,,,,,,,,,,,,,,,,,,,,,,,,,,,,,,,,,,,,,,,,,,,5.092495,0.538122559,-0.005504919,1,0,0,0.66613,yes,DIVORCE,TAKALA,incorrect,17,0,17,0,1,,,,,,,,,,,,,,,,,,,,,,,,,,,,,,,,,,,,
,,,,,,,,,,1597537,2020-10-30_13h06.11.976,swahili,2020.2.4,MacIntel,60,,,,,,,,,,,,,,,,,,,,,,,,,,,,,,,,,,,,,,,,0,0,0,0,1,,,,,,,,,,,,,,,,,,,,,,,,,,,,,,,,,,,,,,,,,,,,,,,,,,,,,,,,,,
,,,,,,,,,,1597537,2020-10-30_13h06.11.976,swahili,2020.2.4,MacIntel,60,,,,,,,,,,,,,,,,,,,,,,,,,,,,,,,,,,,,,,,,1,0,1,0,1,,,,,,,,,,,,,,,,,,,,,,,,,,,,,,,,,,,,,,,,,,,,,,,,,,,,,,,,,,
,,,,,,,,,,1597537,2020-10-30_13h06.11.976,swahili,2020.2.4,MacIntel,60,,,,,,,,,,,,,,,,,,,,,,,,,,,,,,,,,,,,,,,,,,,,,4,0,4,0,1,,,,,,,,,,,,,,,,,,,,,,,,,,,,,,,,,,,,,,,,,,,,,,,,,,,,,
,,,,,,,,,,1597537,2020-10-30_13h06.11.976,swahili,2020.2.4,MacIntel,60,,,,,,,,,,-0.244698079,-0.078378183,1,0,0,0.969755,unsorted_card,0,0,0,0,1,,,,,,,,,,,,,,,,,,,,,,,,,,,,,,,,,,,,,,,,,,,,,,,,,,,,,,,,,,,,,,,,,,,,,,,,,,,,,,,,,
,,,,,,,,,,1597537,2020-10-30_13h06.11.976,swahili,2020.2.4,MacIntel,60,,,,,,,,,,0.526293945,-0.05931713,1,0,0,2.40728,test_pile,1,0,1,0,1,MERCHANT - TAJIRI,,,,,,,,,,,,,,,,,,,,,,,,,,,,,,,,,,,,,,,,,,,,,,,,,,,,,,,,,,,,,,,,,,,,,,,,,,,,,,,,
,,,,,,,,,,1597537,2020-10-30_13h06.11.976,swahili,2020.2.4,MacIntel,60,,,,,,,,,,-0.214831543,-0.022301794,1,0,0,0.813905,unsorted_card,2,0,2,0,1,,,,,,,,,,,,,,,,,,,,,,,,,,,,,,,,,,,,,,,,,,,,,,,,,,,,,,,,,,,,,,,,,,,,,,,,,,,,,,,,,
,,,,,,,,,,1597537,2020-10-30_13h06.11.976,swahili,2020.2.4,MacIntel,60,,,,,,,,,,0.360371908,0.03203125,1,0,0,0.88322,test_pile,3,0,3,0,1,PARROT - KASUKU,,,,,,,,,,,,,,,,,,,,,,,,,,,,,,,,,,,,,,,,,,,,,,,,,,,,,,,,,,,,,,,,,,,,,,,,,,,,,,,,
,,,,,,,,,,1597537,2020-10-30_13h06.11.976,swahili,2020.2.4,MacIntel,60,,,,,,,,,,-0.478747559,-0.012811053,1,0,0,0.464955,unsorted_card,4,0,4,0,1,,,,,,,,,,,,,,,,,,,,,,,,,,,,,,,,,,,,,,,,,,,,,,,,,,,,,,,,,,,,,,,,,,,,,,,,,,,,,,,,,
,,,,,,,,,,1597537,2020-10-30_13h06.11.976,swahili,2020.2.4,MacIntel,60,,,,,,,,,,0.378450521,-0.037688079,1,0,0,0.932565,test_pile,5,0,5,0,1,BULL - FAHILI,,,,,,,,,,,,,,,,,,,,,,,,,,,,,,,,,,,,,,,,,,,,,,,,,,,,,,,,,,,,,,,,,,,,,,,,,,,,,,,,
,,,,,,,,,,1597537,2020-10-30_13h06.11.976,swahili,2020.2.4,MacIntel,60,,,,,,,,,,-0.319181315,-0.048943866,1,0,0,0.73244,unsorted_card,6,0,6,0,1,,,,,,,,,,,,,,,,,,,,,,,,,,,,,,,,,,,,,,,,,,,,,,,,,,,,,,,,,,,,,,,,,,,,,,,,,,,,,,,,,
,,,,,,,,,,1597537,2020-10-30_13h06.11.976,swahili,2020.2.4,MacIntel,60,,,,,,,,,,0.404085286,-0.019198495,1,0,0,4.38726,test_pile,7,0,7,0,1,PLATE - SAHANI,,,,,,,,,,,,,,,,,,,,,,,,,,,,,,,,,,,,,,,,,,,,,,,,,,,,,,,,,,,,,,,,,,,,,,,,,,,,,,,,
,,,,,,,,,,1597537,2020-10-30_13h06.11.976,swahili,2020.2.4,MacIntel,60,,,,,,,,,,-0.293237305,0.043337674,1,0,0,0.49678,unsorted_card,8,0,8,0,1,,,,,,,,,,,,,,,,,,,,,,,,,,,,,,,,,,,,,,,,,,,,,,,,,,,,,,,,,,,,,,,,,,,,,,,,,,,,,,,,,
,,,,,,,,,,1597537,2020-10-30_13h06.11.976,swahili,2020.2.4,MacIntel,60,,,,,,,,,,0.465877279,0.034910301,1,0,0,0.706345,test_pile,9,0,9,0,1,YEAST - HAMIRA,,,,,,,,,,,,,,,,,,,,,,,,,,,,,,,,,,,,,,,,,,,,,,,,,,,,,,,,,,,,,,,,,,,,,,,,,,,,,,,,
,,,,,,,,,,1597537,2020-10-30_13h06.11.976,swahili,2020.2.4,MacIntel,60,,,,,,,,,,-0.237255859,0.008340567,1,0,0,0.499015,unsorted_card,10,0,10,0,1,,,,,,,,,,,,,,,,,,,,,,,,,,,,,,,,,,,,,,,,,,,,,,,,,,,,,,,,,,,,,,,,,,,,,,,,,,,,,,,,,
,,,,,,,,,,1597537,2020-10-30_13h06.11.976,swahili,2020.2.4,MacIntel,60,,,,,,,,,,0.463936361,-0.076750579,1,0,0,0.56599,test_pile,11,0,11,0,1,BLAME - LAWAMA,,,,,,,,,,,,,,,,,,,,,,,,,,,,,,,,,,,,,,,,,,,,,,,,,,,,,,,,,,,,,,,,,,,,,,,,,,,,,,,,
,,,,,,,,,,1597537,2020-10-30_13h06.11.976,swahili,2020.2.4,MacIntel,60,,,,,,,,,,-0.215340169,-0.005353009,1,0,0,0.516435,unsorted_card,12,0,12,0,1,,,,,,,,,,,,,,,,,,,,,,,,,,,,,,,,,,,,,,,,,,,,,,,,,,,,,,,,,,,,,,,,,,,,,,,,,,,,,,,,,
,,,,,,,,,,1597537,2020-10-30_13h06.11.976,swahili,2020.2.4,MacIntel,60,,,,,,,,,,0.465393066,-0.064735243,1,0,0,0.465025,test_pile,13,0,13,0,1,CORN - NAFAKA,,,,,,,,,,,,,,,,,,,,,,,,,,,,,,,,,,,,,,,,,,,,,,,,,,,,,,,,,,,,,,,,,,,,,,,,,,,,,,,,
,,,,,,,,,,1597537,2020-10-30_13h06.11.976,swahili,2020.2.4,MacIntel,60,,,,,,,,,,-0.235864258,-0.054730903,1,0,0,0.46501,unsorted_card,14,0,14,0,1,,,,,,,,,,,,,,,,,,,,,,,,,,,,,,,,,,,,,,,,,,,,,,,,,,,,,,,,,,,,,,,,,,,,,,,,,,,,,,,,,
,,,,,,,,,,1597537,2020-10-30_13h06.11.976,swahili,2020.2.4,MacIntel,60,,,,,,,,,,0.505635579,-0.150824653,1,0,0,0.466285,test_pile,15,0,15,0,1,POEM - UTENZI,,,,,,,,,,,,,,,,,,,,,,,,,,,,,,,,,,,,,,,,,,,,,,,,,,,,,,,,,,,,,,,,,,,,,,,,,,,,,,,,
,,,,,,,,,,1597537,2020-10-30_13h06.11.976,swahili,2020.2.4,MacIntel,60,,,,,,,,,,-0.259533691,-0.023343461,1,0,0,0.714335,unsorted_card,16,0,16,0,1,,,,,,,,,,,,,,,,,,,,,,,,,,,,,,,,,,,,,,,,,,,,,,,,,,,,,,,,,,,,,,,,,,,,,,,,,,,,,,,,,
,,,,,,,,,,1597537,2020-10-30_13h06.11.976,swahili,2020.2.4,MacIntel,60,,,,,,,,,,0.434969076,-0.038722512,1,0,0,0.533135,test_pile,17,0,17,0,1,TAILOR - MSHONI,,,,,,,,,,,,,,,,,,,,,,,,,,,,,,,,,,,,,,,,,,,,,,,,,,,,,,,,,,,,,,,,,,,,,,,,,,,,,,,,
,,,,,,,,,,1597537,2020-10-30_13h06.11.976,swahili,2020.2.4,MacIntel,60,,,,,,,,,,-0.292370605,-0.083781829,1,0,0,0.498905,unsorted_card,18,0,18,0,1,,,,,,,,,,,,,,,,,,,,,,,,,,,,,,,,,,,,,,,,,,,,,,,,,,,,,,,,,,,,,,,,,,,,,,,,,,,,,,,,,
,,,,,,,,,,1597537,2020-10-30_13h06.11.976,swahili,2020.2.4,MacIntel,60,,,,,,,,,,0.307714844,-0.12004485,1,0,0,0.466655,test_pile,19,0,19,0,1,GRAPES - ZABIBU,,,,,,,,,,,,,,,,,,,,,,,,,,,,,,,,,,,,,,,,,,,,,,,,,,,,,,,,,,,,,,,,,,,,,,,,,,,,,,,,
,,,,,,,,,,1597537,2020-10-30_13h06.11.976,swahili,2020.2.4,MacIntel,60,,,,,,,,,,-0.213586426,-0.008998843,1,0,0,0.58108,unsorted_card,20,0,20,0,1,,,,,,,,,,,,,,,,,,,,,,,,,,,,,,,,,,,,,,,,,,,,,,,,,,,,,,,,,,,,,,,,,,,,,,,,,,,,,,,,,
,,,,,,,,,,1597537,2020-10-30_13h06.11.976,swahili,2020.2.4,MacIntel,60,,,,,,,,,,0.586397298,0.123755787,1,0,0,0.517175,test_pile,21,0,21,0,1,GRAVE - KABURI,,,,,,,,,,,,,,,,,,,,,,,,,,,,,,,,,,,,,,,,,,,,,,,,,,,,,,,,,,,,,,,,,,,,,,,,,,,,,,,,
,,,,,,,,,,1597537,2020-10-30_13h06.11.976,swahili,2020.2.4,MacIntel,60,,,,,,,,,,-0.184916178,0.138172743,1,0,0,0.565475,unsorted_card,22,0,22,0,1,,,,,,,,,,,,,,,,,,,,,,,,,,,,,,,,,,,,,,,,,,,,,,,,,,,,,,,,,,,,,,,,,,,,,,,,,,,,,,,,,
,,,,,,,,,,1597537,2020-10-30_13h06.11.976,swahili,2020.2.4,MacIntel,60,,,,,,,,,,0.445955404,0.08275463,1,0,0,0.716425,test_pile,23,0,23,0,1,MANURE - SAMADI,,,,,,,,,,,,,,,,,,,,,,,,,,,,,,,,,,,,,,,,,,,,,,,,,,,,,,,,,,,,,,,,,,,,,,,,,,,,,,,,
,,,,,,,,,,1597537,2020-10-30_13h06.11.976,swahili,2020.2.4,MacIntel,60,,,,,,,,,,-0.281266276,0.128855613,1,0,0,0.51592,unsorted_card,24,0,24,0,1,,,,,,,,,,,,,,,,,,,,,,,,,,,,,,,,,,,,,,,,,,,,,,,,,,,,,,,,,,,,,,,,,,,,,,,,,,,,,,,,,
,,,,,,,,,,1597537,2020-10-30_13h06.11.976,swahili,2020.2.4,MacIntel,60,,,,,,,,,,0.427010091,0.016796875,1,0,0,0.73307,test_pile,25,0,25,0,1,AGENT - WAKILI,,,,,,,,,,,,,,,,,,,,,,,,,,,,,,,,,,,,,,,,,,,,,,,,,,,,,,,,,,,,,,,,,,,,,,,,,,,,,,,,
,,,,,,,,,,1597537,2020-10-30_13h06.11.976,swahili,2020.2.4,MacIntel,60,,,,,,,,,,-0.26772054,-0.0479239,1,0,0,0.570615,unsorted_card,26,0,26,0,1,,,,,,,,,,,,,,,,,,,,,,,,,,,,,,,,,,,,,,,,,,,,,,,,,,,,,,,,,,,,,,,,,,,,,,,,,,,,,,,,,
,,,,,,,,,,1597537,2020-10-30_13h06.11.976,swahili,2020.2.4,MacIntel,60,,,,,,,,,,0.439701335,0.041912616,1,0,0,0.76878,test_pile,27,0,27,0,1,BRIBE - RUSHWA,,,,,,,,,,,,,,,,,,,,,,,,,,,,,,,,,,,,,,,,,,,,,,,,,,,,,,,,,,,,,,,,,,,,,,,,,,,,,,,,
,,,,,,,,,,1597537,2020-10-30_13h06.11.976,swahili,2020.2.4,MacIntel,60,,,,,,,,,,0.058732096,0.113049769,1,0,0,0.61546,unsorted_card,28,0,28,0,1,,,,,,,,,,,,,,,,,,,,,,,,,,,,,,,,,,,,,,,,,,,,,,,,,,,,,,,,,,,,,,,,,,,,,,,,,,,,,,,,,
,,,,,,,,,,1597537,2020-10-30_13h06.11.976,swahili,2020.2.4,MacIntel,60,,,,,,,,,,0.392614746,0.012275752,1,0,0,0.69887,test_pile,29,0,29,0,1,ORPHAN - YATIMA,,,,,,,,,,,,,,,,,,,,,,,,,,,,,,,,,,,,,,,,,,,,,,,,,,,,,,,,,,,,,,,,,,,,,,,,,,,,,,,,
,,,,,,,,,,1597537,2020-10-30_13h06.11.976,swahili,2020.2.4,MacIntel,60,,,,,,,,,,-0.258064779,-0.067375579,1,0,0,0.54998,unsorted_card,30,0,30,0,1,,,,,,,,,,,,,,,,,,,,,,,,,,,,,,,,,,,,,,,,,,,,,,,,,,,,,,,,,,,,,,,,,,,,,,,,,,,,,,,,,
,,,,,,,,,,1597537,2020-10-30_13h06.11.976,swahili,2020.2.4,MacIntel,60,,,,,,,,,,0.561022949,-0.075810185,1,0,0,0.69813,test_pile,31,0,31,0,1,DIVORCE - TALAKA,,,,,,,,,,,,,,,,,,,,,,,,,,,,,,,,,,,,,,,,,,,,,,,,,,,,,,,,,,,,,,,,,,,,,,,,,,,,,,,,
,,,,,,,,,,1597537,2020-10-30_13h06.11.976,swahili,2020.2.4,MacIntel,60,,,,,,,,,,-0.2502889,-0.053602431,1,0,0,0.78387,unsorted_card,32,0,32,0,1,,,,,,,,,,,,,,,,,,,,,,,,,,,,,,,,,,,,,,,,,,,,,,,,,,,,,,,,,,,,,,,,,,,,,,,,,,,,,,,,,
,,,,,,,,,,1597537,2020-10-30_13h06.11.976,swahili,2020.2.4,MacIntel,60,,,,,,,,,,0.41344401,-0.019921875,1,0,0,0.74909,test_pile,33,0,33,0,1,BOAT - MASHUA,,,,,,,,,,,,,,,,,,,,,,,,,,,,,,,,,,,,,,,,,,,,,,,,,,,,,,,,,,,,,,,,,,,,,,,,,,,,,,,,
,,,,,,,,,,1597537,2020-10-30_13h06.11.976,swahili,2020.2.4,MacIntel,60,,,,,,,,,,-0.338000488,0.027640336,1,0,0,0.548925,unsorted_card,34,0,34,0,1,,,,,,,,,,,,,,,,,,,,,,,,,,,,,,,,,,,,,,,,,,,,,,,,,,,,,,,,,,,,,,,,,,,,,,,,,,,,,,,,,
,,,,,,,,,,1597537,2020-10-30_13h06.11.976,swahili,2020.2.4,MacIntel,60,,,,,,,,,,0.420402018,0.021853299,1,0,0,0.732545,test_pile,35,0,35,0,1,TREASURE - DAFINA,,,,,,,,,,,,,,,,,,,,,,,,,,,,,,,,,,,,,,,,,,,,,,,,,,,,,,,,,,,,,,,,,,,,,,,,,,,,,,,,
,,,,,,,,,,1597537,2020-10-30_13h06.11.976,swahili,2020.2.4,MacIntel,60,,,,,,,,,,,,,,,,,,,,,,,,,,,,,,,,,,0,0,0,0,1,,,,,,,,,,,,,,,,,,,,,,,,,,,,,,,,,,,,,,,,,,,,,,,,,,,,,,,,,,,,,,,,
,,,,,,,,,,1597537,2020-10-30_13h06.11.976,swahili,2020.2.4,MacIntel,60,,,,,,,,,,,,,,,,,,,,,,,,,,,,,,,,,,,,,,,return,,,,,,,,,,,1.31808,4.1743,0.322456868,0.012955729,1,0,0,0.951875,yes,CORN,NAKALA,incorrect,0,0,0,0,1,,,,,,,,,,,,,,,,,,,,,,,,,,,,,,,,,,,,
,,,,,,,,,,1597537,2020-10-30_13h06.11.976,swahili,2020.2.4,MacIntel,60,,,,,,,,,,,,,,,,,,,,,,,,,,,,,,,,,,,,,,,,,,,,,,,,,,,6.41015,0.422379557,-0.087991898,1,0,0,0.600505,yes,YEAST,HAMIRA,incorrect,1,0,1,0,1,,,,,,,,,,,,,,,,,,,,,,,,,,,,,,,,,,,,
,,,,,,,,,,1597537,2020-10-30_13h06.11.976,swahili,2020.2.4,MacIntel,60,,,,,,,,,,,,,,,,,,,,,,,,,,,,,,,,,,,,,,,,,,,,,,,,,,,8.52809,0.414827474,-0.022077546,1,0,0,0.61866,yes,PARROT,KASUKA,incorrect,2,0,2,0,1,,,,,,,,,,,,,,,,,,,,,,,,,,,,,,,,,,,,
,,,,,,,,,,1597537,2020-10-30_13h06.11.976,swahili,2020.2.4,MacIntel,60,,,,,,,,,,,,,,,,,,,,,,,,,,,,,,,,,,,,,,,,,,,,,,,,,,,3.15033,0.333976237,-0.208666088,1,0,0,0.634,yes,MERCHANT,TAJIRI,incorrect,3,0,3,0,1,,,,,,,,,,,,,,,,,,,,,,,,,,,,,,,,,,,,
,,,,,,,,,,1597537,2020-10-30_13h06.11.976,swahili,2020.2.4,MacIntel,60,,,,,,,,,,,,,,,,,,,,,,,,,,,,,,,,,,,,,,,,,,,,,,,,,,,4.117945,0.392215983,-0.004651331,1,0,0,0.567715,yes,BLAME,LAWINI,incorrect,4,0,4,0,1,,,,,,,,,,,,,,,,,,,,,,,,,,,,,,,,,,,,
,,,,,,,,,,1597537,2020-10-30_13h06.11.976,swahili,2020.2.4,MacIntel,60,,,,,,,,,,,,,,,,,,,,,,,,,,,,,,,,,,,,,,,,,,,,,,,,,,,8.91188,0.389058431,-0.109845197,1,0,0,0.58328,yes,BULL,FAHILI,incorrect,5,0,5,0,1,,,,,,,,,,,,,,,,,,,,,,,,,,,,,,,,,,,,
,,,,,,,,,,1597537,2020-10-30_13h06.11.976,swahili,2020.2.4,MacIntel,60,,,,,,,,,,,,,,,,,,,,,,,,,,,,,,,,,,,,,,,,,,,,,,,,,,,6.043095,0.542264811,0.052936921,1,0,0,0.633715,yes,TAILOR,MSUHMI,incorrect,6,0,6,0,1,,,,,,,,,,,,,,,,,,,,,,,,,,,,,,,,,,,,
,,,,,,,,,,1597537,2020-10-30_13h06.11.976,swahili,2020.2.4,MacIntel,60,,,,,,,,,,,,,,,,,,,,,,,,,,,,,,,,,,,,,,,,,,,,,,,,,,,3.341835,0.493314616,0.073994502,1,0,0,0.64926,yes,AGENT,WAKILI,incorrect,7,0,7,0,1,,,,,,,,,,,,,,,,,,,,,,,,,,,,,,,,,,,,
,,,,,,,,,,1597537,2020-10-30_13h06.11.976,swahili,2020.2.4,MacIntel,60,,,,,,,,,,,,,,,,,,,,,,,,,,,,,,,,,,,,,,,,,,,,,,,,,,,2.368365,0.447465007,-0.140313947,1,0,0,0.882915,yes,MANURE,KSKS,incorrect,8,0,8,0,1,,,,,,,,,,,,,,,,,,,,,,,,,,,,,,,,,,,,
,,,,,,,,,,1597537,2020-10-30_13h06.11.976,swahili,2020.2.4,MacIntel,60,,,,,,,,,,,,,,,,,,,,,,,,,,,,,,,,,,,,,,,,,,,,,,,,,,,8.259525,0.334391276,0.051077836,1,0,0,0.668155,yes,TREASURE,DAFINA,incorrect,9,0,9,0,1,,,,,,,,,,,,,,,,,,,,,,,,,,,,,,,,,,,,
,,,,,,,,,,1597537,2020-10-30_13h06.11.976,swahili,2020.2.4,MacIntel,60,,,,,,,,,,,,,,,,,,,,,,,,,,,,,,,,,,,,,,,,,,,,,,,,,,,4.691635,0.467793783,-0.052105035,1,0,0,0.651325,yes,GRAVE,TABURI,incorrect,10,0,10,0,1,,,,,,,,,,,,,,,,,,,,,,,,,,,,,,,,,,,,
,,,,,,,,,,1597537,2020-10-30_13h06.11.976,swahili,2020.2.4,MacIntel,60,,,,,,,,,,,,,,,,,,,,,,,,,,,,,,,,,,,,,,,,,,,,,,,,,,,5.340815,0.369527181,-0.157581019,1,0,0,0.65141,yes,BOAT,MASHURI,incorrect,11,0,11,0,1,,,,,,,,,,,,,,,,,,,,,,,,,,,,,,,,,,,,
,,,,,,,,,,1597537,2020-10-30_13h06.11.976,swahili,2020.2.4,MacIntel,60,,,,,,,,,,,,,,,,,,,,,,,,,,,,,,,,,,,,,,,,,,,,,,,,,,,3.952575,0.408951823,-0.137094907,1,0,0,0.60119,yes,PLATE,SAHANI,incorrect,12,0,12,0,1,,,,,,,,,,,,,,,,,,,,,,,,,,,,,,,,,,,,
,,,,,,,,,,1597537,2020-10-30_13h06.11.976,swahili,2020.2.4,MacIntel,60,,,,,,,,,,,,,,,,,,,,,,,,,,,,,,,,,,,,,,,,,,,,,,,,,,,3.36838,0.485367839,-0.105541088,1,0,0,0.601485,yes,GRAPES,ZABURI,incorrect,13,0,13,0,1,,,,,,,,,,,,,,,,,,,,,,,,,,,,,,,,,,,,
,,,,,,,,,,1597537,2020-10-30_13h06.11.976,swahili,2020.2.4,MacIntel,60,,,,,,,,,,,,,,,,,,,,,,,,,,,,,,,,,,,,,,,,,,,,,,,,,,,5.509935,0.434098307,-0.064048032,1,0,0,0.618235,yes,BRIBE,RUSHIL,incorrect,14,0,14,0,1,,,,,,,,,,,,,,,,,,,,,,,,,,,,,,,,,,,,
,,,,,,,,,,1597537,2020-10-30_13h06.11.976,swahili,2020.2.4,MacIntel,60,,,,,,,,,,,,,,,,,,,,,,,,,,,,,,,,,,,,,,,,,,,,,,,,,,,4.01894,0.361425781,-0.199565972,1,0,0,0.72117,yes,ORPHAN,KKNKN,incorrect,15,0,15,0,1,,,,,,,,,,,,,,,,,,,,,,,,,,,,,,,,,,,,
,,,,,,,,,,1597537,2020-10-30_13h06.11.976,swahili,2020.2.4,MacIntel,60,,,,,,,,,,,,,,,,,,,,,,,,,,,,,,,,,,,,,,,,,,,,,,,,,,,5.43704,0.406184896,-0.04005353,1,0,0,0.75251,yes,DIVORCE,TAKALA,incorrect,16,0,16,0,1,,,,,,,,,,,,,,,,,,,,,,,,,,,,,,,,,,,,
,,,,,,,,,,1597537,2020-10-30_13h06.11.976,swahili,2020.2.4,MacIntel,60,,,,,,,,,,,,,,,,,,,,,,,,,,,,,,,,,,,,,,,,,,,,,,,,,,,12.715715,0.360424805,-0.174768519,1,0,0,1.01843,yes,POEM,UTEZI,incorrect,17,0,17,0,1,,,,,,,,,,,,,,,,,,,,,,,,,,,,,,,,,,,,
,,,,,,,,,,1597537,2020-10-30_13h06.11.976,swahili,2020.2.4,MacIntel,60,,,,,,,,,,,,,,,,,,,,,,,,,,,,,,,,,,,,,,,,0,0,0,0,1,,,,,,,,,,,,,,,,,,,,,,,,,,,,,,,,,,,,,,,,,,,,,,,,,,,,,,,,,,
,,,,,,,,,,1597537,2020-10-30_13h06.11.976,swahili,2020.2.4,MacIntel,60,,,,,,,,,,,,,,,,,,,,,,,,,,,,,,,,,,,,,,,,1,0,1,0,1,,,,,,,,,,,,,,,,,,,,,,,,,,,,,,,,,,,,,,,,,,,,,,,,,,,,,,,,,,
,,,,,,,,,,1597537,2020-10-30_13h06.11.976,swahili,2020.2.4,MacIntel,60,,,,,,,,,,,,,,,,,,,,,,,,,,,,,,,,,,,,,,,,,,,,,5,0,5,0,1,,,,,,,,,,,,,,,,,,,,,,,,,,,,,,,,,,,,,,,,,,,,,,,,,,,,,
,,,,,,,,,,1597537,2020-10-30_13h06.11.976,swahili,2020.2.4,MacIntel,60,,,,,,,,,,-0.146972656,-0.120052083,1,0,0,1.06893,unsorted_card,0,0,0,0,1,,,,,,,,,,,,,,,,,,,,,,,,,,,,,,,,,,,,,,,,,,,,,,,,,,,,,,,,,,,,,,,,,,,,,,,,,,,,,,,,,
,,,,,,,,,,1597537,2020-10-30_13h06.11.976,swahili,2020.2.4,MacIntel,60,,,,,,,,,,0.454650879,-0.524305556,1,0,0,1.568835,done_pile,1,0,1,0,1,MERCHANT - TAJIRI,,,,,,,,,,,,,,,,,,,,,,,,,,,,,,,,,,,,,,,,,,,,,,,,,,,,,,,,,,,,,,,,,,,,,,,,,,,,,,,,
,,,,,,,,,,1597537,2020-10-30_13h06.11.976,swahili,2020.2.4,MacIntel,60,,,,,,,,,,-0.381298828,-0.06682581,1,0,0,0.531845,unsorted_card,2,0,2,0,1,,,,,,,,,,,,,,,,,,,,,,,,,,,,,,,,,,,,,,,,,,,,,,,,,,,,,,,,,,,,,,,,,,,,,,,,,,,,,,,,,
,,,,,,,,,,1597537,2020-10-30_13h06.11.976,swahili,2020.2.4,MacIntel,60,,,,,,,,,,0.378922526,-0.077264178,1,0,0,1.205005,test_pile,3,0,3,0,1,PARROT - KASUKU,,,,,,,,,,,,,,,,,,,,,,,,,,,,,,,,,,,,,,,,,,,,,,,,,,,,,,,,,,,,,,,,,,,,,,,,,,,,,,,,
,,,,,,,,,,1597537,2020-10-30_13h06.11.976,swahili,2020.2.4,MacIntel,60,,,,,,,,,,-0.304060872,-0.054166667,1,0,0,0.40049,unsorted_card,4,0,4,0,1,,,,,,,,,,,,,,,,,,,,,,,,,,,,,,,,,,,,,,,,,,,,,,,,,,,,,,,,,,,,,,,,,,,,,,,,,,,,,,,,,
,,,,,,,,,,1597537,2020-10-30_13h06.11.976,swahili,2020.2.4,MacIntel,60,,,,,,,,,,0.385835775,-0.602502894,1,0,0,0.916075,done_pile,5,0,5,0,1,BULL - FAHILI,,,,,,,,,,,,,,,,,,,,,,,,,,,,,,,,,,,,,,,,,,,,,,,,,,,,,,,,,,,,,,,,,,,,,,,,,,,,,,,,
,,,,,,,,,,1597537,2020-10-30_13h06.11.976,swahili,2020.2.4,MacIntel,60,,,,,,,,,,-0.228474935,-0.07484809,1,0,0,0.46461,unsorted_card,6,0,6,0,1,,,,,,,,,,,,,,,,,,,,,,,,,,,,,,,,,,,,,,,,,,,,,,,,,,,,,,,,,,,,,,,,,,,,,,,,,,,,,,,,,
,,,,,,,,,,1597537,2020-10-30_13h06.11.976,swahili,2020.2.4,MacIntel,60,,,,,,,,,,0.447119141,-0.513961227,1,0,0,0.917835,done_pile,7,0,7,0,1,PLATE - SAHANI,,,,,,,,,,,,,,,,,,,,,,,,,,,,,,,,,,,,,,,,,,,,,,,,,,,,,,,,,,,,,,,,,,,,,,,,,,,,,,,,
,,,,,,,,,,1597537,2020-10-30_13h06.11.976,swahili,2020.2.4,MacIntel,60,,,,,,,,,,-0.210323079,-0.095334201,1,0,0,0.48133,unsorted_card,8,0,8,0,1,,,,,,,,,,,,,,,,,,,,,,,,,,,,,,,,,,,,,,,,,,,,,,,,,,,,,,,,,,,,,,,,,,,,,,,,,,,,,,,,,
,,,,,,,,,,1597537,2020-10-30_13h06.11.976,swahili,2020.2.4,MacIntel,60,,,,,,,,,,0.495320638,-0.028313079,1,0,0,1.317125,test_pile,9,0,9,0,1,YEAST - HAMIRA,,,,,,,,,,,,,,,,,,,,,,,,,,,,,,,,,,,,,,,,,,,,,,,,,,,,,,,,,,,,,,,,,,,,,,,,,,,,,,,,
,,,,,,,,,,1597537,2020-10-30_13h06.11.976,swahili,2020.2.4,MacIntel,60,,,,,,,,,,-0.332666016,0.197974537,1,0,0,0.4804,unsorted_card,10,0,10,0,1,,,,,,,,,,,,,,,,,,,,,,,,,,,,,,,,,,,,,,,,,,,,,,,,,,,,,,,,,,,,,,,,,,,,,,,,,,,,,,,,,
,,,,,,,,,,1597537,2020-10-30_13h06.11.976,swahili,2020.2.4,MacIntel,60,,,,,,,,,,0.410359701,-0.051468461,1,0,0,1.384985,test_pile,11,0,11,0,1,BLAME - LAWAMA,,,,,,,,,,,,,,,,,,,,,,,,,,,,,,,,,,,,,,,,,,,,,,,,,,,,,,,,,,,,,,,,,,,,,,,,,,,,,,,,
,,,,,,,,,,1597537,2020-10-30_13h06.11.976,swahili,2020.2.4,MacIntel,60,,,,,,,,,,-0.234391276,0.030779803,1,0,0,0.54817,unsorted_card,12,0,12,0,1,,,,,,,,,,,,,,,,,,,,,,,,,,,,,,,,,,,,,,,,,,,,,,,,,,,,,,,,,,,,,,,,,,,,,,,,,,,,,,,,,
,,,,,,,,,,1597537,2020-10-30_13h06.11.976,swahili,2020.2.4,MacIntel,60,,,,,,,,,,0.371704102,-0.078768808,1,0,0,0.89885,test_pile,13,0,13,0,1,CORN - NAFAKA,,,,,,,,,,,,,,,,,,,,,,,,,,,,,,,,,,,,,,,,,,,,,,,,,,,,,,,,,,,,,,,,,,,,,,,,,,,,,,,,
,,,,,,,,,,1597537,2020-10-30_13h06.11.976,swahili,2020.2.4,MacIntel,60,,,,,,,,,,-0.298286947,0.055157697,1,0,0,0.46474,unsorted_card,14,0,14,0,1,,,,,,,,,,,,,,,,,,,,,,,,,,,,,,,,,,,,,,,,,,,,,,,,,,,,,,,,,,,,,,,,,,,,,,,,,,,,,,,,,
,,,,,,,,,,1597537,2020-10-30_13h06.11.976,swahili,2020.2.4,MacIntel,60,,,,,,,,,,0.490958659,0.0203125,1,0,0,1.474265,test_pile,15,0,15,0,1,POEM - UTENZI,,,,,,,,,,,,,,,,,,,,,,,,,,,,,,,,,,,,,,,,,,,,,,,,,,,,,,,,,,,,,,,,,,,,,,,,,,,,,,,,
,,,,,,,,,,1597537,2020-10-30_13h06.11.976,swahili,2020.2.4,MacIntel,60,,,,,,,,,,-0.318473307,0.189019097,1,0,0,0.48259,unsorted_card,16,0,16,0,1,,,,,,,,,,,,,,,,,,,,,,,,,,,,,,,,,,,,,,,,,,,,,,,,,,,,,,,,,,,,,,,,,,,,,,,,,,,,,,,,,
,,,,,,,,,,1597537,2020-10-30_13h06.11.976,swahili,2020.2.4,MacIntel,60,,,,,,,,,,0.37845459,0.007942708,1,0,0,0.79916,test_pile,17,0,17,0,1,TAILOR - MSHONI,,,,,,,,,,,,,,,,,,,,,,,,,,,,,,,,,,,,,,,,,,,,,,,,,,,,,,,,,,,,,,,,,,,,,,,,,,,,,,,,
,,,,,,,,,,1597537,2020-10-30_13h06.11.976,swahili,2020.2.4,MacIntel,60,,,,,,,,,,-0.344327799,-0.009722222,1,0,0,0.498705,unsorted_card,18,0,18,0,1,,,,,,,,,,,,,,,,,,,,,,,,,,,,,,,,,,,,,,,,,,,,,,,,,,,,,,,,,,,,,,,,,,,,,,,,,,,,,,,,,
,,,,,,,,,,1597537,2020-10-30_13h06.11.976,swahili,2020.2.4,MacIntel,60,,,,,,,,,,0.351249186,-0.019596354,1,0,0,1.18503,test_pile,19,0,19,0,1,GRAPES - ZABIBU,,,,,,,,,,,,,,,,,,,,,,,,,,,,,,,,,,,,,,,,,,,,,,,,,,,,,,,,,,,,,,,,,,,,,,,,,,,,,,,,
,,,,,,,,,,1597537,2020-10-30_13h06.11.976,swahili,2020.2.4,MacIntel,60,,,,,,,,,,-0.291544596,0.05682147,1,0,0,0.43151,unsorted_card,20,0,20,0,1,,,,,,,,,,,,,,,,,,,,,,,,,,,,,,,,,,,,,,,,,,,,,,,,,,,,,,,,,,,,,,,,,,,,,,,,,,,,,,,,,
,,,,,,,,,,1597537,2020-10-30_13h06.11.976,swahili,2020.2.4,MacIntel,60,,,,,,,,,,0.528588867,-0.033789063,1,0,0,2.39937,test_pile,21,0,21,0,1,GRAVE - KABURI,,,,,,,,,,,,,,,,,,,,,,,,,,,,,,,,,,,,,,,,,,,,,,,,,,,,,,,,,,,,,,,,,,,,,,,,,,,,,,,,
,,,,,,,,,,1597537,2020-10-30_13h06.11.976,swahili,2020.2.4,MacIntel,60,,,,,,,,,,-0.328633626,0.091182002,1,0,0,0.48181,unsorted_card,22,0,22,0,1,,,,,,,,,,,,,,,,,,,,,,,,,,,,,,,,,,,,,,,,,,,,,,,,,,,,,,,,,,,,,,,,,,,,,,,,,,,,,,,,,
,,,,,,,,,,1597537,2020-10-30_13h06.11.976,swahili,2020.2.4,MacIntel,60,,,,,,,,,,0.487573242,-0.056148727,1,0,0,1.25071,test_pile,23,0,23,0,1,MANURE - SAMADI,,,,,,,,,,,,,,,,,,,,,,,,,,,,,,,,,,,,,,,,,,,,,,,,,,,,,,,,,,,,,,,,,,,,,,,,,,,,,,,,
,,,,,,,,,,1597537,2020-10-30_13h06.11.976,swahili,2020.2.4,MacIntel,60,,,,,,,,,,-0.319596354,0.014293981,1,0,0,0.448645,unsorted_card,24,0,24,0,1,,,,,,,,,,,,,,,,,,,,,,,,,,,,,,,,,,,,,,,,,,,,,,,,,,,,,,,,,,,,,,,,,,,,,,,,,,,,,,,,,
,,,,,,,,,,1597537,2020-10-30_13h06.11.976,swahili,2020.2.4,MacIntel,60,,,,,,,,,,0.38634847,-0.403978588,1,0,0,1.36689,done_pile,25,0,25,0,1,AGENT - WAKILI,,,,,,,,,,,,,,,,,,,,,,,,,,,,,,,,,,,,,,,,,,,,,,,,,,,,,,,,,,,,,,,,,,,,,,,,,,,,,,,,
,,,,,,,,,,1597537,2020-10-30_13h06.11.976,swahili,2020.2.4,MacIntel,60,,,,,,,,,,-0.182080078,0.124609375,1,0,0,0.55404,unsorted_card,26,0,26,0,1,,,,,,,,,,,,,,,,,,,,,,,,,,,,,,,,,,,,,,,,,,,,,,,,,,,,,,,,,,,,,,,,,,,,,,,,,,,,,,,,,
,,,,,,,,,,1597537,2020-10-30_13h06.11.976,swahili,2020.2.4,MacIntel,60,,,,,,,,,,0.544319661,0.004289641,1,0,0,1.10216,test_pile,27,0,27,0,1,BRIBE - RUSHWA,,,,,,,,,,,,,,,,,,,,,,,,,,,,,,,,,,,,,,,,,,,,,,,,,,,,,,,,,,,,,,,,,,,,,,,,,,,,,,,,
,,,,,,,,,,1597537,2020-10-30_13h06.11.976,swahili,2020.2.4,MacIntel,60,,,,,,,,,,-0.237207031,0.054347512,1,0,0,0.59718,unsorted_card,28,0,28,0,1,,,,,,,,,,,,,,,,,,,,,,,,,,,,,,,,,,,,,,,,,,,,,,,,,,,,,,,,,,,,,,,,,,,,,,,,,,,,,,,,,
,,,,,,,,,,1597537,2020-10-30_13h06.11.976,swahili,2020.2.4,MacIntel,60,,,,,,,,,,0.516426595,-0.025593171,1,0,0,0.73259,test_pile,29,0,29,0,1,ORPHAN - YATIMA,,,,,,,,,,,,,,,,,,,,,,,,,,,,,,,,,,,,,,,,,,,,,,,,,,,,,,,,,,,,,,,,,,,,,,,,,,,,,,,,
,,,,,,,,,,1597537,2020-10-30_13h06.11.976,swahili,2020.2.4,MacIntel,60,,,,,,,,,,-0.281506348,0.009411169,1,0,0,0.56576,unsorted_card,30,0,30,0,1,,,,,,,,,,,,,,,,,,,,,,,,,,,,,,,,,,,,,,,,,,,,,,,,,,,,,,,,,,,,,,,,,,,,,,,,,,,,,,,,,
,,,,,,,,,,1597537,2020-10-30_13h06.11.976,swahili,2020.2.4,MacIntel,60,,,,,,,,,,0.463977051,-0.051388889,1,0,0,1.567525,test_pile,31,0,31,0,1,DIVORCE - TALAKA,,,,,,,,,,,,,,,,,,,,,,,,,,,,,,,,,,,,,,,,,,,,,,,,,,,,,,,,,,,,,,,,,,,,,,,,,,,,,,,,
,,,,,,,,,,1597537,2020-10-30_13h06.11.976,swahili,2020.2.4,MacIntel,60,,,,,,,,,,-0.238956706,0.103732639,1,0,0,0.64911,unsorted_card,32,0,32,0,1,,,,,,,,,,,,,,,,,,,,,,,,,,,,,,,,,,,,,,,,,,,,,,,,,,,,,,,,,,,,,,,,,,,,,,,,,,,,,,,,,
,,,,,,,,,,1597537,2020-10-30_13h06.11.976,swahili,2020.2.4,MacIntel,60,,,,,,,,,,0.476717122,-0.054087095,1,0,0,2.067195,test_pile,33,0,33,0,1,BOAT - MASHUA,,,,,,,,,,,,,,,,,,,,,,,,,,,,,,,,,,,,,,,,,,,,,,,,,,,,,,,,,,,,,,,,,,,,,,,,,,,,,,,,
,,,,,,,,,,1597537,2020-10-30_13h06.11.976,swahili,2020.2.4,MacIntel,60,,,,,,,,,,-0.320992025,-0.037304688,1,0,0,0.583465,unsorted_card,34,0,34,0,1,,,,,,,,,,,,,,,,,,,,,,,,,,,,,,,,,,,,,,,,,,,,,,,,,,,,,,,,,,,,,,,,,,,,,,,,,,,,,,,,,
,,,,,,,,,,1597537,2020-10-30_13h06.11.976,swahili,2020.2.4,MacIntel,60,,,,,,,,,,0.411140951,-0.41875,1,0,0,2.519015,done_pile,35,0,35,0,1,TREASURE - DAFINA,,,,,,,,,,,,,,,,,,,,,,,,,,,,,,,,,,,,,,,,,,,,,,,,,,,,,,,,,,,,,,,,,,,,,,,,,,,,,,,,
,,,,,,,,,,1597537,2020-10-30_13h06.11.976,swahili,2020.2.4,MacIntel,60,,,,,,,,,,,,,,,,,,,,,,,,,,,,,,,,,,0,0,0,0,1,,,,,,,,,,,,,,,,,,,,,,,,,,,,,,,,,,,,,,,,,,,,,,,,,,,,,,,,,,,,,,,,
,,,,,,,,,,1597537,2020-10-30_13h06.11.976,swahili,2020.2.4,MacIntel,60,,,,,,,,,,,,,,,,,,,,,,,,,,,,,,,,,,,,,,,return,,,,,,,,,,,2.766725,3.36826,0.393139648,0.194567419,1,0,0,0.901325,yes,MANURE,SAMURI,incorrect,0,0,0,0,1,,,,,,,,,,,,,,,,,,,,,,,,,,,,,,,,,,,,
,,,,,,,,,,1597537,2020-10-30_13h06.11.976,swahili,2020.2.4,MacIntel,60,,,,,,,,,,,,,,,,,,,,,,,,,,,,,,,,,,,,,,,,,,,,,,,,,,,3.324575,0.424499512,0.047945602,1,0,0,0.616115,yes,BRIBE,RUSHWI,incorrect,1,0,1,0,1,,,,,,,,,,,,,,,,,,,,,,,,,,,,,,,,,,,,
,,,,,,,,,,1597537,2020-10-30_13h06.11.976,swahili,2020.2.4,MacIntel,60,,,,,,,,,,,,,,,,,,,,,,,,,,,,,,,,,,,,,,,,,,,,,,,,,,,4.807745,0.411047363,-0.058521412,1,0,0,0.565995,yes,TAILOR,MSHONI,incorrect,2,0,2,0,1,,,,,,,,,,,,,,,,,,,,,,,,,,,,,,,,,,,,
