condition,consent_key.keys,consent_key.rt,done_with_instructions.keys,done_with_instructions.rt,instr_loop.thisRepN,instr_loop.thisTrialN,instr_loop.thisN,instr_loop.thisIndex,instr_loop.ran,Student ID #,date,expName,psychopyVersion,OS,frameRate,instr_learning_key.keys,instr_learning_key.rt,card_gen_loop.thisRepN,card_gen_loop.thisTrialN,card_gen_loop.thisN,card_gen_loop.thisIndex,card_gen_loop.ran,swa,eng,choose_pile.x,choose_pile.y,choose_pile.leftButton,choose_pile.midButton,choose_pile.rightButton,choose_pile.time,choose_pile.clicked_name,choices.thisRepN,choices.thisTrialN,choices.thisN,choices.thisIndex,choices.ran,card_to_show,mouse_pick.x,mouse_pick.y,mouse_pick.leftButton,mouse_pick.midButton,mouse_pick.rightButton,mouse_pick.time,mouse_pick.clicked_name,key_instr_study.keys,key_instr_study.rt,next_study.keys,next_study.rt,study_loop.thisRepN,study_loop.thisTrialN,study_loop.thisN,study_loop.thisIndex,study_loop.ran,key_instr_test.keys,learn_loop.thisRepN,learn_loop.thisTrialN,learn_loop.thisN,learn_loop.thisIndex,learn_loop.ran,trials.thisRepN,trials.thisTrialN,trials.thisN,trials.thisIndex,trials.ran,key_instr_test.rt,duration,yes_or_no.x,yes_or_no.y,yes_or_no.leftButton,yes_or_no.midButton,yes_or_no.rightButton,yes_or_no.time,yes_or_no.clicked_name,test_response.stim,test_response.resp,test_response.eval,test_loop.thisRepN,test_loop.thisTrialN,test_loop.thisN,test_loop.thisIndex,test_loop.ran,instr_movie_key.keys,instr_movie_key.rt,return_to_exp.keys,return_to_exp.rt,instr_assess_key.keys,instr_assess_key.rt,assess_loop.thisRepN,assess_loop.thisTrialN,assess_loop.thisN,assess_loop.thisIndex,assess_loop.ran,ans_gen_loop.thisRepN,ans_gen_loop.thisTrialN,ans_gen_loop.thisN,ans_gen_loop.thisIndex,ans_gen_loop.ran,sen,ans,instr_transfer_key.keys,instr_transfer_key.rt,transfer_response.resp,transfer_response.eval,select_word.x,select_word.y,select_word.leftButton,select_word.midButton,select_word.rightButton,select_word.time,select_word.clicked_name,transfers.thisRepN,transfers.thisTrialN,transfers.thisN,transfers.thisIndex,transfers.ran,end_experiment.keys,end_experiment.rt
2,return,11.028965,return,6.28634,0,0,0,0,1,1584469,2020-10-24_17h54.38.116,swahili,2020.2.4,MacIntel,60,,,,,,,,,,,,,,,,,,,,,,,,,,,,,,,,,,,,,,,,,,,,,,,,,,,,,,,,,,,,,,,,,,,,,,,,,,,,,,,,,,,,,,,,,,,,,,,,,,,,,,
,,,return,9.587045,1,0,1,0,1,1584469,2020-10-24_17h54.38.116,swahili,2020.2.4,MacIntel,60,,,,,,,,,,,,,,,,,,,,,,,,,,,,,,,,,,,,,,,,,,,,,,,,,,,,,,,,,,,,,,,,,,,,,,,,,,,,,,,,,,,,,,,,,,,,,,,,,,,,,,
,,,,,,,,,,1584469,2020-10-24_17h54.38.116,swahili,2020.2.4,MacIntel,60,return,4.04647,0,0,0,0,1,TAJIRI,MERCHANT,,,,,,,,,,,,,,,,,,,,,,,,,,,,,,,,,,,,,,,,,,,,,,,,,,,,,,,,,,,,,,,,,,,,,,,,,,,,,,,,,,,,,,,,,,,,,
,,,,,,,,,,1584469,2020-10-24_17h54.38.116,swahili,2020.2.4,MacIntel,60,,,0,1,1,1,1,KASUKU,PARROT,,,,,,,,,,,,,,,,,,,,,,,,,,,,,,,,,,,,,,,,,,,,,,,,,,,,,,,,,,,,,,,,,,,,,,,,,,,,,,,,,,,,,,,,,,,,,
,,,,,,,,,,1584469,2020-10-24_17h54.38.116,swahili,2020.2.4,MacIntel,60,,,0,2,2,2,1,FAHILI,BULL,,,,,,,,,,,,,,,,,,,,,,,,,,,,,,,,,,,,,,,,,,,,,,,,,,,,,,,,,,,,,,,,,,,,,,,,,,,,,,,,,,,,,,,,,,,,,
,,,,,,,,,,1584469,2020-10-24_17h54.38.116,swahili,2020.2.4,MacIntel,60,,,0,3,3,3,1,SAHANI,PLATE,,,,,,,,,,,,,,,,,,,,,,,,,,,,,,,,,,,,,,,,,,,,,,,,,,,,,,,,,,,,,,,,,,,,,,,,,,,,,,,,,,,,,,,,,,,,,
,,,,,,,,,,1584469,2020-10-24_17h54.38.116,swahili,2020.2.4,MacIntel,60,,,0,4,4,4,1,HAMIRA,YEAST,,,,,,,,,,,,,,,,,,,,,,,,,,,,,,,,,,,,,,,,,,,,,,,,,,,,,,,,,,,,,,,,,,,,,,,,,,,,,,,,,,,,,,,,,,,,,
,,,,,,,,,,1584469,2020-10-24_17h54.38.116,swahili,2020.2.4,MacIntel,60,,,0,5,5,5,1,LAWAMA,BLAME,,,,,,,,,,,,,,,,,,,,,,,,,,,,,,,,,,,,,,,,,,,,,,,,,,,,,,,,,,,,,,,,,,,,,,,,,,,,,,,,,,,,,,,,,,,,,
,,,,,,,,,,1584469,2020-10-24_17h54.38.116,swahili,2020.2.4,MacIntel,60,,,0,6,6,6,1,YAMINI,OATH,,,,,,,,,,,,,,,,,,,,,,,,,,,,,,,,,,,,,,,,,,,,,,,,,,,,,,,,,,,,,,,,,,,,,,,,,,,,,,,,,,,,,,,,,,,,,
,,,,,,,,,,1584469,2020-10-24_17h54.38.116,swahili,2020.2.4,MacIntel,60,,,0,7,7,7,1,NAFAKA,CORN,,,,,,,,,,,,,,,,,,,,,,,,,,,,,,,,,,,,,,,,,,,,,,,,,,,,,,,,,,,,,,,,,,,,,,,,,,,,,,,,,,,,,,,,,,,,,
,,,,,,,,,,1584469,2020-10-24_17h54.38.116,swahili,2020.2.4,MacIntel,60,,,0,8,8,8,1,UTENZI,POEM,,,,,,,,,,,,,,,,,,,,,,,,,,,,,,,,,,,,,,,,,,,,,,,,,,,,,,,,,,,,,,,,,,,,,,,,,,,,,,,,,,,,,,,,,,,,,
,,,,,,,,,,1584469,2020-10-24_17h54.38.116,swahili,2020.2.4,MacIntel,60,,,0,9,9,9,1,MSHONI,TAILOR,,,,,,,,,,,,,,,,,,,,,,,,,,,,,,,,,,,,,,,,,,,,,,,,,,,,,,,,,,,,,,,,,,,,,,,,,,,,,,,,,,,,,,,,,,,,,
,,,,,,,,,,1584469,2020-10-24_17h54.38.116,swahili,2020.2.4,MacIntel,60,,,0,10,10,10,1,JIBINI,CHEESE,,,,,,,,,,,,,,,,,,,,,,,,,,,,,,,,,,,,,,,,,,,,,,,,,,,,,,,,,,,,,,,,,,,,,,,,,,,,,,,,,,,,,,,,,,,,,
,,,,,,,,,,1584469,2020-10-24_17h54.38.116,swahili,2020.2.4,MacIntel,60,,,0,11,11,11,1,ZABIBU,GRAPES,,,,,,,,,,,,,,,,,,,,,,,,,,,,,,,,,,,,,,,,,,,,,,,,,,,,,,,,,,,,,,,,,,,,,,,,,,,,,,,,,,,,,,,,,,,,,
,,,,,,,,,,1584469,2020-10-24_17h54.38.116,swahili,2020.2.4,MacIntel,60,,,0,12,12,12,1,KABURI,GRAVE,,,,,,,,,,,,,,,,,,,,,,,,,,,,,,,,,,,,,,,,,,,,,,,,,,,,,,,,,,,,,,,,,,,,,,,,,,,,,,,,,,,,,,,,,,,,,
,,,,,,,,,,1584469,2020-10-24_17h54.38.116,swahili,2020.2.4,MacIntel,60,,,0,13,13,13,1,SAMADI,MANURE,,,,,,,,,,,,,,,,,,,,,,,,,,,,,,,,,,,,,,,,,,,,,,,,,,,,,,,,,,,,,,,,,,,,,,,,,,,,,,,,,,,,,,,,,,,,,
,,,,,,,,,,1584469,2020-10-24_17h54.38.116,swahili,2020.2.4,MacIntel,60,,,0,14,14,14,1,WAKILI,AGENT,,,,,,,,,,,,,,,,,,,,,,,,,,,,,,,,,,,,,,,,,,,,,,,,,,,,,,,,,,,,,,,,,,,,,,,,,,,,,,,,,,,,,,,,,,,,,
,,,,,,,,,,1584469,2020-10-24_17h54.38.116,swahili,2020.2.4,MacIntel,60,,,0,15,15,15,1,RUSHWA,BRIBE,,,,,,,,,,,,,,,,,,,,,,,,,,,,,,,,,,,,,,,,,,,,,,,,,,,,,,,,,,,,,,,,,,,,,,,,,,,,,,,,,,,,,,,,,,,,,
,,,,,,,,,,1584469,2020-10-24_17h54.38.116,swahili,2020.2.4,MacIntel,60,,,0,16,16,16,1,YATIMA,ORPHAN,,,,,,,,,,,,,,,,,,,,,,,,,,,,,,,,,,,,,,,,,,,,,,,,,,,,,,,,,,,,,,,,,,,,,,,,,,,,,,,,,,,,,,,,,,,,,
,,,,,,,,,,1584469,2020-10-24_17h54.38.116,swahili,2020.2.4,MacIntel,60,,,0,17,17,17,1,TALAKA,DIVORCE,,,,,,,,,,,,,,,,,,,,,,,,,,,,,,,,,,,,,,,,,,,,,,,,,,,,,,,,,,,,,,,,,,,,,,,,,,,,,,,,,,,,,,,,,,,,,
,,,,,,,,,,1584469,2020-10-24_17h54.38.116,swahili,2020.2.4,MacIntel,60,,,0,18,18,18,1,MASHUA,BOAT,,,,,,,,,,,,,,,,,,,,,,,,,,,,,,,,,,,,,,,,,,,,,,,,,,,,,,,,,,,,,,,,,,,,,,,,,,,,,,,,,,,,,,,,,,,,,
,,,,,,,,,,1584469,2020-10-24_17h54.38.116,swahili,2020.2.4,MacIntel,60,,,0,19,19,19,1,DAFINA,TREASURE,,,,,,,,,,,,,,,,,,,,,,,,,,,,,,,,,,,,,,,,,,,,,,,,,,,,,,,,,,,,,,,,,,,,,,,,,,,,,,,,,,,,,,,,,,,,,
,,,,,,,,,,1584469,2020-10-24_17h54.38.116,swahili,2020.2.4,MacIntel,60,,,,,,,,,,-0.27508138,0.052586806,1,0,0,3.504895,unsorted_card,0,0,0,0,1,,,,,,,,,,,,,,,,,,,,,,,,,,,,,,,,,,,,,,,,,,,,,,,,,,,,,,,,,,,,,,,,,,,,,,,,,,,,,,,,,
,,,,,,,,,,1584469,2020-10-24_17h54.38.116,swahili,2020.2.4,MacIntel,60,,,,,,,,,,-0.221554905,0.138133681,1,0,0,4.544,unsorted_card,1,0,1,0,1,MERCHANT - TAJIRI,,,,,,,,,,,,,,,,,,,,,,,,,,,,,,,,,,,,,,,,,,,,,,,,,,,,,,,,,,,,,,,,,,,,,,,,,,,,,,,,
,,,,,,,,,,1584469,2020-10-24_17h54.38.116,swahili,2020.2.4,MacIntel,60,,,,,,,,,,0.506136068,0.469765625,1,0,0,5.950365,study_pile,2,0,2,0,1,MERCHANT - TAJIRI,,,,,,,,,,,,,,,,,,,,,,,,,,,,,,,,,,,,,,,,,,,,,,,,,,,,,,,,,,,,,,,,,,,,,,,,,,,,,,,,
,,,,,,,,,,1584469,2020-10-24_17h54.38.116,swahili,2020.2.4,MacIntel,60,,,,,,,,,,-0.286919488,-0.069305556,1,0,0,1.044065,unsorted_card,3,0,3,0,1,,,,,,,,,,,,,,,,,,,,,,,,,,,,,,,,,,,,,,,,,,,,,,,,,,,,,,,,,,,,,,,,,,,,,,,,,,,,,,,,,
,,,,,,,,,,1584469,2020-10-24_17h54.38.116,swahili,2020.2.4,MacIntel,60,,,,,,,,,,0.438682726,0.451657986,1,0,0,2.1988,study_pile,4,0,4,0,1,PARROT - KASUKU,,,,,,,,,,,,,,,,,,,,,,,,,,,,,,,,,,,,,,,,,,,,,,,,,,,,,,,,,,,,,,,,,,,,,,,,,,,,,,,,
,,,,,,,,,,1584469,2020-10-24_17h54.38.116,swahili,2020.2.4,MacIntel,60,,,,,,,,,,-0.143988715,0.082309028,1,0,0,0.847815,unsorted_card,5,0,5,0,1,,,,,,,,,,,,,,,,,,,,,,,,,,,,,,,,,,,,,,,,,,,,,,,,,,,,,,,,,,,,,,,,,,,,,,,,,,,,,,,,,
,,,,,,,,,,1584469,2020-10-24_17h54.38.116,swahili,2020.2.4,MacIntel,60,,,,,,,,,,0.412472873,0.498602431,1,0,0,3.02027,study_pile,6,0,6,0,1,BULL - FAHILI,,,,,,,,,,,,,,,,,,,,,,,,,,,,,,,,,,,,,,,,,,,,,,,,,,,,,,,,,,,,,,,,,,,,,,,,,,,,,,,,
,,,,,,,,,,1584469,2020-10-24_17h54.38.116,swahili,2020.2.4,MacIntel,60,,,,,,,,,,-0.196934679,0.058402778,1,0,0,0.727155,unsorted_card,7,0,7,0,1,,,,,,,,,,,,,,,,,,,,,,,,,,,,,,,,,,,,,,,,,,,,,,,,,,,,,,,,,,,,,,,,,,,,,,,,,,,,,,,,,
,,,,,,,,,,1584469,2020-10-24_17h54.38.116,swahili,2020.2.4,MacIntel,60,,,,,,,,,,0.442111545,0.474375,1,0,0,2.284065,study_pile,8,0,8,0,1,PLATE - SAHANI,,,,,,,,,,,,,,,,,,,,,,,,,,,,,,,,,,,,,,,,,,,,,,,,,,,,,,,,,,,,,,,,,,,,,,,,,,,,,,,,
,,,,,,,,,,1584469,2020-10-24_17h54.38.116,swahili,2020.2.4,MacIntel,60,,,,,,,,,,-0.239350043,-0.110868056,1,0,0,0.794275,unsorted_card,9,0,9,0,1,,,,,,,,,,,,,,,,,,,,,,,,,,,,,,,,,,,,,,,,,,,,,,,,,,,,,,,,,,,,,,,,,,,,,,,,,,,,,,,,,
,,,,,,,,,,1584469,2020-10-24_17h54.38.116,swahili,2020.2.4,MacIntel,60,,,,,,,,,,0.41585829,0.508515625,1,0,0,2.33518,study_pile,10,0,10,0,1,YEAST - HAMIRA,,,,,,,,,,,,,,,,,,,,,,,,,,,,,,,,,,,,,,,,,,,,,,,,,,,,,,,,,,,,,,,,,,,,,,,,,,,,,,,,
,,,,,,,,,,1584469,2020-10-24_17h54.38.116,swahili,2020.2.4,MacIntel,60,,,,,,,,,,-0.277539062,-0.001215278,1,0,0,0.895365,unsorted_card,11,0,11,0,1,,,,,,,,,,,,,,,,,,,,,,,,,,,,,,,,,,,,,,,,,,,,,,,,,,,,,,,,,,,,,,,,,,,,,,,,,,,,,,,,,
,,,,,,,,,,1584469,2020-10-24_17h54.38.116,swahili,2020.2.4,MacIntel,60,,,,,,,,,,0.392225477,0.425026042,1,0,0,2.06413,study_pile,12,0,12,0,1,BLAME - LAWAMA,,,,,,,,,,,,,,,,,,,,,,,,,,,,,,,,,,,,,,,,,,,,,,,,,,,,,,,,,,,,,,,,,,,,,,,,,,,,,,,,
,,,,,,,,,,1584469,2020-10-24_17h54.38.116,swahili,2020.2.4,MacIntel,60,,,,,,,,,,-0.302224392,-0.089991319,1,0,0,0.703815,unsorted_card,13,0,13,0,1,,,,,,,,,,,,,,,,,,,,,,,,,,,,,,,,,,,,,,,,,,,,,,,,,,,,,,,,,,,,,,,,,,,,,,,,,,,,,,,,,
,,,,,,,,,,1584469,2020-10-24_17h54.38.116,swahili,2020.2.4,MacIntel,60,,,,,,,,,,0.493603516,0.466067708,1,0,0,1.411,study_pile,14,0,14,0,1,OATH - YAMINI,,,,,,,,,,,,,,,,,,,,,,,,,,,,,,,,,,,,,,,,,,,,,,,,,,,,,,,,,,,,,,,,,,,,,,,,,,,,,,,,
,,,,,,,,,,1584469,2020-10-24_17h54.38.116,swahili,2020.2.4,MacIntel,60,,,,,,,,,,-0.121017795,0.093671875,1,0,0,0.580625,unsorted_card,15,0,15,0,1,,,,,,,,,,,,,,,,,,,,,,,,,,,,,,,,,,,,,,,,,,,,,,,,,,,,,,,,,,,,,,,,,,,,,,,,,,,,,,,,,
,,,,,,,,,,1584469,2020-10-24_17h54.38.116,swahili,2020.2.4,MacIntel,60,,,,,,,,,,0.34147678,0.456310764,1,0,0,1.568635,study_pile,16,0,16,0,1,CORN - NAFAKA,,,,,,,,,,,,,,,,,,,,,,,,,,,,,,,,,,,,,,,,,,,,,,,,,,,,,,,,,,,,,,,,,,,,,,,,,,,,,,,,
,,,,,,,,,,1584469,2020-10-24_17h54.38.116,swahili,2020.2.4,MacIntel,60,,,,,,,,,,-0.327631293,-0.050243056,1,0,0,0.544645,unsorted_card,17,0,17,0,1,,,,,,,,,,,,,,,,,,,,,,,,,,,,,,,,,,,,,,,,,,,,,,,,,,,,,,,,,,,,,,,,,,,,,,,,,,,,,,,,,
,,,,,,,,,,1584469,2020-10-24_17h54.38.116,swahili,2020.2.4,MacIntel,60,,,,,,,,,,0.444797092,0.477612847,1,0,0,1.28367,study_pile,18,0,18,0,1,POEM - UTENZI,,,,,,,,,,,,,,,,,,,,,,,,,,,,,,,,,,,,,,,,,,,,,,,,,,,,,,,,,,,,,,,,,,,,,,,,,,,,,,,,
,,,,,,,,,,1584469,2020-10-24_17h54.38.116,swahili,2020.2.4,MacIntel,60,,,,,,,,,,-0.139344618,0.074236111,1,0,0,0.56621,unsorted_card,19,0,19,0,1,,,,,,,,,,,,,,,,,,,,,,,,,,,,,,,,,,,,,,,,,,,,,,,,,,,,,,,,,,,,,,,,,,,,,,,,,,,,,,,,,
,,,,,,,,,,1584469,2020-10-24_17h54.38.116,swahili,2020.2.4,MacIntel,60,,,,,,,,,,0.309738498,0.423428819,1,0,0,1.04643,study_pile,20,0,20,0,1,TAILOR - MSHONI,,,,,,,,,,,,,,,,,,,,,,,,,,,,,,,,,,,,,,,,,,,,,,,,,,,,,,,,,,,,,,,,,,,,,,,,,,,,,,,,
,,,,,,,,,,1584469,2020-10-24_17h54.38.116,swahili,2020.2.4,MacIntel,60,,,,,,,,,,-0.279937066,0.010564236,1,0,0,0.499165,unsorted_card,21,0,21,0,1,,,,,,,,,,,,,,,,,,,,,,,,,,,,,,,,,,,,,,,,,,,,,,,,,,,,,,,,,,,,,,,,,,,,,,,,,,,,,,,,,
,,,,,,,,,,1584469,2020-10-24_17h54.38.116,swahili,2020.2.4,MacIntel,60,,,,,,,,,,0.412462023,0.491987847,1,0,0,1.50152,study_pile,22,0,22,0,1,CHEESE - JIBINI,,,,,,,,,,,,,,,,,,,,,,,,,,,,,,,,,,,,,,,,,,,,,,,,,,,,,,,,,,,,,,,,,,,,,,,,,,,,,,,,
,,,,,,,,,,1584469,2020-10-24_17h54.38.116,swahili,2020.2.4,MacIntel,60,,,,,,,,,,-0.299305556,0.022256944,1,0,0,0.47803,unsorted_card,23,0,23,0,1,,,,,,,,,,,,,,,,,,,,,,,,,,,,,,,,,,,,,,,,,,,,,,,,,,,,,,,,,,,,,,,,,,,,,,,,,,,,,,,,,
,,,,,,,,,,1584469,2020-10-24_17h54.38.116,swahili,2020.2.4,MacIntel,60,,,,,,,,,,0.35570204,0.488350694,1,0,0,0.632025,study_pile,24,0,24,0,1,GRAPES - ZABIBU,,,,,,,,,,,,,,,,,,,,,,,,,,,,,,,,,,,,,,,,,,,,,,,,,,,,,,,,,,,,,,,,,,,,,,,,,,,,,,,,
,,,,,,,,,,1584469,2020-10-24_17h54.38.116,swahili,2020.2.4,MacIntel,60,,,,,,,,,,-0.312478299,-0.002560764,1,0,0,0.46557,unsorted_card,25,0,25,0,1,,,,,,,,,,,,,,,,,,,,,,,,,,,,,,,,,,,,,,,,,,,,,,,,,,,,,,,,,,,,,,,,,,,,,,,,,,,,,,,,,
,,,,,,,,,,1584469,2020-10-24_17h54.38.116,swahili,2020.2.4,MacIntel,60,,,,,,,,,,0.474495443,0.559652778,1,0,0,1.56428,study_pile,26,0,26,0,1,GRAVE - KABURI,,,,,,,,,,,,,,,,,,,,,,,,,,,,,,,,,,,,,,,,,,,,,,,,,,,,,,,,,,,,,,,,,,,,,,,,,,,,,,,,
,,,,,,,,,,1584469,2020-10-24_17h54.38.116,swahili,2020.2.4,MacIntel,60,,,,,,,,,,-0.210243056,0.055347222,1,0,0,0.49783,unsorted_card,27,0,27,0,1,,,,,,,,,,,,,,,,,,,,,,,,,,,,,,,,,,,,,,,,,,,,,,,,,,,,,,,,,,,,,,,,,,,,,,,,,,,,,,,,,
,,,,,,,,,,1584469,2020-10-24_17h54.38.116,swahili,2020.2.4,MacIntel,60,,,,,,,,,,0.506065538,0.538559028,1,0,0,1.265485,study_pile,28,0,28,0,1,MANURE - SAMADI,,,,,,,,,,,,,,,,,,,,,,,,,,,,,,,,,,,,,,,,,,,,,,,,,,,,,,,,,,,,,,,,,,,,,,,,,,,,,,,,
,,,,,,,,,,1584469,2020-10-24_17h54.38.116,swahili,2020.2.4,MacIntel,60,,,,,,,,,,-0.329085286,0.024453125,1,0,0,0.62795,unsorted_card,29,0,29,0,1,,,,,,,,,,,,,,,,,,,,,,,,,,,,,,,,,,,,,,,,,,,,,,,,,,,,,,,,,,,,,,,,,,,,,,,,,,,,,,,,,
,,,,,,,,,,1584469,2020-10-24_17h54.38.116,swahili,2020.2.4,MacIntel,60,,,,,,,,,,0.423486328,0.407387153,1,0,0,0.902505,study_pile,30,0,30,0,1,AGENT - WAKILI,,,,,,,,,,,,,,,,,,,,,,,,,,,,,,,,,,,,,,,,,,,,,,,,,,,,,,,,,,,,,,,,,,,,,,,,,,,,,,,,
,,,,,,,,,,1584469,2020-10-24_17h54.38.116,swahili,2020.2.4,MacIntel,60,,,,,,,,,,-0.118961589,0.057144097,1,0,0,0.565835,unsorted_card,31,0,31,0,1,,,,,,,,,,,,,,,,,,,,,,,,,,,,,,,,,,,,,,,,,,,,,,,,,,,,,,,,,,,,,,,,,,,,,,,,,,,,,,,,,
,,,,,,,,,,1584469,2020-10-24_17h54.38.116,swahili,2020.2.4,MacIntel,60,,,,,,,,,,0.419487847,0.449548611,1,0,0,1.148635,study_pile,32,0,32,0,1,BRIBE - RUSHWA,,,,,,,,,,,,,,,,,,,,,,,,,,,,,,,,,,,,,,,,,,,,,,,,,,,,,,,,,,,,,,,,,,,,,,,,,,,,,,,,
,,,,,,,,,,1584469,2020-10-24_17h54.38.116,swahili,2020.2.4,MacIntel,60,,,,,,,,,,-0.231315104,0.074305556,1,0,0,0.461195,unsorted_card,33,0,33,0,1,,,,,,,,,,,,,,,,,,,,,,,,,,,,,,,,,,,,,,,,,,,,,,,,,,,,,,,,,,,,,,,,,,,,,,,,,,,,,,,,,
,,,,,,,,,,1584469,2020-10-24_17h54.38.116,swahili,2020.2.4,MacIntel,60,,,,,,,,,,0.395345052,0.455642361,1,0,0,0.969775,study_pile,34,0,34,0,1,ORPHAN - YATIMA,,,,,,,,,,,,,,,,,,,,,,,,,,,,,,,,,,,,,,,,,,,,,,,,,,,,,,,,,,,,,,,,,,,,,,,,,,,,,,,,
,,,,,,,,,,1584469,2020-10-24_17h54.38.116,swahili,2020.2.4,MacIntel,60,,,,,,,,,,-0.290652127,0.025807292,1,0,0,0.510945,unsorted_card,35,0,35,0,1,,,,,,,,,,,,,,,,,,,,,,,,,,,,,,,,,,,,,,,,,,,,,,,,,,,,,,,,,,,,,,,,,,,,,,,,,,,,,,,,,
,,,,,,,,,,1584469,2020-10-24_17h54.38.116,swahili,2020.2.4,MacIntel,60,,,,,,,,,,0.36780599,0.465164931,1,0,0,0.98437,study_pile,36,0,36,0,1,DIVORCE - TALAKA,,,,,,,,,,,,,,,,,,,,,,,,,,,,,,,,,,,,,,,,,,,,,,,,,,,,,,,,,,,,,,,,,,,,,,,,,,,,,,,,
,,,,,,,,,,1584469,2020-10-24_17h54.38.116,swahili,2020.2.4,MacIntel,60,,,,,,,,,,-0.274669054,-0.017074653,1,0,0,0.59645,unsorted_card,37,0,37,0,1,,,,,,,,,,,,,,,,,,,,,,,,,,,,,,,,,,,,,,,,,,,,,,,,,,,,,,,,,,,,,,,,,,,,,,,,,,,,,,,,,
,,,,,,,,,,1584469,2020-10-24_17h54.38.116,swahili,2020.2.4,MacIntel,60,,,,,,,,,,0.364322917,0.397960069,1,0,0,1.13642,study_pile,38,0,38,0,1,BOAT - MASHUA,,,,,,,,,,,,,,,,,,,,,,,,,,,,,,,,,,,,,,,,,,,,,,,,,,,,,,,,,,,,,,,,,,,,,,,,,,,,,,,,
,,,,,,,,,,1584469,2020-10-24_17h54.38.116,swahili,2020.2.4,MacIntel,60,,,,,,,,,,-0.083110894,0.094123264,1,0,0,0.579605,unsorted_card,39,0,39,0,1,,,,,,,,,,,,,,,,,,,,,,,,,,,,,,,,,,,,,,,,,,,,,,,,,,,,,,,,,,,,,,,,,,,,,,,,,,,,,,,,,
,,,,,,,,,,1584469,2020-10-24_17h54.38.116,swahili,2020.2.4,MacIntel,60,,,,,,,,,,0.487597656,0.515998264,1,0,0,0.817675,study_pile,40,0,40,0,1,TREASURE - DAFINA,,,,,,,,,,,,,,,,,,,,,,,,,,,,,,,,,,,,,,,,,,,,,,,,,,,,,,,,,,,,,,,,,,,,,,,,,,,,,,,,
,,,,,,,,,,1584469,2020-10-24_17h54.38.116,swahili,2020.2.4,MacIntel,60,,,,,,,,,,,,,,,,,,,,,,ORPHAN - YATIMA,,,,,,,,return,5.757845,return,3.98449,0,0,0,0,1,,,,,,,,,,,,,,,,,,,,,,,,,,,,,,,,,,,,,,,,,,,,,,,,,,,,,,,,,,,,,,,,
,,,,,,,,,,1584469,2020-10-24_17h54.38.116,swahili,2020.2.4,MacIntel,60,,,,,,,,,,,,,,,,,,,,,,GRAPES - ZABIBU,,,,,,,,,,return,3.350545,1,0,1,0,1,,,,,,,,,,,,,,,,,,,,,,,,,,,,,,,,,,,,,,,,,,,,,,,,,,,,,,,,,,,,,,,,
,,,,,,,,,,1584469,2020-10-24_17h54.38.116,swahili,2020.2.4,MacIntel,60,,,,,,,,,,,,,,,,,,,,,,MERCHANT - TAJIRI,,,,,,,,,,return,3.27697,2,0,2,0,1,,,,,,,,,,,,,,,,,,,,,,,,,,,,,,,,,,,,,,,,,,,,,,,,,,,,,,,,,,,,,,,,
,,,,,,,,,,1584469,2020-10-24_17h54.38.116,swahili,2020.2.4,MacIntel,60,,,,,,,,,,,,,,,,,,,,,,CHEESE - JIBINI,,,,,,,,,,return,3.379305,3,0,3,0,1,,,,,,,,,,,,,,,,,,,,,,,,,,,,,,,,,,,,,,,,,,,,,,,,,,,,,,,,,,,,,,,,
,,,,,,,,,,1584469,2020-10-24_17h54.38.116,swahili,2020.2.4,MacIntel,60,,,,,,,,,,,,,,,,,,,,,,DIVORCE - TALAKA,,,,,,,,,,return,2.41935,4,0,4,0,1,,,,,,,,,,,,,,,,,,,,,,,,,,,,,,,,,,,,,,,,,,,,,,,,,,,,,,,,,,,,,,,,
,,,,,,,,,,1584469,2020-10-24_17h54.38.116,swahili,2020.2.4,MacIntel,60,,,,,,,,,,,,,,,,,,,,,,POEM - UTENZI,,,,,,,,,,return,2.51953,5,0,5,0,1,,,,,,,,,,,,,,,,,,,,,,,,,,,,,,,,,,,,,,,,,,,,,,,,,,,,,,,,,,,,,,,,
,,,,,,,,,,1584469,2020-10-24_17h54.38.116,swahili,2020.2.4,MacIntel,60,,,,,,,,,,,,,,,,,,,,,,AGENT - WAKILI,,,,,,,,,,return,2.39862,6,0,6,0,1,,,,,,,,,,,,,,,,,,,,,,,,,,,,,,,,,,,,,,,,,,,,,,,,,,,,,,,,,,,,,,,,
,,,,,,,,,,1584469,2020-10-24_17h54.38.116,swahili,2020.2.4,MacIntel,60,,,,,,,,,,,,,,,,,,,,,,BLAME - LAWAMA,,,,,,,,,,return,2.26638,7,0,7,0,1,,,,,,,,,,,,,,,,,,,,,,,,,,,,,,,,,,,,,,,,,,,,,,,,,,,,,,,,,,,,,,,,
,,,,,,,,,,1584469,2020-10-24_17h54.38.116,swahili,2020.2.4,MacIntel,60,,,,,,,,,,,,,,,,,,,,,,BOAT - MASHUA,,,,,,,,,,return,1.97158,8,0,8,0,1,,,,,,,,,,,,,,,,,,,,,,,,,,,,,,,,,,,,,,,,,,,,,,,,,,,,,,,,,,,,,,,,
,,,,,,,,,,1584469,2020-10-24_17h54.38.116,swahili,2020.2.4,MacIntel,60,,,,,,,,,,,,,,,,,,,,,,TREASURE - DAFINA,,,,,,,,,,return,1.982355,9,0,9,0,1,,,,,,,,,,,,,,,,,,,,,,,,,,,,,,,,,,,,,,,,,,,,,,,,,,,,,,,,,,,,,,,,
,,,,,,,,,,1584469,2020-10-24_17h54.38.116,swahili,2020.2.4,MacIntel,60,,,,,,,,,,,,,,,,,,,,,,PLATE - SAHANI,,,,,,,,,,return,3.16847,10,0,10,0,1,,,,,,,,,,,,,,,,,,,,,,,,,,,,,,,,,,,,,,,,,,,,,,,,,,,,,,,,,,,,,,,,
,,,,,,,,,,1584469,2020-10-24_17h54.38.116,swahili,2020.2.4,MacIntel,60,,,,,,,,,,,,,,,,,,,,,,OATH - YAMINI,,,,,,,,,,return,2.01,11,0,11,0,1,,,,,,,,,,,,,,,,,,,,,,,,,,,,,,,,,,,,,,,,,,,,,,,,,,,,,,,,,,,,,,,,
,,,,,,,,,,1584469,2020-10-24_17h54.38.116,swahili,2020.2.4,MacIntel,60,,,,,,,,,,,,,,,,,,,,,,MANURE - SAMADI,,,,,,,,,,return,25.19624,12,0,12,0,1,,,,,,,,,,,,,,,,,,,,,,,,,,,,,,,,,,,,,,,,,,,,,,,,,,,,,,,,,,,,,,,,
,,,,,,,,,,1584469,2020-10-24_17h54.38.116,swahili,2020.2.4,MacIntel,60,,,,,,,,,,,,,,,,,,,,,,TAILOR - MSHONI,,,,,,,,,,return,1.67992,13,0,13,0,1,,,,,,,,,,,,,,,,,,,,,,,,,,,,,,,,,,,,,,,,,,,,,,,,,,,,,,,,,,,,,,,,
,,,,,,,,,,1584469,2020-10-24_17h54.38.116,swahili,2020.2.4,MacIntel,60,,,,,,,,,,,,,,,,,,,,,,YEAST - HAMIRA,,,,,,,,,,return,1.17492,14,0,14,0,1,,,,,,,,,,,,,,,,,,,,,,,,,,,,,,,,,,,,,,,,,,,,,,,,,,,,,,,,,,,,,,,,
,,,,,,,,,,1584469,2020-10-24_17h54.38.116,swahili,2020.2.4,MacIntel,60,,,,,,,,,,,,,,,,,,,,,,CORN - NAFAKA,,,,,,,,,,return,1.641355,15,0,15,0,1,,,,,,,,,,,,,,,,,,,,,,,,,,,,,,,,,,,,,,,,,,,,,,,,,,,,,,,,,,,,,,,,
,,,,,,,,,,1584469,2020-10-24_17h54.38.116,swahili,2020.2.4,MacIntel,60,,,,,,,,,,,,,,,,,,,,,,GRAVE - KABURI,,,,,,,,,,return,3.565845,16,0,16,0,1,,,,,,,,,,,,,,,,,,,,,,,,,,,,,,,,,,,,,,,,,,,,,,,,,,,,,,,,,,,,,,,,
,,,,,,,,,,1584469,2020-10-24_17h54.38.116,swahili,2020.2.4,MacIntel,60,,,,,,,,,,,,,,,,,,,,,,BRIBE - RUSHWA,,,,,,,,,,return,7.762775,17,0,17,0,1,,,,,,,,,,,,,,,,,,,,,,,,,,,,,,,,,,,,,,,,,,,,,,,,,,,,,,,,,,,,,,,,
,,,,,,,,,,1584469,2020-10-24_17h54.38.116,swahili,2020.2.4,MacIntel,60,,,,,,,,,,,,,,,,,,,,,,PARROT - KASUKU,,,,,,,,,,return,13.035845,18,0,18,0,1,,,,,,,,,,,,,,,,,,,,,,,,,,,,,,,,,,,,,,,,,,,,,,,,,,,,,,,,,,,,,,,,
,,,,,,,,,,1584469,2020-10-24_17h54.38.116,swahili,2020.2.4,MacIntel,60,,,,,,,,,,,,,,,,,,,,,,BULL - FAHILI,,,,,,,,,,return,3.368195,19,0,19,0,1,,,,,,,,,,,,,,,,,,,,,,,,,,,,,,,,,,,,,,,,,,,,,,,,,,,,,,,,,,,,,,,,
,,,,,,,,,,1584469,2020-10-24_17h54.38.116,swahili,2020.2.4,MacIntel,60,,,,,,,,,,,,,,,,,,,,,,,,,,,,,,,,,,,,,,,,0,0,0,0,1,,,,,,,,,,,,,,,,,,,,,,,,,,,,,,,,,,,,,,,,,,,,,,,,,,,,,,,,,,
,,,,,,,,,,1584469,2020-10-24_17h54.38.116,swahili,2020.2.4,MacIntel,60,,,,,,,,,,,,,,,,,,,,,,,,,,,,,,,,,,,,,,,,1,0,1,0,1,,,,,,,,,,,,,,,,,,,,,,,,,,,,,,,,,,,,,,,,,,,,,,,,,,,,,,,,,,
,,,,,,,,,,1584469,2020-10-24_17h54.38.116,swahili,2020.2.4,MacIntel,60,,,,,,,,,,,,,,,,,,,,,,,,,,,,,,,,,,,,,,,,,,,,,0,0,0,0,1,,,,,,,,,,,,,,,,,,,,,,,,,,,,,,,,,,,,,,,,,,,,,,,,,,,,,
,,,,,,,,,,1584469,2020-10-24_17h54.38.116,swahili,2020.2.4,MacIntel,60,,,,,,,,,,-0.178803168,-0.060642361,1,0,0,2.76284,unsorted_card,0,0,0,0,1,,,,,,,,,,,,,,,,,,,,,,,,,,,,,,,,,,,,,,,,,,,,,,,,,,,,,,,,,,,,,,,,,,,,,,,,,,,,,,,,,
,,,,,,,,,,1584469,2020-10-24_17h54.38.116,swahili,2020.2.4,MacIntel,60,,,,,,,,,,0.48000217,0.506814236,1,0,0,5.59902,study_pile,1,0,1,0,1,MERCHANT - TAJIRI,,,,,,,,,,,,,,,,,,,,,,,,,,,,,,,,,,,,,,,,,,,,,,,,,,,,,,,,,,,,,,,,,,,,,,,,,,,,,,,,
,,,,,,,,,,1584469,2020-10-24_17h54.38.116,swahili,2020.2.4,MacIntel,60,,,,,,,,,,-0.333284505,-0.015503472,1,0,0,0.765725,unsorted_card,2,0,2,0,1,,,,,,,,,,,,,,,,,,,,,,,,,,,,,,,,,,,,,,,,,,,,,,,,,,,,,,,,,,,,,,,,,,,,,,,,,,,,,,,,,
,,,,,,,,,,1584469,2020-10-24_17h54.38.116,swahili,2020.2.4,MacIntel,60,,,,,,,,,,0.394021267,0.438585069,1,0,0,1.383635,study_pile,3,0,3,0,1,PARROT - KASUKU,,,,,,,,,,,,,,,,,,,,,,,,,,,,,,,,,,,,,,,,,,,,,,,,,,,,,,,,,,,,,,,,,,,,,,,,,,,,,,,,
,,,,,,,,,,1584469,2020-10-24_17h54.38.116,swahili,2020.2.4,MacIntel,60,,,,,,,,,,-0.334331597,-0.021796875,1,0,0,0.52729,unsorted_card,4,0,4,0,1,,,,,,,,,,,,,,,,,,,,,,,,,,,,,,,,,,,,,,,,,,,,,,,,,,,,,,,,,,,,,,,,,,,,,,,,,,,,,,,,,
,,,,,,,,,,1584469,2020-10-24_17h54.38.116,swahili,2020.2.4,MacIntel,60,,,,,,,,,,0.399951172,0.472855903,1,0,0,1.082625,study_pile,5,0,5,0,1,BULL - FAHILI,,,,,,,,,,,,,,,,,,,,,,,,,,,,,,,,,,,,,,,,,,,,,,,,,,,,,,,,,,,,,,,,,,,,,,,,,,,,,,,,
,,,,,,,,,,1584469,2020-10-24_17h54.38.116,swahili,2020.2.4,MacIntel,60,,,,,,,,,,-0.308159722,-0.008220486,1,0,0,0.48248,unsorted_card,6,0,6,0,1,,,,,,,,,,,,,,,,,,,,,,,,,,,,,,,,,,,,,,,,,,,,,,,,,,,,,,,,,,,,,,,,,,,,,,,,,,,,,,,,,
,,,,,,,,,,1584469,2020-10-24_17h54.38.116,swahili,2020.2.4,MacIntel,60,,,,,,,,,,0.413525391,0.540512153,1,0,0,1.135405,study_pile,7,0,7,0,1,PLATE - SAHANI,,,,,,,,,,,,,,,,,,,,,,,,,,,,,,,,,,,,,,,,,,,,,,,,,,,,,,,,,,,,,,,,,,,,,,,,,,,,,,,,
,,,,,,,,,,1584469,2020-10-24_17h54.38.116,swahili,2020.2.4,MacIntel,60,,,,,,,,,,-0.409798177,0.007482639,1,0,0,0.550525,unsorted_card,8,0,8,0,1,,,,,,,,,,,,,,,,,,,,,,,,,,,,,,,,,,,,,,,,,,,,,,,,,,,,,,,,,,,,,,,,,,,,,,,,,,,,,,,,,
,,,,,,,,,,1584469,2020-10-24_17h54.38.116,swahili,2020.2.4,MacIntel,60,,,,,,,,,,0.432850477,0.48875,1,0,0,1.27589,study_pile,9,0,9,0,1,YEAST - HAMIRA,,,,,,,,,,,,,,,,,,,,,,,,,,,,,,,,,,,,,,,,,,,,,,,,,,,,,,,,,,,,,,,,,,,,,,,,,,,,,,,,
,,,,,,,,,,1584469,2020-10-24_17h54.38.116,swahili,2020.2.4,MacIntel,60,,,,,,,,,,-0.27102322,0.028359375,1,0,0,0.480395,unsorted_card,10,0,10,0,1,,,,,,,,,,,,,,,,,,,,,,,,,,,,,,,,,,,,,,,,,,,,,,,,,,,,,,,,,,,,,,,,,,,,,,,,,,,,,,,,,
,,,,,,,,,,1584469,2020-10-24_17h54.38.116,swahili,2020.2.4,MacIntel,60,,,,,,,,,,0.380278863,0.468489583,1,0,0,3.5196,study_pile,11,0,11,0,1,BLAME - LAWAMA,,,,,,,,,,,,,,,,,,,,,,,,,,,,,,,,,,,,,,,,,,,,,,,,,,,,,,,,,,,,,,,,,,,,,,,,,,,,,,,,
,,,,,,,,,,1584469,2020-10-24_17h54.38.116,swahili,2020.2.4,MacIntel,60,,,,,,,,,,-0.299386936,0.091822917,1,0,0,0.427825,unsorted_card,12,0,12,0,1,,,,,,,,,,,,,,,,,,,,,,,,,,,,,,,,,,,,,,,,,,,,,,,,,,,,,,,,,,,,,,,,,,,,,,,,,,,,,,,,,
,,,,,,,,,,1584469,2020-10-24_17h54.38.116,swahili,2020.2.4,MacIntel,60,,,,,,,,,,0.488042535,0.445980903,1,0,0,1.418045,study_pile,13,0,13,0,1,OATH - YAMINI,,,,,,,,,,,,,,,,,,,,,,,,,,,,,,,,,,,,,,,,,,,,,,,,,,,,,,,,,,,,,,,,,,,,,,,,,,,,,,,,
,,,,,,,,,,1584469,2020-10-24_17h54.38.116,swahili,2020.2.4,MacIntel,60,,,,,,,,,,-0.406315104,-0.116571181,1,0,0,0.512485,unsorted_card,14,0,14,0,1,,,,,,,,,,,,,,,,,,,,,,,,,,,,,,,,,,,,,,,,,,,,,,,,,,,,,,,,,,,,,,,,,,,,,,,,,,,,,,,,,
,,,,,,,,,,1584469,2020-10-24_17h54.38.116,swahili,2020.2.4,MacIntel,60,,,,,,,,,,0.462505425,0.069331597,1,0,0,0.832215,test_pile,15,0,15,0,1,CORN - NAFAKA,,,,,,,,,,,,,,,,,,,,,,,,,,,,,,,,,,,,,,,,,,,,,,,,,,,,,,,,,,,,,,,,,,,,,,,,,,,,,,,,
,,,,,,,,,,1584469,2020-10-24_17h54.38.116,swahili,2020.2.4,MacIntel,60,,,,,,,,,,-0.166829427,0.058637153,1,0,0,0.53187,unsorted_card,16,0,16,0,1,,,,,,,,,,,,,,,,,,,,,,,,,,,,,,,,,,,,,,,,,,,,,,,,,,,,,,,,,,,,,,,,,,,,,,,,,,,,,,,,,
,,,,,,,,,,1584469,2020-10-24_17h54.38.116,swahili,2020.2.4,MacIntel,60,,,,,,,,,,0.502088759,-0.015989583,1,0,0,1.08493,test_pile,17,0,17,0,1,POEM - UTENZI,,,,,,,,,,,,,,,,,,,,,,,,,,,,,,,,,,,,,,,,,,,,,,,,,,,,,,,,,,,,,,,,,,,,,,,,,,,,,,,,
,,,,,,,,,,1584469,2020-10-24_17h54.38.116,swahili,2020.2.4,MacIntel,60,,,,,,,,,,-0.298925781,0.023185764,1,0,0,0.545105,unsorted_card,18,0,18,0,1,,,,,,,,,,,,,,,,,,,,,,,,,,,,,,,,,,,,,,,,,,,,,,,,,,,,,,,,,,,,,,,,,,,,,,,,,,,,,,,,,
,,,,,,,,,,1584469,2020-10-24_17h54.38.116,swahili,2020.2.4,MacIntel,60,,,,,,,,,,0.345350477,0.066944444,1,0,0,1.931575,test_pile,19,0,19,0,1,TAILOR - MSHONI,,,,,,,,,,,,,,,,,,,,,,,,,,,,,,,,,,,,,,,,,,,,,,,,,,,,,,,,,,,,,,,,,,,,,,,,,,,,,,,,
,,,,,,,,,,1584469,2020-10-24_17h54.38.116,swahili,2020.2.4,MacIntel,60,,,,,,,,,,-0.257373047,0.065164931,1,0,0,0.41347,unsorted_card,20,0,20,0,1,,,,,,,,,,,,,,,,,,,,,,,,,,,,,,,,,,,,,,,,,,,,,,,,,,,,,,,,,,,,,,,,,,,,,,,,,,,,,,,,,
,,,,,,,,,,1584469,2020-10-24_17h54.38.116,swahili,2020.2.4,MacIntel,60,,,,,,,,,,0.396652561,0.095729167,1,0,0,1.218585,test_pile,21,0,21,0,1,CHEESE - JIBINI,,,,,,,,,,,,,,,,,,,,,,,,,,,,,,,,,,,,,,,,,,,,,,,,,,,,,,,,,,,,,,,,,,,,,,,,,,,,,,,,
,,,,,,,,,,1584469,2020-10-24_17h54.38.116,swahili,2020.2.4,MacIntel,60,,,,,,,,,,-0.196397569,0.131883681,1,0,0,0.429715,unsorted_card,22,0,22,0,1,,,,,,,,,,,,,,,,,,,,,,,,,,,,,,,,,,,,,,,,,,,,,,,,,,,,,,,,,,,,,,,,,,,,,,,,,,,,,,,,,
,,,,,,,,,,1584469,2020-10-24_17h54.38.116,swahili,2020.2.4,MacIntel,60,,,,,,,,,,0.336593967,0.022517361,1,0,0,1.28068,test_pile,23,0,23,0,1,GRAPES - ZABIBU,,,,,,,,,,,,,,,,,,,,,,,,,,,,,,,,,,,,,,,,,,,,,,,,,,,,,,,,,,,,,,,,,,,,,,,,,,,,,,,,
,,,,,,,,,,1584469,2020-10-24_17h54.38.116,swahili,2020.2.4,MacIntel,60,,,,,,,,,,-0.296679688,-0.0234375,1,0,0,0.434955,unsorted_card,24,0,24,0,1,,,,,,,,,,,,,,,,,,,,,,,,,,,,,,,,,,,,,,,,,,,,,,,,,,,,,,,,,,,,,,,,,,,,,,,,,,,,,,,,,
,,,,,,,,,,1584469,2020-10-24_17h54.38.116,swahili,2020.2.4,MacIntel,60,,,,,,,,,,0.458257378,0.462421875,1,0,0,1.296525,study_pile,25,0,25,0,1,GRAVE - KABURI,,,,,,,,,,,,,,,,,,,,,,,,,,,,,,,,,,,,,,,,,,,,,,,,,,,,,,,,,,,,,,,,,,,,,,,,,,,,,,,,
,,,,,,,,,,1584469,2020-10-24_17h54.38.116,swahili,2020.2.4,MacIntel,60,,,,,,,,,,-0.332725694,-0.039539931,1,0,0,0.41946,unsorted_card,26,0,26,0,1,,,,,,,,,,,,,,,,,,,,,,,,,,,,,,,,,,,,,,,,,,,,,,,,,,,,,,,,,,,,,,,,,,,,,,,,,,,,,,,,,
,,,,,,,,,,1584469,2020-10-24_17h54.38.116,swahili,2020.2.4,MacIntel,60,,,,,,,,,,0.538406033,0.451076389,1,0,0,0.9276,study_pile,27,0,27,0,1,MANURE - SAMADI,,,,,,,,,,,,,,,,,,,,,,,,,,,,,,,,,,,,,,,,,,,,,,,,,,,,,,,,,,,,,,,,,,,,,,,,,,,,,,,,
,,,,,,,,,,1584469,2020-10-24_17h54.38.116,swahili,2020.2.4,MacIntel,60,,,,,,,,,,-0.34930013,-0.036111111,1,0,0,0.448605,unsorted_card,28,0,28,0,1,,,,,,,,,,,,,,,,,,,,,,,,,,,,,,,,,,,,,,,,,,,,,,,,,,,,,,,,,,,,,,,,,,,,,,,,,,,,,,,,,
,,,,,,,,,,1584469,2020-10-24_17h54.38.116,swahili,2020.2.4,MacIntel,60,,,,,,,,,,0.547770182,0.096397569,1,0,0,1.03125,test_pile,29,0,29,0,1,AGENT - WAKILI,,,,,,,,,,,,,,,,,,,,,,,,,,,,,,,,,,,,,,,,,,,,,,,,,,,,,,,,,,,,,,,,,,,,,,,,,,,,,,,,
,,,,,,,,,,1584469,2020-10-24_17h54.38.116,swahili,2020.2.4,MacIntel,60,,,,,,,,,,-0.303434245,-0.019973958,1,0,0,0.518405,unsorted_card,30,0,30,0,1,,,,,,,,,,,,,,,,,,,,,,,,,,,,,,,,,,,,,,,,,,,,,,,,,,,,,,,,,,,,,,,,,,,,,,,,,,,,,,,,,
,,,,,,,,,,1584469,2020-10-24_17h54.38.116,swahili,2020.2.4,MacIntel,60,,,,,,,,,,0.467561849,0.043559028,1,0,0,1.39486,test_pile,31,0,31,0,1,BRIBE - RUSHWA,,,,,,,,,,,,,,,,,,,,,,,,,,,,,,,,,,,,,,,,,,,,,,,,,,,,,,,,,,,,,,,,,,,,,,,,,,,,,,,,
,,,,,,,,,,1584469,2020-10-24_17h54.38.116,swahili,2020.2.4,MacIntel,60,,,,,,,,,,-0.282481554,0.031710069,1,0,0,0.516005,unsorted_card,32,0,32,0,1,,,,,,,,,,,,,,,,,,,,,,,,,,,,,,,,,,,,,,,,,,,,,,,,,,,,,,,,,,,,,,,,,,,,,,,,,,,,,,,,,
,,,,,,,,,,1584469,2020-10-24_17h54.38.116,swahili,2020.2.4,MacIntel,60,,,,,,,,,,0.462234158,0.027196181,1,0,0,1.252235,test_pile,33,0,33,0,1,ORPHAN - YATIMA,,,,,,,,,,,,,,,,,,,,,,,,,,,,,,,,,,,,,,,,,,,,,,,,,,,,,,,,,,,,,,,,,,,,,,,,,,,,,,,,
,,,,,,,,,,1584469,2020-10-24_17h54.38.116,swahili,2020.2.4,MacIntel,60,,,,,,,,,,-0.194618056,0.079930556,1,0,0,0.376565,unsorted_card,34,0,34,0,1,,,,,,,,,,,,,,,,,,,,,,,,,,,,,,,,,,,,,,,,,,,,,,,,,,,,,,,,,,,,,,,,,,,,,,,,,,,,,,,,,
,,,,,,,,,,1584469,2020-10-24_17h54.38.116,swahili,2020.2.4,MacIntel,60,,,,,,,,,,0.436626519,0.511657986,1,0,0,0.83708,study_pile,35,0,35,0,1,DIVORCE - TALAKA,,,,,,,,,,,,,,,,,,,,,,,,,,,,,,,,,,,,,,,,,,,,,,,,,,,,,,,,,,,,,,,,,,,,,,,,,,,,,,,,
,,,,,,,,,,1584469,2020-10-24_17h54.38.116,swahili,2020.2.4,MacIntel,60,,,,,,,,,,-0.193218316,0.034262153,1,0,0,0.45914,unsorted_card,36,0,36,0,1,,,,,,,,,,,,,,,,,,,,,,,,,,,,,,,,,,,,,,,,,,,,,,,,,,,,,,,,,,,,,,,,,,,,,,,,,,,,,,,,,
,,,,,,,,,,1584469,2020-10-24_17h54.38.116,swahili,2020.2.4,MacIntel,60,,,,,,,,,,0.478575304,-0.006536458,1,0,0,1.61697,test_pile,37,0,37,0,1,BOAT - MASHUA,,,,,,,,,,,,,,,,,,,,,,,,,,,,,,,,,,,,,,,,,,,,,,,,,,,,,,,,,,,,,,,,,,,,,,,,,,,,,,,,
,,,,,,,,,,1584469,2020-10-24_17h54.38.116,swahili,2020.2.4,MacIntel,60,,,,,,,,,,-0.212098524,-0.006536458,1,0,0,0.44622,unsorted_card,38,0,38,0,1,,,,,,,,,,,,,,,,,,,,,,,,,,,,,,,,,,,,,,,,,,,,,,,,,,,,,,,,,,,,,,,,,,,,,,,,,,,,,,,,,
,,,,,,,,,,1584469,2020-10-24_17h54.38.116,swahili,2020.2.4,MacIntel,60,,,,,,,,,,0.49702691,0.498489583,1,0,0,0.89996,study_pile,39,0,39,0,1,TREASURE - DAFINA,,,,,,,,,,,,,,,,,,,,,,,,,,,,,,,,,,,,,,,,,,,,,,,,,,,,,,,,,,,,,,,,,,,,,,,,,,,,,,,,
,,,,,,,,,,1584469,2020-10-24_17h54.38.116,swahili,2020.2.4,MacIntel,60,,,,,,,,,,,,,,,,,,,,,,YEAST - HAMIRA,-0.443256293,-0.073758681,1,0,0,1.21533,study_first,return,1.327875,return,1.10856,0,0,0,0,1,,,,,,,,,,,,,,,,,,,,,,,,,,,,,,,,,,,,,,,,,,,,,,,,,,,,,,,,,,,,,,,,
,,,,,,,,,,1584469,2020-10-24_17h54.38.116,swahili,2020.2.4,MacIntel,60,,,,,,,,,,,,,,,,,,,,,,GRAVE - KABURI,,,,,,,,,,return,2.117375,1,0,1,0,1,,,,,,,,,,,,,,,,,,,,,,,,,,,,,,,,,,,,,,,,,,,,,,,,,,,,,,,,,,,,,,,,
,,,,,,,,,,1584469,2020-10-24_17h54.38.116,swahili,2020.2.4,MacIntel,60,,,,,,,,,,,,,,,,,,,,,,TREASURE - DAFINA,,,,,,,,,,return,1.19415,2,0,2,0,1,,,,,,,,,,,,,,,,,,,,,,,,,,,,,,,,,,,,,,,,,,,,,,,,,,,,,,,,,,,,,,,,
,,,,,,,,,,1584469,2020-10-24_17h54.38.116,swahili,2020.2.4,MacIntel,60,,,,,,,,,,,,,,,,,,,,,,PARROT - KASUKU,,,,,,,,,,return,1.224915,3,0,3,0,1,,,,,,,,,,,,,,,,,,,,,,,,,,,,,,,,,,,,,,,,,,,,,,,,,,,,,,,,,,,,,,,,
,,,,,,,,,,1584469,2020-10-24_17h54.38.116,swahili,2020.2.4,MacIntel,60,,,,,,,,,,,,,,,,,,,,,,OATH - YAMINI,,,,,,,,,,return,1.376225,4,0,4,0,1,,,,,,,,,,,,,,,,,,,,,,,,,,,,,,,,,,,,,,,,,,,,,,,,,,,,,,,,,,,,,,,,
,,,,,,,,,,1584469,2020-10-24_17h54.38.116,swahili,2020.2.4,MacIntel,60,,,,,,,,,,,,,,,,,,,,,,BLAME - LAWAMA,,,,,,,,,,return,1.33053,5,0,5,0,1,,,,,,,,,,,,,,,,,,,,,,,,,,,,,,,,,,,,,,,,,,,,,,,,,,,,,,,,,,,,,,,,
,,,,,,,,,,1584469,2020-10-24_17h54.38.116,swahili,2020.2.4,MacIntel,60,,,,,,,,,,,,,,,,,,,,,,BULL - FAHILI,,,,,,,,,,return,1.230915,6,0,6,0,1,,,,,,,,,,,,,,,,,,,,,,,,,,,,,,,,,,,,,,,,,,,,,,,,,,,,,,,,,,,,,,,,
,,,,,,,,,,1584469,2020-10-24_17h54.38.116,swahili,2020.2.4,MacIntel,60,,,,,,,,,,,,,,,,,,,,,,PLATE - SAHANI,,,,,,,,,,return,1.18564,7,0,7,0,1,,,,,,,,,,,,,,,,,,,,,,,,,,,,,,,,,,,,,,,,,,,,,,,,,,,,,,,,,,,,,,,,
,,,,,,,,,,1584469,2020-10-24_17h54.38.116,swahili,2020.2.4,MacIntel,60,,,,,,,,,,,,,,,,,,,,,,MERCHANT - TAJIRI,,,,,,,,,,return,1.22802,8,0,8,0,1,,,,,,,,,,,,,,,,,,,,,,,,,,,,,,,,,,,,,,,,,,,,,,,,,,,,,,,,,,,,,,,,
,,,,,,,,,,1584469,2020-10-24_17h54.38.116,swahili,2020.2.4,MacIntel,60,,,,,,,,,,,,,,,,,,,,,,DIVORCE - TALAKA,,,,,,,,,,return,1.45019,9,0,9,0,1,,,,,,,,,,,,,,,,,,,,,,,,,,,,,,,,,,,,,,,,,,,,,,,,,,,,,,,,,,,,,,,,
,,,,,,,,,,1584469,2020-10-24_17h54.38.116,swahili,2020.2.4,MacIntel,60,,,,,,,,,,,,,,,,,,,,,,MANURE - SAMADI,,,,,,,,,,return,1.16889,10,0,10,0,1,,,,,,,,,,,,,,,,,,,,,,,,,,,,,,,,,,,,,,,,,,,,,,,,,,,,,,,,,,,,,,,,
,,,,,,,,,,1584469,2020-10-24_17h54.38.116,swahili,2020.2.4,MacIntel,60,,,,,,,,,,,,,,,,,,,,,,,,,,,,,,,,,,,,,,,,0,0,0,0,1,,,,,,,,,,,,,,,,,,,,,,,,,,,,,,,,,,,,,,,,,,,,,,,,,,,,,,,,,,
,,,,,,,,,,1584469,2020-10-24_17h54.38.116,swahili,2020.2.4,MacIntel,60,,,,,,,,,,,,,,,,,,,,,,,,,,,,,,,,,,0,0,0,0,1,,,,,,,,,,,,,,,,,,,,,,,,,,,,,,,,,,,,,,,,,,,,,,,,,,,,,,,,,,,,,,,,
,,,,,,,,,,1584469,2020-10-24_17h54.38.116,swahili,2020.2.4,MacIntel,60,,,,,,,,,,,,,,,,,,,,,,,,,,,,,,,,,,,,,,,return,,,,,,,,,,,1.242205,13.915355,0.399338108,0.146840278,1,0,0,1.44723,yes,AGENT,MAOHA,incorrect,0,0,0,0,1,,,,,,,,,,,,,,,,,,,,,,,,,,,,,,,,,,,,
,,,,,,,,,,1584469,2020-10-24_17h54.38.116,swahili,2020.2.4,MacIntel,60,,,,,,,,,,,,,,,,,,,,,,,,,,,,,,,,,,,,,,,,,,,,,,,,,,,4.01471,0.399338108,0.146840278,1,0,0,0.64802,yes,TAILOR,MSHOA,incorrect,1,0,1,0,1,,,,,,,,,,,,,,,,,,,,,,,,,,,,,,,,,,,,
,,,,,,,,,,1584469,2020-10-24_17h54.38.116,swahili,2020.2.4,MacIntel,60,,,,,,,,,,,,,,,,,,,,,,,,,,,,,,,,,,,,,,,,,,,,,,,,,,,5.23184,0.376171875,-0.094010417,1,0,0,0.98308,yes,BRIBE,TALK,incorrect,2,0,2,0,1,,,,,,,,,,,,,,,,,,,,,,,,,,,,,,,,,,,,
,,,,,,,,,,1584469,2020-10-24_17h54.38.116,swahili,2020.2.4,MacIntel,60,,,,,,,,,,,,,,,,,,,,,,,,,,,,,,,,,,,,,,,,,,,,,,,,,,,4.46575,0.366861979,-0.152222222,1,0,0,0.718575,yes,CHEESE,JIBINI,incorrect,3,0,3,0,1,,,,,,,,,,,,,,,,,,,,,,,,,,,,,,,,,,,,
,,,,,,,,,,1584469,2020-10-24_17h54.38.116,swahili,2020.2.4,MacIntel,60,,,,,,,,,,,,,,,,,,,,,,,,,,,,,,,,,,,,,,,,,,,,,,,,,,,4.113105,0.351302083,-0.153402778,1,0,0,0.53243,yes,BOAT,BROD,incorrect,4,0,4,0,1,,,,,,,,,,,,,,,,,,,,,,,,,,,,,,,,,,,,
,,,,,,,,,,1584469,2020-10-24_17h54.38.116,swahili,2020.2.4,MacIntel,60,,,,,,,,,,,,,,,,,,,,,,,,,,,,,,,,,,,,,,,,,,,,,,,,,,,6.18205,0.337000868,-0.168524306,1,0,0,0.95228,yes,GRAPES,FAZILI,incorrect,5,0,5,0,1,,,,,,,,,,,,,,,,,,,,,,,,,,,,,,,,,,,,
,,,,,,,,,,1584469,2020-10-24_17h54.38.116,swahili,2020.2.4,MacIntel,60,,,,,,,,,,,,,,,,,,,,,,,,,,,,,,,,,,,,,,,,,,,,,,,,,,,4.23391,0.349462891,-0.130564236,1,0,0,0.58319,yes,CORN,NESKRA,incorrect,6,0,6,0,1,,,,,,,,,,,,,,,,,,,,,,,,,,,,,,,,,,,,
,,,,,,,,,,1584469,2020-10-24_17h54.38.116,swahili,2020.2.4,MacIntel,60,,,,,,,,,,,,,,,,,,,,,,,,,,,,,,,,,,,,,,,,,,,,,,,,,,,3.666545,0.381548394,-0.204166667,1,0,0,0.615465,yes,POEM,UTENZI,incorrect,7,0,7,0,1,,,,,,,,,,,,,,,,,,,,,,,,,,,,,,,,,,,,
,,,,,,,,,,1584469,2020-10-24_17h54.38.116,swahili,2020.2.4,MacIntel,60,,,,,,,,,,,,,,,,,,,,,,,,,,,,,,,,,,,,,,,,,,,,,,,,,,,3.564065,0.331803385,-0.134565972,1,0,0,0.67145,yes,ORPHAN,YATIMA,incorrect,8,0,8,0,1,,,,,,,,,,,,,,,,,,,,,,,,,,,,,,,,,,,,
,,,,,,,,,,1584469,2020-10-24_17h54.38.116,swahili,2020.2.4,MacIntel,60,,,,,,,,,,,,,,,,,,,,,,,,,,,,,,,,,,,,,,,,1,0,1,0,1,,,,,,,,,,,,,,,,,,,,,,,,,,,,,,,,,,,,,,,,,,,,,,,,,,,,,,,,,,
,,,,,,,,,,1584469,2020-10-24_17h54.38.116,swahili,2020.2.4,MacIntel,60,,,,,,,,,,,,,,,,,,,,,,,,,,,,,,,,,,,,,,,,,,,,,1,0,1,0,1,,,,,,,,,,,,,,,,,,,,,,,,,,,,,,,,,,,,,,,,,,,,,,,,,,,,,
,,,,,,,,,,1584469,2020-10-24_17h54.38.116,swahili,2020.2.4,MacIntel,60,,,,,,,,,,-0.216189236,0.203046875,1,0,0,1.600845,unsorted_card,0,0,0,0,1,,,,,,,,,,,,,,,,,,,,,,,,,,,,,,,,,,,,,,,,,,,,,,,,,,,,,,,,,,,,,,,,,,,,,,,,,,,,,,,,,
,,,,,,,,,,1584469,2020-10-24_17h54.38.116,swahili,2020.2.4,MacIntel,60,,,,,,,,,,0.513498264,0.046085069,0,0,1,3.70021,test_pile,1,0,1,0,1,MERCHANT - TAJIRI,,,,,,,,,,,,,,,,,,,,,,,,,,,,,,,,,,,,,,,,,,,,,,,,,,,,,,,,,,,,,,,,,,,,,,,,,,,,,,,,
,,,,,,,,,,1584469,2020-10-24_17h54.38.116,swahili,2020.2.4,MacIntel,60,,,,,,,,,,-0.277517361,0.069930556,1,0,1,1.36292,unsorted_card,2,0,2,0,1,,,,,,,,,,,,,,,,,,,,,,,,,,,,,,,,,,,,,,,,,,,,,,,,,,,,,,,,,,,,,,,,,,,,,,,,,,,,,,,,,
,,,,,,,,,,1584469,2020-10-24_17h54.38.116,swahili,2020.2.4,MacIntel,60,,,,,,,,,,-0.277517361,0.069930556,0,0,1,0.099405,unsorted_card,3,0,3,0,1,PARROT - KASUKU,,,,,,,,,,,,,,,,,,,,,,,,,,,,,,,,,,,,,,,,,,,,,,,,,,,,,,,,,,,,,,,,,,,,,,,,,,,,,,,,
,,,,,,,,,,1584469,2020-10-24_17h54.38.116,swahili,2020.2.4,MacIntel,60,,,,,,,,,,0.442475043,-0.007421875,1,0,1,1.817255,test_pile,4,0,4,0,1,PARROT - KASUKU,,,,,,,,,,,,,,,,,,,,,,,,,,,,,,,,,,,,,,,,,,,,,,,,,,,,,,,,,,,,,,,,,,,,,,,,,,,,,,,,
,,,,,,,,,,1584469,2020-10-24_17h54.38.116,swahili,2020.2.4,MacIntel,60,,,,,,,,,,0.442475043,-0.007421875,0,0,1,0.11554,test_pile,5,0,5,0,1,,,,,,,,,,,,,,,,,,,,,,,,,,,,,,,,,,,,,,,,,,,,,,,,,,,,,,,,,,,,,,,,,,,,,,,,,,,,,,,,,
,,,,,,,,,,1584469,2020-10-24_17h54.38.116,swahili,2020.2.4,MacIntel,60,,,,,,,,,,-0.170985243,-0.001388889,1,0,1,0.52537,unsorted_card,6,0,6,0,1,,,,,,,,,,,,,,,,,,,,,,,,,,,,,,,,,,,,,,,,,,,,,,,,,,,,,,,,,,,,,,,,,,,,,,,,,,,,,,,,,
,,,,,,,,,,1584469,2020-10-24_17h54.38.116,swahili,2020.2.4,MacIntel,60,,,,,,,,,,-0.170985243,-0.001388889,0,0,1,0.08763,unsorted_card,7,0,7,0,1,BULL - FAHILI,,,,,,,,,,,,,,,,,,,,,,,,,,,,,,,,,,,,,,,,,,,,,,,,,,,,,,,,,,,,,,,,,,,,,,,,,,,,,,,,
,,,,,,,,,,1584469,2020-10-24_17h54.38.116,swahili,2020.2.4,MacIntel,60,,,,,,,,,,0.565576172,0.061293403,1,0,1,0.769415,test_pile,8,0,8,0,1,BULL - FAHILI,,,,,,,,,,,,,,,,,,,,,,,,,,,,,,,,,,,,,,,,,,,,,,,,,,,,,,,,,,,,,,,,,,,,,,,,,,,,,,,,
,,,,,,,,,,1584469,2020-10-24_17h54.38.116,swahili,2020.2.4,MacIntel,60,,,,,,,,,,0.565576172,0.061293403,0,0,1,0.096285,test_pile,9,0,9,0,1,,,,,,,,,,,,,,,,,,,,,,,,,,,,,,,,,,,,,,,,,,,,,,,,,,,,,,,,,,,,,,,,,,,,,,,,,,,,,,,,,
,,,,,,,,,,1584469,2020-10-24_17h54.38.116,swahili,2020.2.4,MacIntel,60,,,,,,,,,,-0.243126085,0.139982639,1,0,1,0.480135,unsorted_card,10,0,10,0,1,,,,,,,,,,,,,,,,,,,,,,,,,,,,,,,,,,,,,,,,,,,,,,,,,,,,,,,,,,,,,,,,,,,,,,,,,,,,,,,,,
,,,,,,,,,,1584469,2020-10-24_17h54.38.116,swahili,2020.2.4,MacIntel,60,,,,,,,,,,-0.243126085,0.139982639,0,0,1,0.086695,unsorted_card,11,0,11,0,1,PLATE - SAHANI,,,,,,,,,,,,,,,,,,,,,,,,,,,,,,,,,,,,,,,,,,,,,,,,,,,,,,,,,,,,,,,,,,,,,,,,,,,,,,,,
,,,,,,,,,,1584469,2020-10-24_17h54.38.116,swahili,2020.2.4,MacIntel,60,,,,,,,,,,0.544417318,0.070026042,1,0,1,2.11639,test_pile,12,0,12,0,1,PLATE - SAHANI,,,,,,,,,,,,,,,,,,,,,,,,,,,,,,,,,,,,,,,,,,,,,,,,,,,,,,,,,,,,,,,,,,,,,,,,,,,,,,,,
,,,,,,,,,,1584469,2020-10-24_17h54.38.116,swahili,2020.2.4,MacIntel,60,,,,,,,,,,0.544417318,0.070026042,0,0,1,0.14578,test_pile,13,0,13,0,1,,,,,,,,,,,,,,,,,,,,,,,,,,,,,,,,,,,,,,,,,,,,,,,,,,,,,,,,,,,,,,,,,,,,,,,,,,,,,,,,,
,,,,,,,,,,1584469,2020-10-24_17h54.38.116,swahili,2020.2.4,MacIntel,60,,,,,,,,,,-0.178238932,-0.011302083,1,0,1,0.567145,unsorted_card,14,0,14,0,1,,,,,,,,,,,,,,,,,,,,,,,,,,,,,,,,,,,,,,,,,,,,,,,,,,,,,,,,,,,,,,,,,,,,,,,,,,,,,,,,,
,,,,,,,,,,1584469,2020-10-24_17h54.38.116,swahili,2020.2.4,MacIntel,60,,,,,,,,,,-0.178238932,-0.011302083,0,0,1,0.07868,unsorted_card,15,0,15,0,1,YEAST - HAMIRA,,,,,,,,,,,,,,,,,,,,,,,,,,,,,,,,,,,,,,,,,,,,,,,,,,,,,,,,,,,,,,,,,,,,,,,,,,,,,,,,
,,,,,,,,,,1584469,2020-10-24_17h54.38.116,swahili,2020.2.4,MacIntel,60,,,,,,,,,,0.598166233,-0.0528125,1,0,1,0.735525,test_pile,16,0,16,0,1,YEAST - HAMIRA,,,,,,,,,,,,,,,,,,,,,,,,,,,,,,,,,,,,,,,,,,,,,,,,,,,,,,,,,,,,,,,,,,,,,,,,,,,,,,,,
,,,,,,,,,,1584469,2020-10-24_17h54.38.116,swahili,2020.2.4,MacIntel,60,,,,,,,,,,0.598166233,-0.0528125,0,0,1,0.165475,test_pile,17,0,17,0,1,,,,,,,,,,,,,,,,,,,,,,,,,,,,,,,,,,,,,,,,,,,,,,,,,,,,,,,,,,,,,,,,,,,,,,,,,,,,,,,,,
,,,,,,,,,,1584469,2020-10-24_17h54.38.116,swahili,2020.2.4,MacIntel,60,,,,,,,,,,-0.073659939,-0.020763889,1,0,1,0.44975,unsorted_card,18,0,18,0,1,,,,,,,,,,,,,,,,,,,,,,,,,,,,,,,,,,,,,,,,,,,,,,,,,,,,,,,,,,,,,,,,,,,,,,,,,,,,,,,,,
,,,,,,,,,,1584469,2020-10-24_17h54.38.116,swahili,2020.2.4,MacIntel,60,,,,,,,,,,-0.134233941,-0.020763889,0,0,1,0.097945,unsorted_card,19,0,19,0,1,BLAME - LAWAMA,,,,,,,,,,,,,,,,,,,,,,,,,,,,,,,,,,,,,,,,,,,,,,,,,,,,,,,,,,,,,,,,,,,,,,,,,,,,,,,,
,,,,,,,,,,1584469,2020-10-24_17h54.38.116,swahili,2020.2.4,MacIntel,60,,,,,,,,,,0.340467665,-0.020060764,1,0,1,1.415645,test_pile,20,0,20,0,1,BLAME - LAWAMA,,,,,,,,,,,,,,,,,,,,,,,,,,,,,,,,,,,,,,,,,,,,,,,,,,,,,,,,,,,,,,,,,,,,,,,,,,,,,,,,
,,,,,,,,,,1584469,2020-10-24_17h54.38.116,swahili,2020.2.4,MacIntel,60,,,,,,,,,,0.340467665,-0.020060764,0,0,1,0.081425,test_pile,21,0,21,0,1,,,,,,,,,,,,,,,,,,,,,,,,,,,,,,,,,,,,,,,,,,,,,,,,,,,,,,,,,,,,,,,,,,,,,,,,,,,,,,,,,
,,,,,,,,,,1584469,2020-10-24_17h54.38.116,swahili,2020.2.4,MacIntel,60,,,,,,,,,,-0.380859375,-0.009930556,1,0,1,0.649595,unsorted_card,22,0,22,0,1,,,,,,,,,,,,,,,,,,,,,,,,,,,,,,,,,,,,,,,,,,,,,,,,,,,,,,,,,,,,,,,,,,,,,,,,,,,,,,,,,
,,,,,,,,,,1584469,2020-10-24_17h54.38.116,swahili,2020.2.4,MacIntel,60,,,,,,,,,,-0.380859375,-0.009930556,0,0,1,0.064525,unsorted_card,23,0,23,0,1,OATH - YAMINI,,,,,,,,,,,,,,,,,,,,,,,,,,,,,,,,,,,,,,,,,,,,,,,,,,,,,,,,,,,,,,,,,,,,,,,,,,,,,,,,
,,,,,,,,,,1584469,2020-10-24_17h54.38.116,swahili,2020.2.4,MacIntel,60,,,,,,,,,,0.41031901,-0.003932292,1,0,1,0.95022,test_pile,24,0,24,0,1,OATH - YAMINI,,,,,,,,,,,,,,,,,,,,,,,,,,,,,,,,,,,,,,,,,,,,,,,,,,,,,,,,,,,,,,,,,,,,,,,,,,,,,,,,
,,,,,,,,,,1584469,2020-10-24_17h54.38.116,swahili,2020.2.4,MacIntel,60,,,,,,,,,,0.41031901,-0.003932292,0,0,1,0.04754,test_pile,25,0,25,0,1,,,,,,,,,,,,,,,,,,,,,,,,,,,,,,,,,,,,,,,,,,,,,,,,,,,,,,,,,,,,,,,,,,,,,,,,,,,,,,,,,
,,,,,,,,,,1584469,2020-10-24_17h54.38.116,swahili,2020.2.4,MacIntel,60,,,,,,,,,,-0.185503472,-0.009270833,1,0,1,0.382895,unsorted_card,26,0,26,0,1,,,,,,,,,,,,,,,,,,,,,,,,,,,,,,,,,,,,,,,,,,,,,,,,,,,,,,,,,,,,,,,,,,,,,,,,,,,,,,,,,
,,,,,,,,,,1584469,2020-10-24_17h54.38.116,swahili,2020.2.4,MacIntel,60,,,,,,,,,,-0.185503472,-0.009270833,0,0,1,0.08147,unsorted_card,27,0,27,0,1,CORN - NAFAKA,,,,,,,,,,,,,,,,,,,,,,,,,,,,,,,,,,,,,,,,,,,,,,,,,,,,,,,,,,,,,,,,,,,,,,,,,,,,,,,,
,,,,,,,,,,1584469,2020-10-24_17h54.38.116,swahili,2020.2.4,MacIntel,60,,,,,,,,,,0.485064019,0.008125,1,0,1,0.400285,test_pile,28,0,28,0,1,CORN - NAFAKA,,,,,,,,,,,,,,,,,,,,,,,,,,,,,,,,,,,,,,,,,,,,,,,,,,,,,,,,,,,,,,,,,,,,,,,,,,,,,,,,
,,,,,,,,,,1584469,2020-10-24_17h54.38.116,swahili,2020.2.4,MacIntel,60,,,,,,,,,,0.485064019,0.008125,0,0,1,0.09884,test_pile,29,0,29,0,1,,,,,,,,,,,,,,,,,,,,,,,,,,,,,,,,,,,,,,,,,,,,,,,,,,,,,,,,,,,,,,,,,,,,,,,,,,,,,,,,,
,,,,,,,,,,1584469,2020-10-24_17h54.38.116,swahili,2020.2.4,MacIntel,60,,,,,,,,,,-0.282763672,-0.023862847,1,0,1,0.36533,unsorted_card,30,0,30,0,1,,,,,,,,,,,,,,,,,,,,,,,,,,,,,,,,,,,,,,,,,,,,,,,,,,,,,,,,,,,,,,,,,,,,,,,,,,,,,,,,,
,,,,,,,,,,1584469,2020-10-24_17h54.38.116,swahili,2020.2.4,MacIntel,60,,,,,,,,,,-0.282763672,-0.023862847,0,0,1,0.06404,unsorted_card,31,0,31,0,1,POEM - UTENZI,,,,,,,,,,,,,,,,,,,,,,,,,,,,,,,,,,,,,,,,,,,,,,,,,,,,,,,,,,,,,,,,,,,,,,,,,,,,,,,,
,,,,,,,,,,1584469,2020-10-24_17h54.38.116,swahili,2020.2.4,MacIntel,60,,,,,,,,,,0.477669271,0.027083333,1,0,1,0.45084,test_pile,32,0,32,0,1,POEM - UTENZI,,,,,,,,,,,,,,,,,,,,,,,,,,,,,,,,,,,,,,,,,,,,,,,,,,,,,,,,,,,,,,,,,,,,,,,,,,,,,,,,
,,,,,,,,,,1584469,2020-10-24_17h54.38.116,swahili,2020.2.4,MacIntel,60,,,,,,,,,,0.477669271,0.027083333,0,0,1,0.06082,test_pile,33,0,33,0,1,,,,,,,,,,,,,,,,,,,,,,,,,,,,,,,,,,,,,,,,,,,,,,,,,,,,,,,,,,,,,,,,,,,,,,,,,,,,,,,,,
,,,,,,,,,,1584469,2020-10-24_17h54.38.116,swahili,2020.2.4,MacIntel,60,,,,,,,,,,-0.251117622,0.009001736,1,0,1,0.351555,unsorted_card,34,0,34,0,1,,,,,,,,,,,,,,,,,,,,,,,,,,,,,,,,,,,,,,,,,,,,,,,,,,,,,,,,,,,,,,,,,,,,,,,,,,,,,,,,,
,,,,,,,,,,1584469,2020-10-24_17h54.38.116,swahili,2020.2.4,MacIntel,60,,,,,,,,,,-0.251117622,0.009001736,0,0,1,0.063795,unsorted_card,35,0,35,0,1,TAILOR - MSHONI,,,,,,,,,,,,,,,,,,,,,,,,,,,,,,,,,,,,,,,,,,,,,,,,,,,,,,,,,,,,,,,,,,,,,,,,,,,,,,,,
,,,,,,,,,,1584469,2020-10-24_17h54.38.116,swahili,2020.2.4,MacIntel,60,,,,,,,,,,0.464501953,0.004123264,1,0,1,0.55159,test_pile,36,0,36,0,1,TAILOR - MSHONI,,,,,,,,,,,,,,,,,,,,,,,,,,,,,,,,,,,,,,,,,,,,,,,,,,,,,,,,,,,,,,,,,,,,,,,,,,,,,,,,
,,,,,,,,,,1584469,2020-10-24_17h54.38.116,swahili,2020.2.4,MacIntel,60,,,,,,,,,,0.464501953,0.004123264,0,0,1,0.079375,test_pile,37,0,37,0,1,,,,,,,,,,,,,,,,,,,,,,,,,,,,,,,,,,,,,,,,,,,,,,,,,,,,,,,,,,,,,,,,,,,,,,,,,,,,,,,,,
,,,,,,,,,,1584469,2020-10-24_17h54.38.116,swahili,2020.2.4,MacIntel,60,,,,,,,,,,-0.274663628,-0.052144097,1,0,1,0.300415,unsorted_card,38,0,38,0,1,,,,,,,,,,,,,,,,,,,,,,,,,,,,,,,,,,,,,,,,,,,,,,,,,,,,,,,,,,,,,,,,,,,,,,,,,,,,,,,,,
,,,,,,,,,,1584469,2020-10-24_17h54.38.116,swahili,2020.2.4,MacIntel,60,,,,,,,,,,-0.274663628,-0.052144097,0,0,1,0.09717,unsorted_card,39,0,39,0,1,CHEESE - JIBINI,,,,,,,,,,,,,,,,,,,,,,,,,,,,,,,,,,,,,,,,,,,,,,,,,,,,,,,,,,,,,,,,,,,,,,,,,,,,,,,,
,,,,,,,,,,1584469,2020-10-24_17h54.38.116,swahili,2020.2.4,MacIntel,60,,,,,,,,,,0.400515408,-0.038741319,1,0,1,0.36872,test_pile,40,0,40,0,1,CHEESE - JIBINI,,,,,,,,,,,,,,,,,,,,,,,,,,,,,,,,,,,,,,,,,,,,,,,,,,,,,,,,,,,,,,,,,,,,,,,,,,,,,,,,
,,,,,,,,,,1584469,2020-10-24_17h54.38.116,swahili,2020.2.4,MacIntel,60,,,,,,,,,,0.400515408,-0.038741319,0,0,1,0.079375,test_pile,41,0,41,0,1,,,,,,,,,,,,,,,,,,,,,,,,,,,,,,,,,,,,,,,,,,,,,,,,,,,,,,,,,,,,,,,,,,,,,,,,,,,,,,,,,
,,,,,,,,,,1584469,2020-10-24_17h54.38.116,swahili,2020.2.4,MacIntel,60,,,,,,,,,,-0.298470052,-0.06421875,1,0,1,0.335925,unsorted_card,42,0,42,0,1,,,,,,,,,,,,,,,,,,,,,,,,,,,,,,,,,,,,,,,,,,,,,,,,,,,,,,,,,,,,,,,,,,,,,,,,,,,,,,,,,
,,,,,,,,,,1584469,2020-10-24_17h54.38.116,swahili,2020.2.4,MacIntel,60,,,,,,,,,,-0.298470052,-0.06421875,0,0,1,0.078065,unsorted_card,43,0,43,0,1,GRAPES - ZABIBU,,,,,,,,,,,,,,,,,,,,,,,,,,,,,,,,,,,,,,,,,,,,,,,,,,,,,,,,,,,,,,,,,,,,,,,,,,,,,,,,
,,,,,,,,,,1584469,2020-10-24_17h54.38.116,swahili,2020.2.4,MacIntel,60,,,,,,,,,,0.416460503,-0.013897569,1,0,1,0.402045,test_pile,44,0,44,0,1,GRAPES - ZABIBU,,,,,,,,,,,,,,,,,,,,,,,,,,,,,,,,,,,,,,,,,,,,,,,,,,,,,,,,,,,,,,,,,,,,,,,,,,,,,,,,
,,,,,,,,,,1584469,2020-10-24_17h54.38.116,swahili,2020.2.4,MacIntel,60,,,,,,,,,,0.416460503,-0.013897569,0,0,1,0.065955,test_pile,45,0,45,0,1,,,,,,,,,,,,,,,,,,,,,,,,,,,,,,,,,,,,,,,,,,,,,,,,,,,,,,,,,,,,,,,,,,,,,,,,,,,,,,,,,
,,,,,,,,,,1584469,2020-10-24_17h54.38.116,swahili,2020.2.4,MacIntel,60,,,,,,,,,,-0.27922092,-0.026935764,1,0,1,0.2823,unsorted_card,46,0,46,0,1,,,,,,,,,,,,,,,,,,,,,,,,,,,,,,,,,,,,,,,,,,,,,,,,,,,,,,,,,,,,,,,,,,,,,,,,,,,,,,,,,
,,,,,,,,,,1584469,2020-10-24_17h54.38.116,swahili,2020.2.4,MacIntel,60,,,,,,,,,,-0.27922092,-0.026935764,0,0,1,0.096155,unsorted_card,47,0,47,0,1,GRAVE - KABURI,,,,,,,,,,,,,,,,,,,,,,,,,,,,,,,,,,,,,,,,,,,,,,,,,,,,,,,,,,,,,,,,,,,,,,,,,,,,,,,,
,,,,,,,,,,1584469,2020-10-24_17h54.38.116,swahili,2020.2.4,MacIntel,60,,,,,,,,,,0.382161458,-0.023715278,1,0,1,0.367995,test_pile,48,0,48,0,1,GRAVE - KABURI,,,,,,,,,,,,,,,,,,,,,,,,,,,,,,,,,,,,,,,,,,,,,,,,,,,,,,,,,,,,,,,,,,,,,,,,,,,,,,,,
,,,,,,,,,,1584469,2020-10-24_17h54.38.116,swahili,2020.2.4,MacIntel,60,,,,,,,,,,0.375157335,-0.023715278,0,0,1,0.08016,test_pile,49,0,49,0,1,,,,,,,,,,,,,,,,,,,,,,,,,,,,,,,,,,,,,,,,,,,,,,,,,,,,,,,,,,,,,,,,,,,,,,,,,,,,,,,,,
,,,,,,,,,,1584469,2020-10-24_17h54.38.116,swahili,2020.2.4,MacIntel,60,,,,,,,,,,-0.309185113,-0.108177083,1,0,1,0.299565,unsorted_card,50,0,50,0,1,,,,,,,,,,,,,,,,,,,,,,,,,,,,,,,,,,,,,,,,,,,,,,,,,,,,,,,,,,,,,,,,,,,,,,,,,,,,,,,,,
,,,,,,,,,,1584469,2020-10-24_17h54.38.116,swahili,2020.2.4,MacIntel,60,,,,,,,,,,-0.309185113,-0.108177083,0,0,1,0.066025,unsorted_card,51,0,51,0,1,MANURE - SAMADI,,,,,,,,,,,,,,,,,,,,,,,,,,,,,,,,,,,,,,,,,,,,,,,,,,,,,,,,,,,,,,,,,,,,,,,,,,,,,,,,
,,,,,,,,,,1584469,2020-10-24_17h54.38.116,swahili,2020.2.4,MacIntel,60,,,,,,,,,,0.449934896,-0.071432292,1,0,1,0.36801,test_pile,52,0,52,0,1,MANURE - SAMADI,,,,,,,,,,,,,,,,,,,,,,,,,,,,,,,,,,,,,,,,,,,,,,,,,,,,,,,,,,,,,,,,,,,,,,,,,,,,,,,,
,,,,,,,,,,1584469,2020-10-24_17h54.38.116,swahili,2020.2.4,MacIntel,60,,,,,,,,,,0.449934896,-0.071432292,0,0,1,0.094065,test_pile,53,0,53,0,1,,,,,,,,,,,,,,,,,,,,,,,,,,,,,,,,,,,,,,,,,,,,,,,,,,,,,,,,,,,,,,,,,,,,,,,,,,,,,,,,,
,,,,,,,,,,1584469,2020-10-24_17h54.38.116,swahili,2020.2.4,MacIntel,60,,,,,,,,,,-0.325786675,-0.140477431,1,0,1,0.298185,unsorted_card,54,0,54,0,1,,,,,,,,,,,,,,,,,,,,,,,,,,,,,,,,,,,,,,,,,,,,,,,,,,,,,,,,,,,,,,,,,,,,,,,,,,,,,,,,,
,,,,,,,,,,1584469,2020-10-24_17h54.38.116,swahili,2020.2.4,MacIntel,60,,,,,,,,,,-0.325786675,-0.140477431,0,0,1,0.083555,unsorted_card,55,0,55,0,1,AGENT - WAKILI,,,,,,,,,,,,,,,,,,,,,,,,,,,,,,,,,,,,,,,,,,,,,,,,,,,,,,,,,,,,,,,,,,,,,,,,,,,,,,,,
,,,,,,,,,,1584469,2020-10-24_17h54.38.116,swahili,2020.2.4,MacIntel,60,,,,,,,,,,0.423806424,-0.079522569,1,0,1,0.369635,test_pile,56,0,56,0,1,AGENT - WAKILI,,,,,,,,,,,,,,,,,,,,,,,,,,,,,,,,,,,,,,,,,,,,,,,,,,,,,,,,,,,,,,,,,,,,,,,,,,,,,,,,
,,,,,,,,,,1584469,2020-10-24_17h54.38.116,swahili,2020.2.4,MacIntel,60,,,,,,,,,,0.42281901,-0.079522569,0,0,1,0.11035,test_pile,57,0,57,0,1,,,,,,,,,,,,,,,,,,,,,,,,,,,,,,,,,,,,,,,,,,,,,,,,,,,,,,,,,,,,,,,,,,,,,,,,,,,,,,,,,
,,,,,,,,,,1584469,2020-10-24_17h54.38.116,swahili,2020.2.4,MacIntel,60,,,,,,,,,,-0.313606771,-0.039470486,1,0,1,0.28897,unsorted_card,58,0,58,0,1,,,,,,,,,,,,,,,,,,,,,,,,,,,,,,,,,,,,,,,,,,,,,,,,,,,,,,,,,,,,,,,,,,,,,,,,,,,,,,,,,
,,,,,,,,,,1584469,2020-10-24_17h54.38.116,swahili,2020.2.4,MacIntel,60,,,,,,,,,,-0.313606771,-0.039470486,0,0,1,0.09317,unsorted_card,59,0,59,0,1,BRIBE - RUSHWA,,,,,,,,,,,,,,,,,,,,,,,,,,,,,,,,,,,,,,,,,,,,,,,,,,,,,,,,,,,,,,,,,,,,,,,,,,,,,,,,
,,,,,,,,,,1584469,2020-10-24_17h54.38.116,swahili,2020.2.4,MacIntel,60,,,,,,,,,,0.475813802,0.018177083,1,0,1,0.398825,test_pile,60,0,60,0,1,BRIBE - RUSHWA,,,,,,,,,,,,,,,,,,,,,,,,,,,,,,,,,,,,,,,,,,,,,,,,,,,,,,,,,,,,,,,,,,,,,,,,,,,,,,,,
,,,,,,,,,,1584469,2020-10-24_17h54.38.116,swahili,2020.2.4,MacIntel,60,,,,,,,,,,0.475813802,0.018177083,0,0,1,0.10339,test_pile,61,0,61,0,1,,,,,,,,,,,,,,,,,,,,,,,,,,,,,,,,,,,,,,,,,,,,,,,,,,,,,,,,,,,,,,,,,,,,,,,,,,,,,,,,,
,,,,,,,,,,1584469,2020-10-24_17h54.38.116,swahili,2020.2.4,MacIntel,60,,,,,,,,,,-0.238916016,-0.014756944,1,0,1,0.29772,unsorted_card,62,0,62,0,1,,,,,,,,,,,,,,,,,,,,,,,,,,,,,,,,,,,,,,,,,,,,,,,,,,,,,,,,,,,,,,,,,,,,,,,,,,,,,,,,,
,,,,,,,,,,1584469,2020-10-24_17h54.38.116,swahili,2020.2.4,MacIntel,60,,,,,,,,,,-0.238916016,-0.014756944,0,0,1,0.08001,unsorted_card,63,0,63,0,1,ORPHAN - YATIMA,,,,,,,,,,,,,,,,,,,,,,,,,,,,,,,,,,,,,,,,,,,,,,,,,,,,,,,,,,,,,,,,,,,,,,,,,,,,,,,,
,,,,,,,,,,1584469,2020-10-24_17h54.38.116,swahili,2020.2.4,MacIntel,60,,,,,,,,,,0.358289931,-0.016536458,1,0,1,0.51807,test_pile,64,0,64,0,1,ORPHAN - YATIMA,,,,,,,,,,,,,,,,,,,,,,,,,,,,,,,,,,,,,,,,,,,,,,,,,,,,,,,,,,,,,,,,,,,,,,,,,,,,,,,,
,,,,,,,,,,1584469,2020-10-24_17h54.38.116,swahili,2020.2.4,MacIntel,60,,,,,,,,,,0.358289931,-0.016536458,0,0,1,0.062385,test_pile,65,0,65,0,1,,,,,,,,,,,,,,,,,,,,,,,,,,,,,,,,,,,,,,,,,,,,,,,,,,,,,,,,,,,,,,,,,,,,,,,,,,,,,,,,,
,,,,,,,,,,1584469,2020-10-24_17h54.38.116,swahili,2020.2.4,MacIntel,60,,,,,,,,,,-0.21389974,-0.001319444,1,0,1,0.368195,unsorted_card,66,0,66,0,1,,,,,,,,,,,,,,,,,,,,,,,,,,,,,,,,,,,,,,,,,,,,,,,,,,,,,,,,,,,,,,,,,,,,,,,,,,,,,,,,,
,,,,,,,,,,1584469,2020-10-24_17h54.38.116,swahili,2020.2.4,MacIntel,60,,,,,,,,,,-0.21389974,-0.001319444,0,0,1,0.064695,unsorted_card,67,0,67,0,1,DIVORCE - TALAKA,,,,,,,,,,,,,,,,,,,,,,,,,,,,,,,,,,,,,,,,,,,,,,,,,,,,,,,,,,,,,,,,,,,,,,,,,,,,,,,,
,,,,,,,,,,1584469,2020-10-24_17h54.38.116,swahili,2020.2.4,MacIntel,60,,,,,,,,,,0.375672743,0.024314236,1,0,1,0.39896,test_pile,68,0,68,0,1,DIVORCE - TALAKA,,,,,,,,,,,,,,,,,,,,,,,,,,,,,,,,,,,,,,,,,,,,,,,,,,,,,,,,,,,,,,,,,,,,,,,,,,,,,,,,
,,,,,,,,,,1584469,2020-10-24_17h54.38.116,swahili,2020.2.4,MacIntel,60,,,,,,,,,,0.375672743,0.024314236,0,0,1,0.086545,test_pile,69,0,69,0,1,,,,,,,,,,,,,,,,,,,,,,,,,,,,,,,,,,,,,,,,,,,,,,,,,,,,,,,,,,,,,,,,,,,,,,,,,,,,,,,,,
,,,,,,,,,,1584469,2020-10-24_17h54.38.116,swahili,2020.2.4,MacIntel,60,,,,,,,,,,-0.341601563,-0.047803819,1,0,1,0.34429,unsorted_card,70,0,70,0,1,,,,,,,,,,,,,,,,,,,,,,,,,,,,,,,,,,,,,,,,,,,,,,,,,,,,,,,,,,,,,,,,,,,,,,,,,,,,,,,,,
,,,,,,,,,,1584469,2020-10-24_17h54.38.116,swahili,2020.2.4,MacIntel,60,,,,,,,,,,-0.341601563,-0.047803819,0,0,1,0.06516,unsorted_card,71,0,71,0,1,BOAT - MASHUA,,,,,,,,,,,,,,,,,,,,,,,,,,,,,,,,,,,,,,,,,,,,,,,,,,,,,,,,,,,,,,,,,,,,,,,,,,,,,,,,
,,,,,,,,,,1584469,2020-10-24_17h54.38.116,swahili,2020.2.4,MacIntel,60,,,,,,,,,,0.406407335,-0.065763889,1,0,1,0.45445,test_pile,72,0,72,0,1,BOAT - MASHUA,,,,,,,,,,,,,,,,,,,,,,,,,,,,,,,,,,,,,,,,,,,,,,,,,,,,,,,,,,,,,,,,,,,,,,,,,,,,,,,,
,,,,,,,,,,1584469,2020-10-24_17h54.38.116,swahili,2020.2.4,MacIntel,60,,,,,,,,,,0.406407335,-0.065763889,0,0,1,0.07734,test_pile,73,0,73,0,1,,,,,,,,,,,,,,,,,,,,,,,,,,,,,,,,,,,,,,,,,,,,,,,,,,,,,,,,,,,,,,,,,,,,,,,,,,,,,,,,,
,,,,,,,,,,1584469,2020-10-24_17h54.38.116,swahili,2020.2.4,MacIntel,60,,,,,,,,,,-0.295996094,-0.008645833,1,0,1,0.353015,unsorted_card,74,0,74,0,1,,,,,,,,,,,,,,,,,,,,,,,,,,,,,,,,,,,,,,,,,,,,,,,,,,,,,,,,,,,,,,,,,,,,,,,,,,,,,,,,,
,,,,,,,,,,1584469,2020-10-24_17h54.38.116,swahili,2020.2.4,MacIntel,60,,,,,,,,,,-0.295996094,-0.008645833,0,0,1,0.062705,unsorted_card,75,0,75,0,1,TREASURE - DAFINA,,,,,,,,,,,,,,,,,,,,,,,,,,,,,,,,,,,,,,,,,,,,,,,,,,,,,,,,,,,,,,,,,,,,,,,,,,,,,,,,
,,,,,,,,,,1584469,2020-10-24_17h54.38.116,swahili,2020.2.4,MacIntel,60,,,,,,,,,,0.459912109,-0.041901042,1,0,1,0.766625,test_pile,76,0,76,0,1,TREASURE - DAFINA,,,,,,,,,,,,,,,,,,,,,,,,,,,,,,,,,,,,,,,,,,,,,,,,,,,,,,,,,,,,,,,,,,,,,,,,,,,,,,,,
,,,,,,,,,,1584469,2020-10-24_17h54.38.116,swahili,2020.2.4,MacIntel,60,,,,,,,,,,,,,,,,,,,,,,,,,,,,,,,,,,0,0,0,0,1,,,,,,,,,,,,,,,,,,,,,,,,,,,,,,,,,,,,,,,,,,,,,,,,,,,,,,,,,,,,,,,,
,,,,,,,,,,1584469,2020-10-24_17h54.38.116,swahili,2020.2.4,MacIntel,60,,,,,,,,,,,,,,,,,,,,,,,,,,,,,,,,,,,,,,,return,,,,,,,,,,,1.079915,3.82726,0.459912109,-0.041901042,1,0,1,0.76566,yes,BLAME,YASHOA,incorrect,0,0,0,0,1,,,,,,,,,,,,,,,,,,,,,,,,,,,,,,,,,,,,
,,,,,,,,,,1584469,2020-10-24_17h54.38.116,swahili,2020.2.4,MacIntel,60,,,,,,,,,,,,,,,,,,,,,,,,,,,,,,,,,,,,,,,,,,,,,,,,,,,6.02958,0.368977865,-0.018541667,1,0,1,1.35013,yes,OATH,RU,incorrect,1,0,1,0,1,,,,,,,,,,,,,,,,,,,,,,,,,,,,,,,,,,,,
,,,,,,,,,,1584469,2020-10-24_17h54.38.116,swahili,2020.2.4,MacIntel,60,,,,,,,,,,,,,,,,,,,,,,,,,,,,,,,,,,,,,,,,,,,,,,,,,,,4.331685,0.447591146,-0.027517361,1,0,1,0.733235,yes,CORN,NAFAKA,incorrect,2,0,2,0,1,,,,,,,,,,,,,,,,,,,,,,,,,,,,,,,,,,,,
,,,,,,,,,,1584469,2020-10-24_17h54.38.116,swahili,2020.2.4,MacIntel,60,,,,,,,,,,,,,,,,,,,,,,,,,,,,,,,,,,,,,,,,,,,,,,,,,,,6.08053,0.345947266,-0.142673611,1,0,1,0.666635,yes,MERCHANT,NASH,incorrect,3,0,3,0,1,,,,,,,,,,,,,,,,,,,,,,,,,,,,,,,,,,,,
,,,,,,,,,,1584469,2020-10-24_17h54.38.116,swahili,2020.2.4,MacIntel,60,,,,,,,,,,,,,,,,,,,,,,,,,,,,,,,,,,,,,,,,,,,,,,,,,,,6.517115,0.41515842,0.002213542,1,0,1,0.5633,yes,TREASURE,TRA,incorrect,4,0,4,0,1,,,,,,,,,,,,,,,,,,,,,,,,,,,,,,,,,,,,
,,,,,,,,,,1584469,2020-10-24_17h54.38.116,swahili,2020.2.4,MacIntel,60,,,,,,,,,,,,,,,,,,,,,,,,,,,,,,,,,,,,,,,,,,,,,,,,,,,7.27981,0.41515842,0.002213542,1,0,1,0.48549,yes,GRAPES,JIBINI,incorrect,5,0,5,0,1,,,,,,,,,,,,,,,,,,,,,,,,,,,,,,,,,,,,
,,,,,,,,,,1584469,2020-10-24_17h54.38.116,swahili,2020.2.4,MacIntel,60,,,,,,,,,,,,,,,,,,,,,,,,,,,,,,,,,,,,,,,,,,,,,,,,,,,7.282555,0.434510634,-0.010737847,1,0,1,1.73285,yes,TAILOR,MSHOANA,incorrect,6,0,6,0,1,,,,,,,,,,,,,,,,,,,,,,,,,,,,,,,,,,,,
,,,,,,,,,,1584469,2020-10-24_17h54.38.116,swahili,2020.2.4,MacIntel,60,,,,,,,,,,,,,,,,,,,,,,,,,,,,,,,,,,,,,,,,,,,,,,,,,,,2.730645,0.433398438,-0.022899306,1,0,1,0.96757,yes,GRAVE,CRE,incorrect,7,0,7,0,1,,,,,,,,,,,,,,,,,,,,,,,,,,,,,,,,,,,,
,,,,,,,,,,1584469,2020-10-24_17h54.38.116,swahili,2020.2.4,MacIntel,60,,,,,,,,,,,,,,,,,,,,,,,,,,,,,,,,,,,,,,,,,,,,,,,,,,,3.28048,0.433398438,-0.022899306,1,0,1,0.46646,yes,BOAT,MASHOA,incorrect,8,0,8,0,1,,,,,,,,,,,,,,,,,,,,,,,,,,,,,,,,,,,,
,,,,,,,,,,1584469,2020-10-24_17h54.38.116,swahili,2020.2.4,MacIntel,60,,,,,,,,,,,,,,,,,,,,,,,,,,,,,,,,,,,,,,,,,,,,,,,,,,,6.502655,0.433713108,-0.022899306,1,0,1,0.495,yes,ORPHAN,YATIMA,incorrect,9,0,9,0,1,,,,,,,,,,,,,,,,,,,,,,,,,,,,,,,,,,,,
,,,,,,,,,,1584469,2020-10-24_17h54.38.116,swahili,2020.2.4,MacIntel,60,,,,,,,,,,,,,,,,,,,,,,,,,,,,,,,,,,,,,,,,,,,,,,,,,,,4.61503,0.433713108,-0.022899306,1,0,1,0.48304,yes,AGENT,MASHOKA,incorrect,10,0,10,0,1,,,,,,,,,,,,,,,,,,,,,,,,,,,,,,,,,,,,
,,,,,,,,,,1584469,2020-10-24_17h54.38.116,swahili,2020.2.4,MacIntel,60,,,,,,,,,,,,,,,,,,,,,,,,,,,,,,,,,,,,,,,,,,,,,,,,,,,4.144995,0.433713108,-0.022899306,1,0,1,0.616355,yes,POEM,UTENZI,incorrect,11,0,11,0,1,,,,,,,,,,,,,,,,,,,,,,,,,,,,,,,,,,,,
,,,,,,,,,,1584469,2020-10-24_17h54.38.116,swahili,2020.2.4,MacIntel,60,,,,,,,,,,,,,,,,,,,,,,,,,,,,,,,,,,,,,,,,,,,,,,,,,,,3.54653,0.433713108,-0.022899306,1,0,1,0.649285,yes,DIVORCE,CRO,incorrect,12,0,12,0,1,,,,,,,,,,,,,,,,,,,,,,,,,,,,,,,,,,,,
,,,,,,,,,,1584469,2020-10-24_17h54.38.116,swahili,2020.2.4,MacIntel,60,,,,,,,,,,,,,,,,,,,,,,,,,,,,,,,,,,,,,,,,,,,,,,,,,,,2.529195,0.433713108,-0.022899306,1,0,1,0.567115,yes,CHEESE,JIBINI,incorrect,13,0,13,0,1,,,,,,,,,,,,,,,,,,,,,,,,,,,,,,,,,,,,
,,,,,,,,,,1584469,2020-10-24_17h54.38.116,swahili,2020.2.4,MacIntel,60,,,,,,,,,,,,,,,,,,,,,,,,,,,,,,,,,,,,,,,,,,,,,,,,,,,8.54883,0.433713108,-0.022899306,1,0,1,0.416915,yes,PARROT,TALAKA,incorrect,14,0,14,0,1,,,,,,,,,,,,,,,,,,,,,,,,,,,,,,,,,,,,
,,,,,,,,,,1584469,2020-10-24_17h54.38.116,swahili,2020.2.4,MacIntel,60,,,,,,,,,,,,,,,,,,,,,,,,,,,,,,,,,,,,,,,,,,,,,,,,,,,2.02831,0.433713108,-0.022899306,1,0,1,0.366715,yes,BULL,F,incorrect,15,0,15,0,1,,,,,,,,,,,,,,,,,,,,,,,,,,,,,,,,,,,,
,,,,,,,,,,1584469,2020-10-24_17h54.38.116,swahili,2020.2.4,MacIntel,60,,,,,,,,,,,,,,,,,,,,,,,,,,,,,,,,,,,,,,,,,,,,,,,,,,,2.563575,0.433713108,-0.022899306,1,0,1,0.634745,yes,PLATE,F,incorrect,16,0,16,0,1,,,,,,,,,,,,,,,,,,,,,,,,,,,,,,,,,,,,
,,,,,,,,,,1584469,2020-10-24_17h54.38.116,swahili,2020.2.4,MacIntel,60,,,,,,,,,,,,,,,,,,,,,,,,,,,,,,,,,,,,,,,,,,,,,,,,,,,2.433515,0.433713108,-0.022899306,1,0,1,0.450725,yes,BRIBE,BRI,incorrect,17,0,17,0,1,,,,,,,,,,,,,,,,,,,,,,,,,,,,,,,,,,,,
,,,,,,,,,,1584469,2020-10-24_17h54.38.116,swahili,2020.2.4,MacIntel,60,,,,,,,,,,,,,,,,,,,,,,,,,,,,,,,,,,,,,,,,,,,,,,,,,,,2.74808,0.338742405,0.032838542,1,0,1,0.666715,yes,YEAST,R,incorrect,18,0,18,0,1,,,,,,,,,,,,,,,,,,,,,,,,,,,,,,,,,,,,
,,,,,,,,,,1584469,2020-10-24_17h54.38.116,swahili,2020.2.4,MacIntel,60,,,,,,,,,,,,,,,,,,,,,,,,,,,,,,,,,,,,,,,,,,,,,,,,,,,1.749335,0.338742405,0.032838542,1,0,1,0.44808,yes,MANURE,F,incorrect,19,0,19,0,1,,,,,,,,,,,,,,,,,,,,,,,,,,,,,,,,,,,,
,,,,,,,,,,1584469,2020-10-24_17h54.38.116,swahili,2020.2.4,MacIntel,60,,,,,,,,,,,,,,,,,,,,,,,,,,,,,,,,,,,,,,,,0,0,0,0,1,,,,,,,,,,,,,,,,,,,,,,,,,,,,,,,,,,,,,,,,,,,,,,,,,,,,,,,,,,
,,,,,,,,,,1584469,2020-10-24_17h54.38.116,swahili,2020.2.4,MacIntel,60,,,,,,,,,,,,,,,,,,,,,,,,,,,,,,,,,,,,,,,,1,0,1,0,1,,,,,,,,,,,,,,,,,,,,,,,,,,,,,,,,,,,,,,,,,,,,,,,,,,,,,,,,,,
,,,,,,,,,,1584469,2020-10-24_17h54.38.116,swahili,2020.2.4,MacIntel,60,,,,,,,,,,,,,,,,,,,,,,,,,,,,,,,,,,,,,,,,,,,,,2,0,2,0,1,,,,,,,,,,,,,,,,,,,,,,,,,,,,,,,,,,,,,,,,,,,,,,,,,,,,,
,,,,,,,,,,1584469,2020-10-24_17h54.38.116,swahili,2020.2.4,MacIntel,60,,,,,,,,,,-0.237950304,0.048376736,1,0,1,8.73228,unsorted_card,0,0,0,0,1,,,,,,,,,,,,,,,,,,,,,,,,,,,,,,,,,,,,,,,,,,,,,,,,,,,,,,,,,,,,,,,,,,,,,,,,,,,,,,,,,
,,,,,,,,,,1584469,2020-10-24_17h54.38.116,swahili,2020.2.4,MacIntel,60,,,,,,,,,,-0.237950304,0.048376736,0,0,1,0.083195,unsorted_card,1,0,1,0,1,MERCHANT - TAJIRI,,,,,,,,,,,,,,,,,,,,,,,,,,,,,,,,,,,,,,,,,,,,,,,,,,,,,,,,,,,,,,,,,,,,,,,,,,,,,,,,
,,,,,,,,,,1584469,2020-10-24_17h54.38.116,swahili,2020.2.4,MacIntel,60,,,,,,,,,,0.462288411,-0.413828125,1,0,1,3.46471,done_pile,2,0,2,0,1,MERCHANT - TAJIRI,,,,,,,,,,,,,,,,,,,,,,,,,,,,,,,,,,,,,,,,,,,,,,,,,,,,,,,,,,,,,,,,,,,,,,,,,,,,,,,,
,,,,,,,,,,1584469,2020-10-24_17h54.38.116,swahili,2020.2.4,MacIntel,60,,,,,,,,,,0.462288411,-0.413828125,0,0,1,0.128315,done_pile,3,0,3,0,1,,,,,,,,,,,,,,,,,,,,,,,,,,,,,,,,,,,,,,,,,,,,,,,,,,,,,,,,,,,,,,,,,,,,,,,,,,,,,,,,,
,,,,,,,,,,1584469,2020-10-24_17h54.38.116,swahili,2020.2.4,MacIntel,60,,,,,,,,,,-0.26328125,-0.03375,1,0,1,0.567405,unsorted_card,4,0,4,0,1,,,,,,,,,,,,,,,,,,,,,,,,,,,,,,,,,,,,,,,,,,,,,,,,,,,,,,,,,,,,,,,,,,,,,,,,,,,,,,,,,
,,,,,,,,,,1584469,2020-10-24_17h54.38.116,swahili,2020.2.4,MacIntel,60,,,,,,,,,,-0.26328125,-0.03375,0,0,1,0.081795,unsorted_card,5,0,5,0,1,PARROT - KASUKU,,,,,,,,,,,,,,,,,,,,,,,,,,,,,,,,,,,,,,,,,,,,,,,,,,,,,,,,,,,,,,,,,,,,,,,,,,,,,,,,
,,,,,,,,,,1584469,2020-10-24_17h54.38.116,swahili,2020.2.4,MacIntel,60,,,,,,,,,,0.346988932,-0.480711806,1,0,1,3.501725,done_pile,6,0,6,0,1,PARROT - KASUKU,,,,,,,,,,,,,,,,,,,,,,,,,,,,,,,,,,,,,,,,,,,,,,,,,,,,,,,,,,,,,,,,,,,,,,,,,,,,,,,,
,,,,,,,,,,1584469,2020-10-24_17h54.38.116,swahili,2020.2.4,MacIntel,60,,,,,,,,,,0.346988932,-0.480711806,0,0,1,0.14581,done_pile,7,0,7,0,1,,,,,,,,,,,,,,,,,,,,,,,,,,,,,,,,,,,,,,,,,,,,,,,,,,,,,,,,,,,,,,,,,,,,,,,,,,,,,,,,,
,,,,,,,,,,1584469,2020-10-24_17h54.38.116,swahili,2020.2.4,MacIntel,60,,,,,,,,,,-0.130712891,-0.100138889,1,0,1,0.41595,unsorted_card,8,0,8,0,1,,,,,,,,,,,,,,,,,,,,,,,,,,,,,,,,,,,,,,,,,,,,,,,,,,,,,,,,,,,,,,,,,,,,,,,,,,,,,,,,,
,,,,,,,,,,1584469,2020-10-24_17h54.38.116,swahili,2020.2.4,MacIntel,60,,,,,,,,,,-0.130712891,-0.100138889,0,0,1,0.082855,unsorted_card,9,0,9,0,1,BULL - FAHILI,,,,,,,,,,,,,,,,,,,,,,,,,,,,,,,,,,,,,,,,,,,,,,,,,,,,,,,,,,,,,,,,,,,,,,,,,,,,,,,,
,,,,,,,,,,1584469,2020-10-24_17h54.38.116,swahili,2020.2.4,MacIntel,60,,,,,,,,,,0.390342882,-0.431076389,1,0,1,0.537605,done_pile,10,0,10,0,1,BULL - FAHILI,,,,,,,,,,,,,,,,,,,,,,,,,,,,,,,,,,,,,,,,,,,,,,,,,,,,,,,,,,,,,,,,,,,,,,,,,,,,,,,,
,,,,,,,,,,1584469,2020-10-24_17h54.38.116,swahili,2020.2.4,MacIntel,60,,,,,,,,,,0.390342882,-0.431076389,0,0,1,0.0932,done_pile,11,0,11,0,1,,,,,,,,,,,,,,,,,,,,,,,,,,,,,,,,,,,,,,,,,,,,,,,,,,,,,,,,,,,,,,,,,,,,,,,,,,,,,,,,,
,,,,,,,,,,1584469,2020-10-24_17h54.38.116,swahili,2020.2.4,MacIntel,60,,,,,,,,,,-0.286653646,0.002326389,1,0,1,0.35002,unsorted_card,12,0,12,0,1,,,,,,,,,,,,,,,,,,,,,,,,,,,,,,,,,,,,,,,,,,,,,,,,,,,,,,,,,,,,,,,,,,,,,,,,,,,,,,,,,
,,,,,,,,,,1584469,2020-10-24_17h54.38.116,swahili,2020.2.4,MacIntel,60,,,,,,,,,,-0.286653646,0.002326389,0,0,1,0.06538,unsorted_card,13,0,13,0,1,PLATE - SAHANI,,,,,,,,,,,,,,,,,,,,,,,,,,,,,,,,,,,,,,,,,,,,,,,,,,,,,,,,,,,,,,,,,,,,,,,,,,,,,,,,
,,,,,,,,,,1584469,2020-10-24_17h54.38.116,swahili,2020.2.4,MacIntel,60,,,,,,,,,,0.462288411,-0.435095486,1,0,1,0.467315,done_pile,14,0,14,0,1,PLATE - SAHANI,,,,,,,,,,,,,,,,,,,,,,,,,,,,,,,,,,,,,,,,,,,,,,,,,,,,,,,,,,,,,,,,,,,,,,,,,,,,,,,,
,,,,,,,,,,1584469,2020-10-24_17h54.38.116,swahili,2020.2.4,MacIntel,60,,,,,,,,,,0.462288411,-0.435095486,0,0,1,0.0984,done_pile,15,0,15,0,1,,,,,,,,,,,,,,,,,,,,,,,,,,,,,,,,,,,,,,,,,,,,,,,,,,,,,,,,,,,,,,,,,,,,,,,,,,,,,,,,,
,,,,,,,,,,1584469,2020-10-24_17h54.38.116,swahili,2020.2.4,MacIntel,60,,,,,,,,,,-0.308496094,0.121814236,1,0,1,0.29788,unsorted_card,16,0,16,0,1,,,,,,,,,,,,,,,,,,,,,,,,,,,,,,,,,,,,,,,,,,,,,,,,,,,,,,,,,,,,,,,,,,,,,,,,,,,,,,,,,
,,,,,,,,,,1584469,2020-10-24_17h54.38.116,swahili,2020.2.4,MacIntel,60,,,,,,,,,,-0.308496094,0.121814236,0,0,1,0.099355,unsorted_card,17,0,17,0,1,YEAST - HAMIRA,,,,,,,,,,,,,,,,,,,,,,,,,,,,,,,,,,,,,,,,,,,,,,,,,,,,,,,,,,,,,,,,,,,,,,,,,,,,,,,,
,,,,,,,,,,1584469,2020-10-24_17h54.38.116,swahili,2020.2.4,MacIntel,60,,,,,,,,,,0.504481337,-0.452178819,1,0,1,0.366415,done_pile,18,0,18,0,1,YEAST - HAMIRA,,,,,,,,,,,,,,,,,,,,,,,,,,,,,,,,,,,,,,,,,,,,,,,,,,,,,,,,,,,,,,,,,,,,,,,,,,,,,,,,
,,,,,,,,,,1584469,2020-10-24_17h54.38.116,swahili,2020.2.4,MacIntel,60,,,,,,,,,,0.496875,-0.452178819,0,0,1,0.119675,done_pile,19,0,19,0,1,,,,,,,,,,,,,,,,,,,,,,,,,,,,,,,,,,,,,,,,,,,,,,,,,,,,,,,,,,,,,,,,,,,,,,,,,,,,,,,,,
,,,,,,,,,,1584469,2020-10-24_17h54.38.116,swahili,2020.2.4,MacIntel,60,,,,,,,,,,-0.30914171,-0.011710069,1,0,1,0.26157,unsorted_card,20,0,20,0,1,,,,,,,,,,,,,,,,,,,,,,,,,,,,,,,,,,,,,,,,,,,,,,,,,,,,,,,,,,,,,,,,,,,,,,,,,,,,,,,,,
,,,,,,,,,,1584469,2020-10-24_17h54.38.116,swahili,2020.2.4,MacIntel,60,,,,,,,,,,-0.30914171,-0.011710069,0,0,1,0.082515,unsorted_card,21,0,21,0,1,BLAME - LAWAMA,,,,,,,,,,,,,,,,,,,,,,,,,,,,,,,,,,,,,,,,,,,,,,,,,,,,,,,,,,,,,,,,,,,,,,,,,,,,,,,,
,,,,,,,,,,1584469,2020-10-24_17h54.38.116,swahili,2020.2.4,MacIntel,60,,,,,,,,,,0.456987847,-0.450373264,1,0,1,0.383865,done_pile,22,0,22,0,1,BLAME - LAWAMA,,,,,,,,,,,,,,,,,,,,,,,,,,,,,,,,,,,,,,,,,,,,,,,,,,,,,,,,,,,,,,,,,,,,,,,,,,,,,,,,
,,,,,,,,,,1584469,2020-10-24_17h54.38.116,swahili,2020.2.4,MacIntel,60,,,,,,,,,,0.456987847,-0.450373264,0,0,1,0.07975,done_pile,23,0,23,0,1,,,,,,,,,,,,,,,,,,,,,,,,,,,,,,,,,,,,,,,,,,,,,,,,,,,,,,,,,,,,,,,,,,,,,,,,,,,,,,,,,
,,,,,,,,,,1584469,2020-10-24_17h54.38.116,swahili,2020.2.4,MacIntel,60,,,,,,,,,,-0.285709635,0.016111111,1,0,1,0.2996,unsorted_card,24,0,24,0,1,,,,,,,,,,,,,,,,,,,,,,,,,,,,,,,,,,,,,,,,,,,,,,,,,,,,,,,,,,,,,,,,,,,,,,,,,,,,,,,,,
,,,,,,,,,,1584469,2020-10-24_17h54.38.116,swahili,2020.2.4,MacIntel,60,,,,,,,,,,-0.285709635,0.016111111,0,0,1,0.082435,unsorted_card,25,0,25,0,1,OATH - YAMINI,,,,,,,,,,,,,,,,,,,,,,,,,,,,,,,,,,,,,,,,,,,,,,,,,,,,,,,,,,,,,,,,,,,,,,,,,,,,,,,,
,,,,,,,,,,1584469,2020-10-24_17h54.38.116,swahili,2020.2.4,MacIntel,60,,,,,,,,,,0.441780599,-0.565381944,1,0,1,0.401515,done_pile,26,0,26,0,1,OATH - YAMINI,,,,,,,,,,,,,,,,,,,,,,,,,,,,,,,,,,,,,,,,,,,,,,,,,,,,,,,,,,,,,,,,,,,,,,,,,,,,,,,,
,,,,,,,,,,1584469,2020-10-24_17h54.38.116,swahili,2020.2.4,MacIntel,60,,,,,,,,,,0.441780599,-0.565381944,0,0,1,0.11201,done_pile,27,0,27,0,1,,,,,,,,,,,,,,,,,,,,,,,,,,,,,,,,,,,,,,,,,,,,,,,,,,,,,,,,,,,,,,,,,,,,,,,,,,,,,,,,,
,,,,,,,,,,1584469,2020-10-24_17h54.38.116,swahili,2020.2.4,MacIntel,60,,,,,,,,,,-0.270274523,-0.003923611,1,0,1,0.283185,unsorted_card,28,0,28,0,1,,,,,,,,,,,,,,,,,,,,,,,,,,,,,,,,,,,,,,,,,,,,,,,,,,,,,,,,,,,,,,,,,,,,,,,,,,,,,,,,,
,,,,,,,,,,1584469,2020-10-24_17h54.38.116,swahili,2020.2.4,MacIntel,60,,,,,,,,,,-0.270274523,-0.003923611,0,0,1,0.081865,unsorted_card,29,0,29,0,1,CORN - NAFAKA,,,,,,,,,,,,,,,,,,,,,,,,,,,,,,,,,,,,,,,,,,,,,,,,,,,,,,,,,,,,,,,,,,,,,,,,,,,,,,,,
,,,,,,,,,,1584469,2020-10-24_17h54.38.116,swahili,2020.2.4,MacIntel,60,,,,,,,,,,0.445155165,-0.403463542,1,0,1,0.482955,done_pile,30,0,30,0,1,CORN - NAFAKA,,,,,,,,,,,,,,,,,,,,,,,,,,,,,,,,,,,,,,,,,,,,,,,,,,,,,,,,,,,,,,,,,,,,,,,,,,,,,,,,
,,,,,,,,,,1584469,2020-10-24_17h54.38.116,swahili,2020.2.4,MacIntel,60,,,,,,,,,,0.443467882,-0.401848958,0,0,1,0.09697,done_pile,31,0,31,0,1,,,,,,,,,,,,,,,,,,,,,,,,,,,,,,,,,,,,,,,,,,,,,,,,,,,,,,,,,,,,,,,,,,,,,,,,,,,,,,,,,
,,,,,,,,,,1584469,2020-10-24_17h54.38.116,swahili,2020.2.4,MacIntel,60,,,,,,,,,,-0.232958984,-0.010147569,1,0,1,0.2669,unsorted_card,32,0,32,0,1,,,,,,,,,,,,,,,,,,,,,,,,,,,,,,,,,,,,,,,,,,,,,,,,,,,,,,,,,,,,,,,,,,,,,,,,,,,,,,,,,
,,,,,,,,,,1584469,2020-10-24_17h54.38.116,swahili,2020.2.4,MacIntel,60,,,,,,,,,,-0.232958984,-0.010147569,0,0,1,0.082105,unsorted_card,33,0,33,0,1,POEM - UTENZI,,,,,,,,,,,,,,,,,,,,,,,,,,,,,,,,,,,,,,,,,,,,,,,,,,,,,,,,,,,,,,,,,,,,,,,,,,,,,,,,
,,,,,,,,,,1584469,2020-10-24_17h54.38.116,swahili,2020.2.4,MacIntel,60,,,,,,,,,,0.385405816,-0.415972222,1,0,1,0.37372,done_pile,34,0,34,0,1,POEM - UTENZI,,,,,,,,,,,,,,,,,,,,,,,,,,,,,,,,,,,,,,,,,,,,,,,,,,,,,,,,,,,,,,,,,,,,,,,,,,,,,,,,
,,,,,,,,,,1584469,2020-10-24_17h54.38.116,swahili,2020.2.4,MacIntel,60,,,,,,,,,,0.385405816,-0.415972222,0,0,1,0.11022,done_pile,35,0,35,0,1,,,,,,,,,,,,,,,,,,,,,,,,,,,,,,,,,,,,,,,,,,,,,,,,,,,,,,,,,,,,,,,,,,,,,,,,,,,,,,,,,
,,,,,,,,,,1584469,2020-10-24_17h54.38.116,swahili,2020.2.4,MacIntel,60,,,,,,,,,,-0.248074002,-0.015694444,1,0,1,0.28032,unsorted_card,36,0,36,0,1,,,,,,,,,,,,,,,,,,,,,,,,,,,,,,,,,,,,,,,,,,,,,,,,,,,,,,,,,,,,,,,,,,,,,,,,,,,,,,,,,
,,,,,,,,,,1584469,2020-10-24_17h54.38.116,swahili,2020.2.4,MacIntel,60,,,,,,,,,,-0.248074002,-0.015694444,0,0,1,0.0991,unsorted_card,37,0,37,0,1,TAILOR - MSHONI,,,,,,,,,,,,,,,,,,,,,,,,,,,,,,,,,,,,,,,,,,,,,,,,,,,,,,,,,,,,,,,,,,,,,,,,,,,,,,,,
,,,,,,,,,,1584469,2020-10-24_17h54.38.116,swahili,2020.2.4,MacIntel,60,,,,,,,,,,0.416395399,-0.595164931,1,0,1,0.40121,done_pile,38,0,38,0,1,TAILOR - MSHONI,,,,,,,,,,,,,,,,,,,,,,,,,,,,,,,,,,,,,,,,,,,,,,,,,,,,,,,,,,,,,,,,,,,,,,,,,,,,,,,,
,,,,,,,,,,1584469,2020-10-24_17h54.38.116,swahili,2020.2.4,MacIntel,60,,,,,,,,,,0.416395399,-0.595164931,0,0,1,0.097585,done_pile,39,0,39,0,1,,,,,,,,,,,,,,,,,,,,,,,,,,,,,,,,,,,,,,,,,,,,,,,,,,,,,,,,,,,,,,,,,,,,,,,,,,,,,,,,,
,,,,,,,,,,1584469,2020-10-24_17h54.38.116,swahili,2020.2.4,MacIntel,60,,,,,,,,,,-0.303586155,-0.001354167,1,0,1,0.267195,unsorted_card,40,0,40,0,1,,,,,,,,,,,,,,,,,,,,,,,,,,,,,,,,,,,,,,,,,,,,,,,,,,,,,,,,,,,,,,,,,,,,,,,,,,,,,,,,,
,,,,,,,,,,1584469,2020-10-24_17h54.38.116,swahili,2020.2.4,MacIntel,60,,,,,,,,,,-0.303586155,-0.001354167,0,0,1,0.082465,unsorted_card,41,0,41,0,1,CHEESE - JIBINI,,,,,,,,,,,,,,,,,,,,,,,,,,,,,,,,,,,,,,,,,,,,,,,,,,,,,,,,,,,,,,,,,,,,,,,,,,,,,,,,
,,,,,,,,,,1584469,2020-10-24_17h54.38.116,swahili,2020.2.4,MacIntel,60,,,,,,,,,,0.398963759,-0.487517361,1,0,1,0.348595,done_pile,42,0,42,0,1,CHEESE - JIBINI,,,,,,,,,,,,,,,,,,,,,,,,,,,,,,,,,,,,,,,,,,,,,,,,,,,,,,,,,,,,,,,,,,,,,,,,,,,,,,,,
,,,,,,,,,,1584469,2020-10-24_17h54.38.116,swahili,2020.2.4,MacIntel,60,,,,,,,,,,0.398963759,-0.487517361,0,0,1,0.116745,done_pile,43,0,43,0,1,,,,,,,,,,,,,,,,,,,,,,,,,,,,,,,,,,,,,,,,,,,,,,,,,,,,,,,,,,,,,,,,,,,,,,,,,,,,,,,,,
,,,,,,,,,,1584469,2020-10-24_17h54.38.116,swahili,2020.2.4,MacIntel,60,,,,,,,,,,-0.28656684,0.086414931,1,0,1,0.26583,unsorted_card,44,0,44,0,1,,,,,,,,,,,,,,,,,,,,,,,,,,,,,,,,,,,,,,,,,,,,,,,,,,,,,,,,,,,,,,,,,,,,,,,,,,,,,,,,,
,,,,,,,,,,1584469,2020-10-24_17h54.38.116,swahili,2020.2.4,MacIntel,60,,,,,,,,,,-0.28656684,0.086414931,0,0,1,0.10022,unsorted_card,45,0,45,0,1,GRAPES - ZABIBU,,,,,,,,,,,,,,,,,,,,,,,,,,,,,,,,,,,,,,,,,,,,,,,,,,,,,,,,,,,,,,,,,,,,,,,,,,,,,,,,
,,,,,,,,,,1584469,2020-10-24_17h54.38.116,swahili,2020.2.4,MacIntel,60,,,,,,,,,,0.342648655,-0.513758681,1,0,1,0.39691,done_pile,46,0,46,0,1,GRAPES - ZABIBU,,,,,,,,,,,,,,,,,,,,,,,,,,,,,,,,,,,,,,,,,,,,,,,,,,,,,,,,,,,,,,,,,,,,,,,,,,,,,,,,
,,,,,,,,,,1584469,2020-10-24_17h54.38.116,swahili,2020.2.4,MacIntel,60,,,,,,,,,,0.333002387,-0.513758681,0,0,1,0.133905,done_pile,47,0,47,0,1,,,,,,,,,,,,,,,,,,,,,,,,,,,,,,,,,,,,,,,,,,,,,,,,,,,,,,,,,,,,,,,,,,,,,,,,,,,,,,,,,
,,,,,,,,,,1584469,2020-10-24_17h54.38.116,swahili,2020.2.4,MacIntel,60,,,,,,,,,,-0.159331597,-0.173697917,1,0,1,0.249375,unsorted_card,48,0,48,0,1,,,,,,,,,,,,,,,,,,,,,,,,,,,,,,,,,,,,,,,,,,,,,,,,,,,,,,,,,,,,,,,,,,,,,,,,,,,,,,,,,
,,,,,,,,,,1584469,2020-10-24_17h54.38.116,swahili,2020.2.4,MacIntel,60,,,,,,,,,,-0.159331597,-0.173697917,0,0,1,0.114705,unsorted_card,49,0,49,0,1,GRAVE - KABURI,,,,,,,,,,,,,,,,,,,,,,,,,,,,,,,,,,,,,,,,,,,,,,,,,,,,,,,,,,,,,,,,,,,,,,,,,,,,,,,,
,,,,,,,,,,1584469,2020-10-24_17h54.38.116,swahili,2020.2.4,MacIntel,60,,,,,,,,,,0.446777344,-0.590364583,1,0,1,0.53526,done_pile,50,0,50,0,1,GRAVE - KABURI,,,,,,,,,,,,,,,,,,,,,,,,,,,,,,,,,,,,,,,,,,,,,,,,,,,,,,,,,,,,,,,,,,,,,,,,,,,,,,,,
,,,,,,,,,,1584469,2020-10-24_17h54.38.116,swahili,2020.2.4,MacIntel,60,,,,,,,,,,0.397515191,-0.560685764,0,0,1,0.13052,done_pile,51,0,51,0,1,,,,,,,,,,,,,,,,,,,,,,,,,,,,,,,,,,,,,,,,,,,,,,,,,,,,,,,,,,,,,,,,,,,,,,,,,,,,,,,,,
,,,,,,,,,,1584469,2020-10-24_17h54.38.116,swahili,2020.2.4,MacIntel,60,,,,,,,,,,-0.180750868,0.014331597,1,0,1,0.265095,unsorted_card,52,0,52,0,1,,,,,,,,,,,,,,,,,,,,,,,,,,,,,,,,,,,,,,,,,,,,,,,,,,,,,,,,,,,,,,,,,,,,,,,,,,,,,,,,,
,,,,,,,,,,1584469,2020-10-24_17h54.38.116,swahili,2020.2.4,MacIntel,60,,,,,,,,,,-0.180750868,0.014331597,0,0,1,0.083315,unsorted_card,53,0,53,0,1,MANURE - SAMADI,,,,,,,,,,,,,,,,,,,,,,,,,,,,,,,,,,,,,,,,,,,,,,,,,,,,,,,,,,,,,,,,,,,,,,,,,,,,,,,,
,,,,,,,,,,1584469,2020-10-24_17h54.38.116,swahili,2020.2.4,MacIntel,60,,,,,,,,,,0.37328559,-0.509730903,1,0,1,0.380375,done_pile,54,0,54,0,1,MANURE - SAMADI,,,,,,,,,,,,,,,,,,,,,,,,,,,,,,,,,,,,,,,,,,,,,,,,,,,,,,,,,,,,,,,,,,,,,,,,,,,,,,,,
,,,,,,,,,,1584469,2020-10-24_17h54.38.116,swahili,2020.2.4,MacIntel,60,,,,,,,,,,0.37328559,-0.509730903,0,0,1,0.0997,done_pile,55,0,55,0,1,,,,,,,,,,,,,,,,,,,,,,,,,,,,,,,,,,,,,,,,,,,,,,,,,,,,,,,,,,,,,,,,,,,,,,,,,,,,,,,,,
,,,,,,,,,,1584469,2020-10-24_17h54.38.116,swahili,2020.2.4,MacIntel,60,,,,,,,,,,-0.221381293,0.041189236,1,0,1,0.28368,unsorted_card,56,0,56,0,1,,,,,,,,,,,,,,,,,,,,,,,,,,,,,,,,,,,,,,,,,,,,,,,,,,,,,,,,,,,,,,,,,,,,,,,,,,,,,,,,,
,,,,,,,,,,1584469,2020-10-24_17h54.38.116,swahili,2020.2.4,MacIntel,60,,,,,,,,,,-0.221381293,0.041189236,0,0,1,0.09736,unsorted_card,57,0,57,0,1,AGENT - WAKILI,,,,,,,,,,,,,,,,,,,,,,,,,,,,,,,,,,,,,,,,,,,,,,,,,,,,,,,,,,,,,,,,,,,,,,,,,,,,,,,,
,,,,,,,,,,1584469,2020-10-24_17h54.38.116,swahili,2020.2.4,MacIntel,60,,,,,,,,,,0.370068359,-0.425685764,1,0,1,0.44856,done_pile,58,0,58,0,1,AGENT - WAKILI,,,,,,,,,,,,,,,,,,,,,,,,,,,,,,,,,,,,,,,,,,,,,,,,,,,,,,,,,,,,,,,,,,,,,,,,,,,,,,,,
,,,,,,,,,,1584469,2020-10-24_17h54.38.116,swahili,2020.2.4,MacIntel,60,,,,,,,,,,0.370068359,-0.425685764,0,0,1,0.081675,done_pile,59,0,59,0,1,,,,,,,,,,,,,,,,,,,,,,,,,,,,,,,,,,,,,,,,,,,,,,,,,,,,,,,,,,,,,,,,,,,,,,,,,,,,,,,,,
,,,,,,,,,,1584469,2020-10-24_17h54.38.116,swahili,2020.2.4,MacIntel,60,,,,,,,,,,-0.094862196,-0.202178819,1,0,1,0.53584,unsorted_card,60,0,60,0,1,,,,,,,,,,,,,,,,,,,,,,,,,,,,,,,,,,,,,,,,,,,,,,,,,,,,,,,,,,,,,,,,,,,,,,,,,,,,,,,,,
,,,,,,,,,,1584469,2020-10-24_17h54.38.116,swahili,2020.2.4,MacIntel,60,,,,,,,,,,-0.121419271,-0.195034722,0,0,1,0.08184,unsorted_card,61,0,61,0,1,BRIBE - RUSHWA,,,,,,,,,,,,,,,,,,,,,,,,,,,,,,,,,,,,,,,,,,,,,,,,,,,,,,,,,,,,,,,,,,,,,,,,,,,,,,,,
,,,,,,,,,,1584469,2020-10-24_17h54.38.116,swahili,2020.2.4,MacIntel,60,,,,,,,,,,0.4558648,-0.468559028,1,0,1,0.420005,done_pile,62,0,62,0,1,BRIBE - RUSHWA,,,,,,,,,,,,,,,,,,,,,,,,,,,,,,,,,,,,,,,,,,,,,,,,,,,,,,,,,,,,,,,,,,,,,,,,,,,,,,,,
,,,,,,,,,,1584469,2020-10-24_17h54.38.116,swahili,2020.2.4,MacIntel,60,,,,,,,,,,0.387575955,-0.459027778,0,0,1,0.07982,done_pile,63,0,63,0,1,,,,,,,,,,,,,,,,,,,,,,,,,,,,,,,,,,,,,,,,,,,,,,,,,,,,,,,,,,,,,,,,,,,,,,,,,,,,,,,,,
,,,,,,,,,,1584469,2020-10-24_17h54.38.116,swahili,2020.2.4,MacIntel,60,,,,,,,,,,-0.200488281,0.041423611,1,0,1,0.23274,unsorted_card,64,0,64,0,1,,,,,,,,,,,,,,,,,,,,,,,,,,,,,,,,,,,,,,,,,,,,,,,,,,,,,,,,,,,,,,,,,,,,,,,,,,,,,,,,,
,,,,,,,,,,1584469,2020-10-24_17h54.38.116,swahili,2020.2.4,MacIntel,60,,,,,,,,,,-0.200488281,0.041423611,0,0,1,0.097265,unsorted_card,65,0,65,0,1,ORPHAN - YATIMA,,,,,,,,,,,,,,,,,,,,,,,,,,,,,,,,,,,,,,,,,,,,,,,,,,,,,,,,,,,,,,,,,,,,,,,,,,,,,,,,
,,,,,,,,,,1584469,2020-10-24_17h54.38.116,swahili,2020.2.4,MacIntel,60,,,,,,,,,,0.398958333,-0.406328125,1,0,1,0.416025,done_pile,66,0,66,0,1,ORPHAN - YATIMA,,,,,,,,,,,,,,,,,,,,,,,,,,,,,,,,,,,,,,,,,,,,,,,,,,,,,,,,,,,,,,,,,,,,,,,,,,,,,,,,
,,,,,,,,,,1584469,2020-10-24_17h54.38.116,swahili,2020.2.4,MacIntel,60,,,,,,,,,,0.383539497,-0.389565972,0,0,1,0.0824,done_pile,67,0,67,0,1,,,,,,,,,,,,,,,,,,,,,,,,,,,,,,,,,,,,,,,,,,,,,,,,,,,,,,,,,,,,,,,,,,,,,,,,,,,,,,,,,
,,,,,,,,,,1584469,2020-10-24_17h54.38.116,swahili,2020.2.4,MacIntel,60,,,,,,,,,,-0.264556207,0.085052083,1,0,1,0.666625,unsorted_card,68,0,68,0,1,,,,,,,,,,,,,,,,,,,,,,,,,,,,,,,,,,,,,,,,,,,,,,,,,,,,,,,,,,,,,,,,,,,,,,,,,,,,,,,,,
,,,,,,,,,,1584469,2020-10-24_17h54.38.116,swahili,2020.2.4,MacIntel,60,,,,,,,,,,-0.264556207,0.085052083,0,0,1,0.082115,unsorted_card,69,0,69,0,1,DIVORCE - TALAKA,,,,,,,,,,,,,,,,,,,,,,,,,,,,,,,,,,,,,,,,,,,,,,,,,,,,,,,,,,,,,,,,,,,,,,,,,,,,,,,,
,,,,,,,,,,1584469,2020-10-24_17h54.38.116,swahili,2020.2.4,MacIntel,60,,,,,,,,,,0.557237413,-0.608203125,1,0,1,0.514365,done_pile,70,0,70,0,1,DIVORCE - TALAKA,,,,,,,,,,,,,,,,,,,,,,,,,,,,,,,,,,,,,,,,,,,,,,,,,,,,,,,,,,,,,,,,,,,,,,,,,,,,,,,,
,,,,,,,,,,1584469,2020-10-24_17h54.38.116,swahili,2020.2.4,MacIntel,60,,,,,,,,,,0.557237413,-0.608203125,0,0,1,0.06532,done_pile,71,0,71,0,1,,,,,,,,,,,,,,,,,,,,,,,,,,,,,,,,,,,,,,,,,,,,,,,,,,,,,,,,,,,,,,,,,,,,,,,,,,,,,,,,,
,,,,,,,,,,1584469,2020-10-24_17h54.38.116,swahili,2020.2.4,MacIntel,60,,,,,,,,,,-0.324240451,-0.018585069,1,0,1,0.450275,unsorted_card,72,0,72,0,1,,,,,,,,,,,,,,,,,,,,,,,,,,,,,,,,,,,,,,,,,,,,,,,,,,,,,,,,,,,,,,,,,,,,,,,,,,,,,,,,,
,,,,,,,,,,1584469,2020-10-24_17h54.38.116,swahili,2020.2.4,MacIntel,60,,,,,,,,,,-0.324240451,-0.018585069,0,0,1,0.04834,unsorted_card,73,0,73,0,1,BOAT - MASHUA,,,,,,,,,,,,,,,,,,,,,,,,,,,,,,,,,,,,,,,,,,,,,,,,,,,,,,,,,,,,,,,,,,,,,,,,,,,,,,,,
,,,,,,,,,,1584469,2020-10-24_17h54.38.116,swahili,2020.2.4,MacIntel,60,,,,,,,,,,0.402045356,-0.429071181,1,0,1,0.467285,done_pile,74,0,74,0,1,BOAT - MASHUA,,,,,,,,,,,,,,,,,,,,,,,,,,,,,,,,,,,,,,,,,,,,,,,,,,,,,,,,,,,,,,,,,,,,,,,,,,,,,,,,
,,,,,,,,,,1584469,2020-10-24_17h54.38.116,swahili,2020.2.4,MacIntel,60,,,,,,,,,,0.402045356,-0.429071181,0,0,1,0.065095,done_pile,75,0,75,0,1,,,,,,,,,,,,,,,,,,,,,,,,,,,,,,,,,,,,,,,,,,,,,,,,,,,,,,,,,,,,,,,,,,,,,,,,,,,,,,,,,
,,,,,,,,,,1584469,2020-10-24_17h54.38.116,swahili,2020.2.4,MacIntel,60,,,,,,,,,,-0.332590061,-0.010520833,1,0,1,0.282585,unsorted_card,76,0,76,0,1,,,,,,,,,,,,,,,,,,,,,,,,,,,,,,,,,,,,,,,,,,,,,,,,,,,,,,,,,,,,,,,,,,,,,,,,,,,,,,,,,
,,,,,,,,,,1584469,2020-10-24_17h54.38.116,swahili,2020.2.4,MacIntel,60,,,,,,,,,,-0.332590061,-0.010520833,0,0,1,0.06551,unsorted_card,77,0,77,0,1,TREASURE - DAFINA,,,,,,,,,,,,,,,,,,,,,,,,,,,,,,,,,,,,,,,,,,,,,,,,,,,,,,,,,,,,,,,,,,,,,,,,,,,,,,,,
,,,,,,,,,,1584469,2020-10-24_17h54.38.116,swahili,2020.2.4,MacIntel,60,,,,,,,,,,0.363346354,-0.483550347,1,0,1,0.600535,done_pile,78,0,78,0,1,TREASURE - DAFINA,,,,,,,,,,,,,,,,,,,,,,,,,,,,,,,,,,,,,,,,,,,,,,,,,,,,,,,,,,,,,,,,,,,,,,,,,,,,,,,,
,,,,,,,,,,1584469,2020-10-24_17h54.38.116,swahili,2020.2.4,MacIntel,60,,,,,,,,,,,,,,,,,,,,,,,,,,,,,,,,,,,,,,,,0,0,0,0,1,,,,,,,,,,,,,,,,,,,,,,,,,,,,,,,,,,,,,,,,,,,,,,,,,,,,,,,,,,
,,,,,,,,,,1584469,2020-10-24_17h54.38.116,swahili,2020.2.4,MacIntel,60,,,,,,,,,,,,,,,,,,,,,,,,,,,,,,,,,,,,,,,,1,0,1,0,1,,,,,,,,,,,,,,,,,,,,,,,,,,,,,,,,,,,,,,,,,,,,,,,,,,,,,,,,,,
,,,,,,,,,,1584469,2020-10-24_17h54.38.116,swahili,2020.2.4,MacIntel,60,,,,,,,,MASHUA,BOAT,,,,,,,,,,,,,,,,,,,,,,,,,,,,,,,,,,,,,,,,,,3.65644,,,,,,,,,MASHOA,incorrect,,,,,,return,5.976615,return,3.154565,return,3.31404,0,0,0,18,1,,,,,,,,,,,,,,,,,,,,,,,,,
,,,,,,,,,,1584469,2020-10-24_17h54.38.116,swahili,2020.2.4,MacIntel,60,,,,,,,,SAMADI,MANURE,,,,,,,,,,,,,,,,,,,,,,,,,,,,,,,,,,,,,,,,,,8.25128,,,,,,,,,F,incorrect,,,,,,,,,,,,0,1,1,13,1,,,,,,,,,,,,,,,,,,,,,,,,,
,,,,,,,,,,1584469,2020-10-24_17h54.38.116,swahili,2020.2.4,MacIntel,60,,,,,,,,SAHANI,PLATE,,,,,,,,,,,,,,,,,,,,,,,,,,,,,,,,,,,,,,,,,,3.86168,,,,,,,,,F,incorrect,,,,,,,,,,,,0,2,2,3,1,,,,,,,,,,,,,,,,,,,,,,,,,
,,,,,,,,,,1584469,2020-10-24_17h54.38.116,swahili,2020.2.4,MacIntel,60,,,,,,,,TALAKA,DIVORCE,,,,,,,,,,,,,,,,,,,,,,,,,,,,,,,,,,,,,,,,,,1.254095,,,,,,,,,F,incorrect,,,,,,,,,,,,0,3,3,17,1,,,,,,,,,,,,,,,,,,,,,,,,,
,,,,,,,,,,1584469,2020-10-24_17h54.38.116,swahili,2020.2.4,MacIntel,60,,,,,,,,KABURI,GRAVE,,,,,,,,,,,,,,,,,,,,,,,,,,,,,,,,,,,,,,,,,,5.96182,,,,,,,,,OSHAO,incorrect,,,,,,,,,,,,0,4,4,12,1,,,,,,,,,,,,,,,,,,,,,,,,,
,,,,,,,,,,1584469,2020-10-24_17h54.38.116,swahili,2020.2.4,MacIntel,60,,,,,,,,FAHILI,BULL,,,,,,,,,,,,,,,,,,,,,,,,,,,,,,,,,,,,,,,,,,6.914,,,,,,,,,FRENDS,incorrect,,,,,,,,,,,,0,5,5,2,1,,,,,,,,,,,,,,,,,,,,,,,,,
,,,,,,,,,,1584469,2020-10-24_17h54.38.116,swahili,2020.2.4,MacIntel,60,,,,,,,,DAFINA,TREASURE,,,,,,,,,,,,,,,,,,,,,,,,,,,,,,,,,,,,,,,,,,6.985855,,,,,,,,,SWAHILI,incorrect,,,,,,,,,,,,0,6,6,19,1,,,,,,,,,,,,,,,,,,,,,,,,,
,,,,,,,,,,1584469,2020-10-24_17h54.38.116,swahili,2020.2.4,MacIntel,60,,,,,,,,JIBINI,CHEESE,,,,,,,,,,,,,,,,,,,,,,,,,,,,,,,,,,,,,,,,,,2.89788,,,,,,,,,JIBINI,correct,,,,,,,,,,,,0,7,7,10,1,,,,,,,,,,,,,,,,,,,,,,,,,
,,,,,,,,,,1584469,2020-10-24_17h54.38.116,swahili,2020.2.4,MacIntel,60,,,,,,,,NAFAKA,CORN,,,,,,,,,,,,,,,,,,,,,,,,,,,,,,,,,,,,,,,,,,9.91159,,,,,,,,,NAFAKA,correct,,,,,,,,,,,,0,8,8,7,1,,,,,,,,,,,,,,,,,,,,,,,,,
,,,,,,,,,,1584469,2020-10-24_17h54.38.116,swahili,2020.2.4,MacIntel,60,,,,,,,,UTENZI,POEM,,,,,,,,,,,,,,,,,,,,,,,,,,,,,,,,,,,,,,,,,,2.86682,,,,,,,,,UTENZI,correct,,,,,,,,,,,,0,9,9,8,1,,,,,,,,,,,,,,,,,,,,,,,,,
,,,,,,,,,,1584469,2020-10-24_17h54.38.116,swahili,2020.2.4,MacIntel,60,,,,,,,,HAMIRA,YEAST,,,,,,,,,,,,,,,,,,,,,,,,,,,,,,,,,,,,,,,,,,5.165415,,,,,,,,,NATURA,incorrect,,,,,,,,,,,,0,10,10,4,1,,,,,,,,,,,,,,,,,,,,,,,,,
,,,,,,,,,,1584469,2020-10-24_17h54.38.116,swahili,2020.2.4,MacIntel,60,,,,,,,,MSHONI,TAILOR,,,,,,,,,,,,,,,,,,,,,,,,,,,,,,,,,,,,,,,,,,3.131685,,,,,,,,,MBTINI,incorrect,,,,,,,,,,,,0,11,11,9,1,,,,,,,,,,,,,,,,,,,,,,,,,
,,,,,,,,,,1584469,2020-10-24_17h54.38.116,swahili,2020.2.4,MacIntel,60,,,,,,,,ZABIBU,GRAPES,,,,,,,,,,,,,,,,,,,,,,,,,,,,,,,,,,,,,,,,,,4.965135,,,,,,,,,TRUFKIN,incorrect,,,,,,,,,,,,0,12,12,11,1,,,,,,,,,,,,,,,,,,,,,,,,,
,,,,,,,,,,1584469,2020-10-24_17h54.38.116,swahili,2020.2.4,MacIntel,60,,,,,,,,YAMINI,OATH,,,,,,,,,,,,,,,,,,,,,,,,,,,,,,,,,,,,,,,,,,3.93332,,,,,,,,,DROVE,incorrect,,,,,,,,,,,,0,13,13,6,1,,,,,,,,,,,,,,,,,,,,,,,,,
,,,,,,,,,,1584469,2020-10-24_17h54.38.116,swahili,2020.2.4,MacIntel,60,,,,,,,,YATIMA,ORPHAN,,,,,,,,,,,,,,,,,,,,,,,,,,,,,,,,,,,,,,,,,,3.352645,,,,,,,,,YATIMA,correct,,,,,,,,,,,,0,14,14,16,1,,,,,,,,,,,,,,,,,,,,,,,,,
,,,,,,,,,,1584469,2020-10-24_17h54.38.116,swahili,2020.2.4,MacIntel,60,,,,,,,,TAJIRI,MERCHANT,,,,,,,,,,,,,,,,,,,,,,,,,,,,,,,,,,,,,,,,,,2.66106,,,,,,,,,FRIGT,incorrect,,,,,,,,,,,,0,15,15,0,1,,,,,,,,,,,,,,,,,,,,,,,,,
,,,,,,,,,,1584469,2020-10-24_17h54.38.116,swahili,2020.2.4,MacIntel,60,,,,,,,,LAWAMA,BLAME,,,,,,,,,,,,,,,,,,,,,,,,,,,,,,,,,,,,,,,,,,5.63258,,,,,,,,,CLOTH,incorrect,,,,,,,,,,,,0,16,16,5,1,,,,,,,,,,,,,,,,,,,,,,,,,
,,,,,,,,,,1584469,2020-10-24_17h54.38.116,swahili,2020.2.4,MacIntel,60,,,,,,,,RUSHWA,BRIBE,,,,,,,,,,,,,,,,,,,,,,,,,,,,,,,,,,,,,,,,,,6.381225,,,,,,,,,UTLILI,incorrect,,,,,,,,,,,,0,17,17,15,1,,,,,,,,,,,,,,,,,,,,,,,,,
,,,,,,,,,,1584469,2020-10-24_17h54.38.116,swahili,2020.2.4,MacIntel,60,,,,,,,,KASUKU,PARROT,,,,,,,,,,,,,,,,,,,,,,,,,,,,,,,,,,,,,,,,,,2.949175,,,,,,,,,KASUKU,correct,,,,,,,,,,,,0,18,18,1,1,,,,,,,,,,,,,,,,,,,,,,,,,
,,,,,,,,,,1584469,2020-10-24_17h54.38.116,swahili,2020.2.4,MacIntel,60,,,,,,,,WAKILI,AGENT,,,,,,,,,,,,,,,,,,,,,,,,,,,,,,,,,,,,,,,,,,30.780725,,,,,,,,,FUKINI,incorrect,,,,,,,,,,,,0,19,19,14,1,,,,,,,,,,,,,,,,,,,,,,,,,
,,,,,,,,,,1584469,2020-10-24_17h54.38.116,swahili,2020.2.4,MacIntel,60,,,,,,,,,,,,,,,,,,,,,,,,,,,,,,,,,,,,,,,,,,,,,,,,,,,,,,,,,,,,,,,,,,,,,,,,,,,,,,0,0,0,0,1,I bought all my goods from the ____ at the market. ,TAJIRI,,,,,,,,,,,,,,,,,,
,,,,,,,,,,1584469,2020-10-24_17h54.38.116,swahili,2020.2.4,MacIntel,60,,,,,,,,,,,,,,,,,,,,,,,,,,,,,,,,,,,,,,,,,,,,,,,,,,,,,,,,,,,,,,,,,,,,,,,,,,,,,,0,1,1,1,1,The ____ is a bird that can learn to repeat words.,KASUKU,,,,,,,,,,,,,,,,,,
,,,,,,,,,,1584469,2020-10-24_17h54.38.116,swahili,2020.2.4,MacIntel,60,,,,,,,,,,,,,,,,,,,,,,,,,,,,,,,,,,,,,,,,,,,,,,,,,,,,,,,,,,,,,,,,,,,,,,,,,,,,,,0,2,2,2,1,The ____ charged the matador's red cape. ,FAHILI,,,,,,,,,,,,,,,,,,
,,,,,,,,,,1584469,2020-10-24_17h54.38.116,swahili,2020.2.4,MacIntel,60,,,,,,,,,,,,,,,,,,,,,,,,,,,,,,,,,,,,,,,,,,,,,,,,,,,,,,,,,,,,,,,,,,,,,,,,,,,,,,0,3,3,3,1,I filled my ____ with food at the buffet. ,SAHANI,,,,,,,,,,,,,,,,,,
,,,,,,,,,,1584469,2020-10-24_17h54.38.116,swahili,2020.2.4,MacIntel,60,,,,,,,,,,,,,,,,,,,,,,,,,,,,,,,,,,,,,,,,,,,,,,,,,,,,,,,,,,,,,,,,,,,,,,,,,,,,,,0,4,4,4,1,_____ makes bread rise. ,HAMIRA,,,,,,,,,,,,,,,,,,
,,,,,,,,,,1584469,2020-10-24_17h54.38.116,swahili,2020.2.4,MacIntel,60,,,,,,,,,,,,,,,,,,,,,,,,,,,,,,,,,,,,,,,,,,,,,,,,,,,,,,,,,,,,,,,,,,,,,,,,,,,,,,0,5,5,5,1,Shannon had no one else to  ____ for what happened.,LAWAMA,,,,,,,,,,,,,,,,,,
,,,,,,,,,,1584469,2020-10-24_17h54.38.116,swahili,2020.2.4,MacIntel,60,,,,,,,,,,,,,,,,,,,,,,,,,,,,,,,,,,,,,,,,,,,,,,,,,,,,,,,,,,,,,,,,,,,,,,,,,,,,,,0,6,6,6,1,The president takes the  ____ of office to uphold the Constitution.,YAMINI,,,,,,,,,,,,,,,,,,
,,,,,,,,,,1584469,2020-10-24_17h54.38.116,swahili,2020.2.4,MacIntel,60,,,,,,,,,,,,,,,,,,,,,,,,,,,,,,,,,,,,,,,,,,,,,,,,,,,,,,,,,,,,,,,,,,,,,,,,,,,,,,0,7,7,7,1,Kate doesn't like ____ on the cob because it gets stuck between her teeth. ,NAFAKA,,,,,,,,,,,,,,,,,,
,,,,,,,,,,1584469,2020-10-24_17h54.38.116,swahili,2020.2.4,MacIntel,60,,,,,,,,,,,,,,,,,,,,,,,,,,,,,,,,,,,,,,,,,,,,,,,,,,,,,,,,,,,,,,,,,,,,,,,,,,,,,,0,8,8,8,1,David wrote Cynthia a romantic ____  but she thought it rhymed too much.,UTENZI,,,,,,,,,,,,,,,,,,
,,,,,,,,,,1584469,2020-10-24_17h54.38.116,swahili,2020.2.4,MacIntel,60,,,,,,,,,,,,,,,,,,,,,,,,,,,,,,,,,,,,,,,,,,,,,,,,,,,,,,,,,,,,,,,,,,,,,,,,,,,,,,0,9,9,9,1,Charles went to the ____ to get his suit adjusted. ,MSHONI,,,,,,,,,,,,,,,,,,
,,,,,,,,,,1584469,2020-10-24_17h54.38.116,swahili,2020.2.4,MacIntel,60,,,,,,,,,,,,,,,,,,,,,,,,,,,,,,,,,,,,,,,,,,,,,,,,,,,,,,,,,,,,,,,,,,,,,,,,,,,,,,0,10,10,10,1,Amy cooked a grilled ____ sandwich to go with her tomato soup.,JIBINI,,,,,,,,,,,,,,,,,,
,,,,,,,,,,1584469,2020-10-24_17h54.38.116,swahili,2020.2.4,MacIntel,60,,,,,,,,,,,,,,,,,,,,,,,,,,,,,,,,,,,,,,,,,,,,,,,,,,,,,,,,,,,,,,,,,,,,,,,,,,,,,,0,11,11,11,1,Fermented _______ are used to make wine.,ZABIBU,,,,,,,,,,,,,,,,,,
,,,,,,,,,,1584469,2020-10-24_17h54.38.116,swahili,2020.2.4,MacIntel,60,,,,,,,,,,,,,,,,,,,,,,,,,,,,,,,,,,,,,,,,,,,,,,,,,,,,,,,,,,,,,,,,,,,,,,,,,,,,,,0,12,12,12,1,She visited her father's ___ on the anniversary of his death. ,KABURI,,,,,,,,,,,,,,,,,,
,,,,,,,,,,1584469,2020-10-24_17h54.38.116,swahili,2020.2.4,MacIntel,60,,,,,,,,,,,,,,,,,,,,,,,,,,,,,,,,,,,,,,,,,,,,,,,,,,,,,,,,,,,,,,,,,,,,,,,,,,,,,,0,13,13,13,1,"On a farm, there is a good chance you will step into a pile of ______.",SAMADI,,,,,,,,,,,,,,,,,,
,,,,,,,,,,1584469,2020-10-24_17h54.38.116,swahili,2020.2.4,MacIntel,60,,,,,,,,,,,,,,,,,,,,,,,,,,,,,,,,,,,,,,,,,,,,,,,,,,,,,,,,,,,,,,,,,,,,,,,,,,,,,,0,14,14,14,1,"To buy a house, you may need to speak with a real estate ______.",WAKILI,,,,,,,,,,,,,,,,,,
,,,,,,,,,,1584469,2020-10-24_17h54.38.116,swahili,2020.2.4,MacIntel,60,,,,,,,,,,,,,,,,,,,,,,,,,,,,,,,,,,,,,,,,,,,,,,,,,,,,,,,,,,,,,,,,,,,,,,,,,,,,,,0,15,15,15,1,The politician was arrested for taking a _____.,RUSHWA,,,,,,,,,,,,,,,,,,
,,,,,,,,,,1584469,2020-10-24_17h54.38.116,swahili,2020.2.4,MacIntel,60,,,,,,,,,,,,,,,,,,,,,,,,,,,,,,,,,,,,,,,,,,,,,,,,,,,,,,,,,,,,,,,,,,,,,,,,,,,,,,0,16,16,16,1,The _____ is living with foster parents.,YATIMA,,,,,,,,,,,,,,,,,,
,,,,,,,,,,1584469,2020-10-24_17h54.38.116,swahili,2020.2.4,MacIntel,60,,,,,,,,,,,,,,,,,,,,,,,,,,,,,,,,,,,,,,,,,,,,,,,,,,,,,,,,,,,,,,,,,,,,,,,,,,,,,,0,17,17,17,1,My aunt and uncle got a _________ after two years of marriage.,TALAKA,,,,,,,,,,,,,,,,,,
,,,,,,,,,,1584469,2020-10-24_17h54.38.116,swahili,2020.2.4,MacIntel,60,,,,,,,,,,,,,,,,,,,,,,,,,,,,,,,,,,,,,,,,,,,,,,,,,,,,,,,,,,,,,,,,,,,,,,,,,,,,,,0,18,18,18,1,You need a ______ to go fishing in the middle of a lake.,MASHUA,,,,,,,,,,,,,,,,,,
,,,,,,,,,,1584469,2020-10-24_17h54.38.116,swahili,2020.2.4,MacIntel,60,,,,,,,,,,,,,,,,,,,,,,,,,,,,,,,,,,,,,,,,,,,,,,,,,,,,,,,,,,,,,,,,,,,,,,,,,,,,,,0,19,19,19,1,Pirates looked for buried _________ at the bottom of the sea.,DAFINA,,,,,,,,,,,,,,,,,,
,,,,,,,,,,1584469,2020-10-24_17h54.38.116,swahili,2020.2.4,MacIntel,60,,,,,,,,,,,,,,,,,,,,,,,,,,,,,,,,,,,,,,,,,,,,,,,,,,,,,,,,,,,,,,,,,,,,,,,,,,,,,,,,,,,She visited her father's ___ on the anniversary of his death. ,KABURI,return,1.623845,KABURI,correct,-0.08219401,-0.556588542,1,0,1,5.678985,b,0,0,0,12,1,,
,,,,,,,,,,1584469,2020-10-24_17h54.38.116,swahili,2020.2.4,MacIntel,60,,,,,,,,,,,,,,,,,,,,,,,,,,,,,,,,,,,,,,,,,,,,,,,,,,,,,,,,,,,,,,,,,,,,,,,,,,,,,,,,,,,Pirates looked for buried _________ at the bottom of the sea.,DAFINA,,,TAJIRI,incorrect,-0.08219401,-0.556588542,0,0,1,0.092015,b,0,1,1,19,1,,
,,,,,,,,,,1584469,2020-10-24_17h54.38.116,swahili,2020.2.4,MacIntel,60,,,,,,,,,,,,,,,,,,,,,,,,,,,,,,,,,,,,,,,,,,,,,,,,,,,,,,,,,,,,,,,,,,,,,,,,,,,,,,,,,,,I filled my ____ with food at the buffet. ,SAHANI,,,SAHANI,correct,-0.430050998,-0.531362847,1,0,1,4.730685,a,0,2,2,3,1,,
,,,,,,,,,,1584469,2020-10-24_17h54.38.116,swahili,2020.2.4,MacIntel,60,,,,,,,,,,,,,,,,,,,,,,,,,,,,,,,,,,,,,,,,,,,,,,,,,,,,,,,,,,,,,,,,,,,,,,,,,,,,,,,,,,,David wrote Cynthia a romantic ____  but she thought it rhymed too much.,UTENZI,,,WAKILI,incorrect,-0.430050998,-0.531362847,0,0,1,0.07504,a,0,3,3,8,1,,
,,,,,,,,,,1584469,2020-10-24_17h54.38.116,swahili,2020.2.4,MacIntel,60,,,,,,,,,,,,,,,,,,,,,,,,,,,,,,,,,,,,,,,,,,,,,,,,,,,,,,,,,,,,,,,,,,,,,,,,,,,,,,,,,,,The ____ charged the matador's red cape. ,FAHILI,,,SAMADI,incorrect,0.38430447,-0.510546875,1,0,1,5.72779,c,0,4,4,2,1,,
,,,,,,,,,,1584469,2020-10-24_17h54.38.116,swahili,2020.2.4,MacIntel,60,,,,,,,,,,,,,,,,,,,,,,,,,,,,,,,,,,,,,,,,,,,,,,,,,,,,,,,,,,,,,,,,,,,,,,,,,,,,,,,,,,,"On a farm, there is a good chance you will step into a pile of ______.",SAMADI,,,LAWAMA,incorrect,0.38430447,-0.510546875,0,0,1,0.077125,c,0,5,5,13,1,,
,,,,,,,,,,1584469,2020-10-24_17h54.38.116,swahili,2020.2.4,MacIntel,60,,,,,,,,,,,,,,,,,,,,,,,,,,,,,,,,,,,,,,,,,,,,,,,,,,,,,,,,,,,,,,,,,,,,,,,,,,,,,,,,,,,My aunt and uncle got a _________ after two years of marriage.,TALAKA,,,TALAKA,correct,-0.492361111,-0.502560764,1,0,1,4.061565,a,0,6,6,17,1,,
,,,,,,,,,,1584469,2020-10-24_17h54.38.116,swahili,2020.2.4,MacIntel,60,,,,,,,,,,,,,,,,,,,,,,,,,,,,,,,,,,,,,,,,,,,,,,,,,,,,,,,,,,,,,,,,,,,,,,,,,,,,,,,,,,,The ____ is a bird that can learn to repeat words.,KASUKU,,,RUSHWA,incorrect,-0.492361111,-0.502560764,0,0,1,0.177305,a,0,7,7,1,1,,
,,,,,,,,,,1584469,2020-10-24_17h54.38.116,swahili,2020.2.4,MacIntel,60,,,,,,,,,,,,,,,,,,,,,,,,,,,,,,,,,,,,,,,,,,,,,,,,,,,,,,,,,,,,,,,,,,,,,,,,,,,,,,,,,,,Shannon had no one else to  ____ for what happened.,LAWAMA,,,LAWAMA,correct,0.132063802,-0.481154514,1,0,1,6.58019,b,0,8,8,5,1,,
,,,,,,,,,,1584469,2020-10-24_17h54.38.116,swahili,2020.2.4,MacIntel,60,,,,,,,,,,,,,,,,,,,,,,,,,,,,,,,,,,,,,,,,,,,,,,,,,,,,,,,,,,,,,,,,,,,,,,,,,,,,,,,,,,,"To buy a house, you may need to speak with a real estate ______.",WAKILI,,,TALAKA,incorrect,0.132063802,-0.481154514,0,0,1,0.08077,b,0,9,9,14,1,,
,,,,,,,,,,1584469,2020-10-24_17h54.38.116,swahili,2020.2.4,MacIntel,60,,,,,,,,,,,,,,,,,,,,,,,,,,,,,,,,,,,,,,,,,,,,,,,,,,,,,,,,,,,,,,,,,,,,,,,,,,,,,,,,,,,I bought all my goods from the ____ at the market. ,TAJIRI,,,RUSHWA,incorrect,-0.330490451,-0.502387153,1,0,1,4.80907,a,0,10,10,0,1,,
,,,,,,,,,,1584469,2020-10-24_17h54.38.116,swahili,2020.2.4,MacIntel,60,,,,,,,,,,,,,,,,,,,,,,,,,,,,,,,,,,,,,,,,,,,,,,,,,,,,,,,,,,,,,,,,,,,,,,,,,,,,,,,,,,,Fermented _______ are used to make wine.,ZABIBU,,,MASHUA,incorrect,-0.330490451,-0.502387153,0,0,1,0.097585,a,0,11,11,11,1,,
,,,,,,,,,,1584469,2020-10-24_17h54.38.116,swahili,2020.2.4,MacIntel,60,,,,,,,,,,,,,,,,,,,,,,,,,,,,,,,,,,,,,,,,,,,,,,,,,,,,,,,,,,,,,,,,,,,,,,,,,,,,,,,,,,,The _____ is living with foster parents.,YATIMA,,,YATIMA,correct,0.397309028,-0.502265625,1,0,1,2.476625,c,0,12,12,16,1,,
,,,,,,,,,,1584469,2020-10-24_17h54.38.116,swahili,2020.2.4,MacIntel,60,,,,,,,,,,,,,,,,,,,,,,,,,,,,,,,,,,,,,,,,,,,,,,,,,,,,,,,,,,,,,,,,,,,,,,,,,,,,,,,,,,,The politician was arrested for taking a _____.,RUSHWA,,,YAMINI,incorrect,0.397309028,-0.502265625,0,0,1,0.076345,c,0,13,13,15,1,,
,,,,,,,,,,1584469,2020-10-24_17h54.38.116,swahili,2020.2.4,MacIntel,60,,,,,,,,,,,,,,,,,,,,,,,,,,,,,,,,,,,,,,,,,,,,,,,,,,,,,,,,,,,,,,,,,,,,,,,,,,,,,,,,,,,You need a ______ to go fishing in the middle of a lake.,MASHUA,,,MASHUA,correct,-0.392458767,-0.509947917,1,0,1,4.227975,a,0,14,14,18,1,,
,,,,,,,,,,1584469,2020-10-24_17h54.38.116,swahili,2020.2.4,MacIntel,60,,,,,,,,,,,,,,,,,,,,,,,,,,,,,,,,,,,,,,,,,,,,,,,,,,,,,,,,,,,,,,,,,,,,,,,,,,,,,,,,,,,_____ makes bread rise. ,HAMIRA,,,HAMIRA,correct,-0.392458767,-0.509947917,0,0,1,0.11127,a,0,15,15,4,1,,
,,,,,,,,,,1584469,2020-10-24_17h54.38.116,swahili,2020.2.4,MacIntel,60,,,,,,,,,,,,,,,,,,,,,,,,,,,,,,,,,,,,,,,,,,,,,,,,,,,,,,,,,,,,,,,,,,,,,,,,,,,,,,,,,,,Amy cooked a grilled ____ sandwich to go with her tomato soup.,JIBINI,,,JIBINI,correct,0.524620226,-0.521102431,1,0,1,3.83116,c,0,16,16,10,1,,
,,,,,,,,,,1584469,2020-10-24_17h54.38.116,swahili,2020.2.4,MacIntel,60,,,,,,,,,,,,,,,,,,,,,,,,,,,,,,,,,,,,,,,,,,,,,,,,,,,,,,,,,,,,,,,,,,,,,,,,,,,,,,,,,,,The president takes the  ____ of office to uphold the Constitution.,YAMINI,,,ZABIBU,incorrect,0.524620226,-0.521102431,0,0,1,0.07426,c,0,17,17,6,1,,
,,,,,,,,,,1584469,2020-10-24_17h54.38.116,swahili,2020.2.4,MacIntel,60,,,,,,,,,,,,,,,,,,,,,,,,,,,,,,,,,,,,,,,,,,,,,,,,,,,,,,,,,,,,,,,,,,,,,,,,,,,,,,,,,,,Kate doesn't like ____ on the cob because it gets stuck between her teeth. ,NAFAKA,,,NAFAKA,correct,0.123388672,-0.457213542,1,0,1,3.79385,b,0,18,18,7,1,,
,,,,,,,,,,1584469,2020-10-24_17h54.38.116,swahili,2020.2.4,MacIntel,60,,,,,,,,,,,,,,,,,,,,,,,,,,,,,,,,,,,,,,,,,,,,,,,,,,,,,,,,,,,,,,,,,,,,,,,,,,,,,,,,,,,Charles went to the ____ to get his suit adjusted. ,MSHONI,,,ZABIBU,incorrect,0.123388672,-0.457213542,0,0,1,0.079585,b,0,19,19,9,1,,
,,,,,,,,,,1584469,2020-10-24_17h54.38.116,swahili,2020.2.4,MacIntel,60,,,,,,,,,,,,,,,,,,,,,,,,,,,,,,,,,,,,,,,,,,,,,,,,,,,,,,,,,,,,,,,,,,,,,,,,,,,,,,,,,,,,,,,,,,,,,,,,,,,,,return,1.54609
