condition,consent_key.keys,consent_key.rt,done_with_instructions.keys,done_with_instructions.rt,instr_loop.thisRepN,instr_loop.thisTrialN,instr_loop.thisN,instr_loop.thisIndex,instr_loop.ran,Student ID #,date,expName,psychopyVersion,OS,frameRate,instr_learning_key.keys,instr_learning_key.rt,card_gen_loop.thisRepN,card_gen_loop.thisTrialN,card_gen_loop.thisN,card_gen_loop.thisIndex,card_gen_loop.ran,swa,eng,choose_pile.x,choose_pile.y,choose_pile.leftButton,choose_pile.midButton,choose_pile.rightButton,choose_pile.time,choose_pile.clicked_name,choices.thisRepN,choices.thisTrialN,choices.thisN,choices.thisIndex,choices.ran,card_to_show,mouse_pick.x,mouse_pick.y,mouse_pick.leftButton,mouse_pick.midButton,mouse_pick.rightButton,mouse_pick.time,mouse_pick.clicked_name,key_instr_study.keys,next_study.keys,study_loop.thisRepN,study_loop.thisTrialN,study_loop.thisN,study_loop.thisIndex,study_loop.ran,key_instr_test.keys,key_instr_test.rt,duration,yes_or_no.x,yes_or_no.y,yes_or_no.leftButton,yes_or_no.midButton,yes_or_no.rightButton,yes_or_no.time,yes_or_no.clicked_name,test_response.stim,test_response.resp,test_response.eval,test_loop.thisRepN,test_loop.thisTrialN,test_loop.thisN,test_loop.thisIndex,test_loop.ran,learn_loop.thisRepN,learn_loop.thisTrialN,learn_loop.thisN,learn_loop.thisIndex,learn_loop.ran,trials.thisRepN,trials.thisTrialN,trials.thisN,trials.thisIndex,trials.ran,instr_movie_key.keys,instr_movie_key.rt,return_to_exp.keys,return_to_exp.rt,instr_assess_key.keys,instr_assess_key.rt,assess_loop.thisRepN,assess_loop.thisTrialN,assess_loop.thisN,assess_loop.thisIndex,assess_loop.ran,ans_gen_loop.thisRepN,ans_gen_loop.thisTrialN,ans_gen_loop.thisN,ans_gen_loop.thisIndex,ans_gen_loop.ran,sen,ans,instr_transfer_key.keys,instr_transfer_key.rt,transfer_response.resp,transfer_response.eval,select_word.x,select_word.y,select_word.leftButton,select_word.midButton,select_word.rightButton,select_word.time,select_word.clicked_name,transfers.thisRepN,transfers.thisTrialN,transfers.thisN,transfers.thisIndex,transfers.ran,end_experiment.keys,end_experiment.rt
2,return,2.175955,return,1.048385,0,0,0,0,1,00001591044,2020-10-18_18h57.57.768,swahili,2020.2.4,MacIntel,60,,,,,,,,,,,,,,,,,,,,,,,,,,,,,,,,,,,,,,,,,,,,,,,,,,,,,,,,,,,,,,,,,,,,,,,,,,,,,,,,,,,,,,,,,,,,,,,,,,,,
,,,return,1.11139,1,0,1,0,1,00001591044,2020-10-18_18h57.57.768,swahili,2020.2.4,MacIntel,60,,,,,,,,,,,,,,,,,,,,,,,,,,,,,,,,,,,,,,,,,,,,,,,,,,,,,,,,,,,,,,,,,,,,,,,,,,,,,,,,,,,,,,,,,,,,,,,,,,,,
,,,,,,,,,,00001591044,2020-10-18_18h57.57.768,swahili,2020.2.4,MacIntel,60,return,0.622705,0,0,0,0,1,TAJIRI,MERCHANT,,,,,,,,,,,,,,,,,,,,,,,,,,,,,,,,,,,,,,,,,,,,,,,,,,,,,,,,,,,,,,,,,,,,,,,,,,,,,,,,,,,,,,,,,,,
,,,,,,,,,,00001591044,2020-10-18_18h57.57.768,swahili,2020.2.4,MacIntel,60,,,0,1,1,1,1,KASUKU,PARROT,,,,,,,,,,,,,,,,,,,,,,,,,,,,,,,,,,,,,,,,,,,,,,,,,,,,,,,,,,,,,,,,,,,,,,,,,,,,,,,,,,,,,,,,,,,
,,,,,,,,,,00001591044,2020-10-18_18h57.57.768,swahili,2020.2.4,MacIntel,60,,,0,2,2,2,1,FAHILI,BULL,,,,,,,,,,,,,,,,,,,,,,,,,,,,,,,,,,,,,,,,,,,,,,,,,,,,,,,,,,,,,,,,,,,,,,,,,,,,,,,,,,,,,,,,,,,
,,,,,,,,,,00001591044,2020-10-18_18h57.57.768,swahili,2020.2.4,MacIntel,60,,,0,3,3,3,1,SAHANI,PLATE,,,,,,,,,,,,,,,,,,,,,,,,,,,,,,,,,,,,,,,,,,,,,,,,,,,,,,,,,,,,,,,,,,,,,,,,,,,,,,,,,,,,,,,,,,,
,,,,,,,,,,00001591044,2020-10-18_18h57.57.768,swahili,2020.2.4,MacIntel,60,,,0,4,4,4,1,HAMIRA,YEAST,,,,,,,,,,,,,,,,,,,,,,,,,,,,,,,,,,,,,,,,,,,,,,,,,,,,,,,,,,,,,,,,,,,,,,,,,,,,,,,,,,,,,,,,,,,
,,,,,,,,,,00001591044,2020-10-18_18h57.57.768,swahili,2020.2.4,MacIntel,60,,,0,5,5,5,1,LAWAMA,BLAME,,,,,,,,,,,,,,,,,,,,,,,,,,,,,,,,,,,,,,,,,,,,,,,,,,,,,,,,,,,,,,,,,,,,,,,,,,,,,,,,,,,,,,,,,,,
,,,,,,,,,,00001591044,2020-10-18_18h57.57.768,swahili,2020.2.4,MacIntel,60,,,0,6,6,6,1,YAMINI,OATH,,,,,,,,,,,,,,,,,,,,,,,,,,,,,,,,,,,,,,,,,,,,,,,,,,,,,,,,,,,,,,,,,,,,,,,,,,,,,,,,,,,,,,,,,,,
,,,,,,,,,,00001591044,2020-10-18_18h57.57.768,swahili,2020.2.4,MacIntel,60,,,0,7,7,7,1,NAFAKA,CORN,,,,,,,,,,,,,,,,,,,,,,,,,,,,,,,,,,,,,,,,,,,,,,,,,,,,,,,,,,,,,,,,,,,,,,,,,,,,,,,,,,,,,,,,,,,
,,,,,,,,,,00001591044,2020-10-18_18h57.57.768,swahili,2020.2.4,MacIntel,60,,,0,8,8,8,1,UTENZI,POEM,,,,,,,,,,,,,,,,,,,,,,,,,,,,,,,,,,,,,,,,,,,,,,,,,,,,,,,,,,,,,,,,,,,,,,,,,,,,,,,,,,,,,,,,,,,
,,,,,,,,,,00001591044,2020-10-18_18h57.57.768,swahili,2020.2.4,MacIntel,60,,,0,9,9,9,1,MSHONI,TAILOR,,,,,,,,,,,,,,,,,,,,,,,,,,,,,,,,,,,,,,,,,,,,,,,,,,,,,,,,,,,,,,,,,,,,,,,,,,,,,,,,,,,,,,,,,,,
,,,,,,,,,,00001591044,2020-10-18_18h57.57.768,swahili,2020.2.4,MacIntel,60,,,0,10,10,10,1,JIBINI,CHEESE,,,,,,,,,,,,,,,,,,,,,,,,,,,,,,,,,,,,,,,,,,,,,,,,,,,,,,,,,,,,,,,,,,,,,,,,,,,,,,,,,,,,,,,,,,,
,,,,,,,,,,00001591044,2020-10-18_18h57.57.768,swahili,2020.2.4,MacIntel,60,,,0,11,11,11,1,ZABIBU,GRAPES,,,,,,,,,,,,,,,,,,,,,,,,,,,,,,,,,,,,,,,,,,,,,,,,,,,,,,,,,,,,,,,,,,,,,,,,,,,,,,,,,,,,,,,,,,,
,,,,,,,,,,00001591044,2020-10-18_18h57.57.768,swahili,2020.2.4,MacIntel,60,,,0,12,12,12,1,KABURI,GRAVE,,,,,,,,,,,,,,,,,,,,,,,,,,,,,,,,,,,,,,,,,,,,,,,,,,,,,,,,,,,,,,,,,,,,,,,,,,,,,,,,,,,,,,,,,,,
,,,,,,,,,,00001591044,2020-10-18_18h57.57.768,swahili,2020.2.4,MacIntel,60,,,0,13,13,13,1,SAMADI,MANURE,,,,,,,,,,,,,,,,,,,,,,,,,,,,,,,,,,,,,,,,,,,,,,,,,,,,,,,,,,,,,,,,,,,,,,,,,,,,,,,,,,,,,,,,,,,
,,,,,,,,,,00001591044,2020-10-18_18h57.57.768,swahili,2020.2.4,MacIntel,60,,,0,14,14,14,1,WAKILI,AGENT,,,,,,,,,,,,,,,,,,,,,,,,,,,,,,,,,,,,,,,,,,,,,,,,,,,,,,,,,,,,,,,,,,,,,,,,,,,,,,,,,,,,,,,,,,,
,,,,,,,,,,00001591044,2020-10-18_18h57.57.768,swahili,2020.2.4,MacIntel,60,,,0,15,15,15,1,RUSHWA,BRIBE,,,,,,,,,,,,,,,,,,,,,,,,,,,,,,,,,,,,,,,,,,,,,,,,,,,,,,,,,,,,,,,,,,,,,,,,,,,,,,,,,,,,,,,,,,,
,,,,,,,,,,00001591044,2020-10-18_18h57.57.768,swahili,2020.2.4,MacIntel,60,,,0,16,16,16,1,YATIMA,ORPHAN,,,,,,,,,,,,,,,,,,,,,,,,,,,,,,,,,,,,,,,,,,,,,,,,,,,,,,,,,,,,,,,,,,,,,,,,,,,,,,,,,,,,,,,,,,,
,,,,,,,,,,00001591044,2020-10-18_18h57.57.768,swahili,2020.2.4,MacIntel,60,,,0,17,17,17,1,TALAKA,DIVORCE,,,,,,,,,,,,,,,,,,,,,,,,,,,,,,,,,,,,,,,,,,,,,,,,,,,,,,,,,,,,,,,,,,,,,,,,,,,,,,,,,,,,,,,,,,,
,,,,,,,,,,00001591044,2020-10-18_18h57.57.768,swahili,2020.2.4,MacIntel,60,,,0,18,18,18,1,MASHUA,BOAT,,,,,,,,,,,,,,,,,,,,,,,,,,,,,,,,,,,,,,,,,,,,,,,,,,,,,,,,,,,,,,,,,,,,,,,,,,,,,,,,,,,,,,,,,,,
,,,,,,,,,,00001591044,2020-10-18_18h57.57.768,swahili,2020.2.4,MacIntel,60,,,0,19,19,19,1,DAFINA,TREASURE,,,,,,,,,,,,,,,,,,,,,,,,,,,,,,,,,,,,,,,,,,,,,,,,,,,,,,,,,,,,,,,,,,,,,,,,,,,,,,,,,,,,,,,,,,,
,,,,,,,,,,00001591044,2020-10-18_18h57.57.768,swahili,2020.2.4,MacIntel,60,,,,,,,,,,-0.167773438,-0.029861111,1,0,0,1.530255,unsorted_card,0,0,0,0,1,,,,,,,,,,,,,,,,,,,,,,,,,,,,,,,,,,,,,,,,,,,,,,,,,,,,,,,,,,,,,,,,,,,,,,,,,,,,,,,
,,,,,,,,,,00001591044,2020-10-18_18h57.57.768,swahili,2020.2.4,MacIntel,60,,,,,,,,,,0.557503255,-0.032161458,1,0,0,1.812085,test_pile,1,0,1,0,1,MERCHANT - TAJIRI,,,,,,,,,,,,,,,,,,,,,,,,,,,,,,,,,,,,,,,,,,,,,,,,,,,,,,,,,,,,,,,,,,,,,,,,,,,,,,
,,,,,,,,,,00001591044,2020-10-18_18h57.57.768,swahili,2020.2.4,MacIntel,60,,,,,,,,,,-0.454720052,0.001796875,1,0,0,0.52948,unsorted_card,2,0,2,0,1,,,,,,,,,,,,,,,,,,,,,,,,,,,,,,,,,,,,,,,,,,,,,,,,,,,,,,,,,,,,,,,,,,,,,,,,,,,,,,,
,,,,,,,,,,00001591044,2020-10-18_18h57.57.768,swahili,2020.2.4,MacIntel,60,,,,,,,,,,0.3699273,0.038177083,1,0,0,0.582075,test_pile,3,0,3,0,1,PARROT - KASUKU,,,,,,,,,,,,,,,,,,,,,,,,,,,,,,,,,,,,,,,,,,,,,,,,,,,,,,,,,,,,,,,,,,,,,,,,,,,,,,
,,,,,,,,,,00001591044,2020-10-18_18h57.57.768,swahili,2020.2.4,MacIntel,60,,,,,,,,,,-0.484244792,-0.066597222,1,0,0,0.479365,unsorted_card,4,0,4,0,1,,,,,,,,,,,,,,,,,,,,,,,,,,,,,,,,,,,,,,,,,,,,,,,,,,,,,,,,,,,,,,,,,,,,,,,,,,,,,,,
,,,,,,,,,,00001591044,2020-10-18_18h57.57.768,swahili,2020.2.4,MacIntel,60,,,,,,,,,,0.552707248,0.022317708,1,0,0,0.498025,test_pile,5,0,5,0,1,BULL - FAHILI,,,,,,,,,,,,,,,,,,,,,,,,,,,,,,,,,,,,,,,,,,,,,,,,,,,,,,,,,,,,,,,,,,,,,,,,,,,,,,
,,,,,,,,,,00001591044,2020-10-18_18h57.57.768,swahili,2020.2.4,MacIntel,60,,,,,,,,,,-0.447862413,-0.042743056,1,0,0,0.498015,unsorted_card,6,0,6,0,1,,,,,,,,,,,,,,,,,,,,,,,,,,,,,,,,,,,,,,,,,,,,,,,,,,,,,,,,,,,,,,,,,,,,,,,,,,,,,,,
,,,,,,,,,,00001591044,2020-10-18_18h57.57.768,swahili,2020.2.4,MacIntel,60,,,,,,,,,,0.597243924,0.016987847,1,0,0,0.500055,test_pile,7,0,7,0,1,PLATE - SAHANI,,,,,,,,,,,,,,,,,,,,,,,,,,,,,,,,,,,,,,,,,,,,,,,,,,,,,,,,,,,,,,,,,,,,,,,,,,,,,,
,,,,,,,,,,00001591044,2020-10-18_18h57.57.768,swahili,2020.2.4,MacIntel,60,,,,,,,,,,-0.431423611,0.004730903,1,0,0,0.462235,unsorted_card,8,0,8,0,1,,,,,,,,,,,,,,,,,,,,,,,,,,,,,,,,,,,,,,,,,,,,,,,,,,,,,,,,,,,,,,,,,,,,,,,,,,,,,,,
,,,,,,,,,,00001591044,2020-10-18_18h57.57.768,swahili,2020.2.4,MacIntel,60,,,,,,,,,,0.806971571,0.044826389,1,0,0,0.51485,test_pile,9,0,9,0,1,YEAST - HAMIRA,,,,,,,,,,,,,,,,,,,,,,,,,,,,,,,,,,,,,,,,,,,,,,,,,,,,,,,,,,,,,,,,,,,,,,,,,,,,,,
,,,,,,,,,,00001591044,2020-10-18_18h57.57.768,swahili,2020.2.4,MacIntel,60,,,,,,,,,,-0.498339844,-0.070217014,1,0,0,0.582325,unsorted_card,10,0,10,0,1,,,,,,,,,,,,,,,,,,,,,,,,,,,,,,,,,,,,,,,,,,,,,,,,,,,,,,,,,,,,,,,,,,,,,,,,,,,,,,,
,,,,,,,,,,00001591044,2020-10-18_18h57.57.768,swahili,2020.2.4,MacIntel,60,,,,,,,,,,0.377023655,-0.043880208,1,0,0,0.54703,test_pile,11,0,11,0,1,BLAME - LAWAMA,,,,,,,,,,,,,,,,,,,,,,,,,,,,,,,,,,,,,,,,,,,,,,,,,,,,,,,,,,,,,,,,,,,,,,,,,,,,,,
,,,,,,,,,,00001591044,2020-10-18_18h57.57.768,swahili,2020.2.4,MacIntel,60,,,,,,,,,,-0.383832465,0.002326389,1,0,0,0.464145,unsorted_card,12,0,12,0,1,,,,,,,,,,,,,,,,,,,,,,,,,,,,,,,,,,,,,,,,,,,,,,,,,,,,,,,,,,,,,,,,,,,,,,,,,,,,,,,
,,,,,,,,,,00001591044,2020-10-18_18h57.57.768,swahili,2020.2.4,MacIntel,60,,,,,,,,,,0.413883464,-0.05265625,1,0,0,0.513855,test_pile,13,0,13,0,1,OATH - YAMINI,,,,,,,,,,,,,,,,,,,,,,,,,,,,,,,,,,,,,,,,,,,,,,,,,,,,,,,,,,,,,,,,,,,,,,,,,,,,,,
,,,,,,,,,,00001591044,2020-10-18_18h57.57.768,swahili,2020.2.4,MacIntel,60,,,,,,,,,,-0.501741536,-0.040668403,1,0,0,0.465925,unsorted_card,14,0,14,0,1,,,,,,,,,,,,,,,,,,,,,,,,,,,,,,,,,,,,,,,,,,,,,,,,,,,,,,,,,,,,,,,,,,,,,,,,,,,,,,,
,,,,,,,,,,00001591044,2020-10-18_18h57.57.768,swahili,2020.2.4,MacIntel,60,,,,,,,,,,0.473942057,0.012274306,1,0,0,0.53154,test_pile,15,0,15,0,1,CORN - NAFAKA,,,,,,,,,,,,,,,,,,,,,,,,,,,,,,,,,,,,,,,,,,,,,,,,,,,,,,,,,,,,,,,,,,,,,,,,,,,,,,
,,,,,,,,,,00001591044,2020-10-18_18h57.57.768,swahili,2020.2.4,MacIntel,60,,,,,,,,,,-0.385894097,-0.174236111,1,0,0,0.49777,unsorted_card,16,0,16,0,1,,,,,,,,,,,,,,,,,,,,,,,,,,,,,,,,,,,,,,,,,,,,,,,,,,,,,,,,,,,,,,,,,,,,,,,,,,,,,,,
,,,,,,,,,,00001591044,2020-10-18_18h57.57.768,swahili,2020.2.4,MacIntel,60,,,,,,,,,,0.539409722,-0.041041667,1,0,0,0.59689,test_pile,17,0,17,0,1,POEM - UTENZI,,,,,,,,,,,,,,,,,,,,,,,,,,,,,,,,,,,,,,,,,,,,,,,,,,,,,,,,,,,,,,,,,,,,,,,,,,,,,,
,,,,,,,,,,00001591044,2020-10-18_18h57.57.768,swahili,2020.2.4,MacIntel,60,,,,,,,,,,-0.308300781,-0.134097222,1,0,0,0.481035,unsorted_card,18,0,18,0,1,,,,,,,,,,,,,,,,,,,,,,,,,,,,,,,,,,,,,,,,,,,,,,,,,,,,,,,,,,,,,,,,,,,,,,,,,,,,,,,
,,,,,,,,,,00001591044,2020-10-18_18h57.57.768,swahili,2020.2.4,MacIntel,60,,,,,,,,,,0.491699219,-0.023637153,1,0,0,0.68192,test_pile,19,0,19,0,1,TAILOR - MSHONI,,,,,,,,,,,,,,,,,,,,,,,,,,,,,,,,,,,,,,,,,,,,,,,,,,,,,,,,,,,,,,,,,,,,,,,,,,,,,,
,,,,,,,,,,00001591044,2020-10-18_18h57.57.768,swahili,2020.2.4,MacIntel,60,,,,,,,,,,-0.281374783,-0.184522569,1,0,0,0.480995,unsorted_card,20,0,20,0,1,,,,,,,,,,,,,,,,,,,,,,,,,,,,,,,,,,,,,,,,,,,,,,,,,,,,,,,,,,,,,,,,,,,,,,,,,,,,,,,
,,,,,,,,,,00001591044,2020-10-18_18h57.57.768,swahili,2020.2.4,MacIntel,60,,,,,,,,,,0.434559462,-0.008506944,1,0,0,0.613815,test_pile,21,0,21,0,1,CHEESE - JIBINI,,,,,,,,,,,,,,,,,,,,,,,,,,,,,,,,,,,,,,,,,,,,,,,,,,,,,,,,,,,,,,,,,,,,,,,,,,,,,,
,,,,,,,,,,00001591044,2020-10-18_18h57.57.768,swahili,2020.2.4,MacIntel,60,,,,,,,,,,-0.360709635,-0.011484375,1,0,0,0.448095,unsorted_card,22,0,22,0,1,,,,,,,,,,,,,,,,,,,,,,,,,,,,,,,,,,,,,,,,,,,,,,,,,,,,,,,,,,,,,,,,,,,,,,,,,,,,,,,
,,,,,,,,,,00001591044,2020-10-18_18h57.57.768,swahili,2020.2.4,MacIntel,60,,,,,,,,,,0.364523655,0.016432292,1,0,0,0.63129,test_pile,23,0,23,0,1,GRAPES - ZABIBU,,,,,,,,,,,,,,,,,,,,,,,,,,,,,,,,,,,,,,,,,,,,,,,,,,,,,,,,,,,,,,,,,,,,,,,,,,,,,,
,,,,,,,,,,00001591044,2020-10-18_18h57.57.768,swahili,2020.2.4,MacIntel,60,,,,,,,,,,-0.337890625,-0.0640625,1,0,0,0.53126,unsorted_card,24,0,24,0,1,,,,,,,,,,,,,,,,,,,,,,,,,,,,,,,,,,,,,,,,,,,,,,,,,,,,,,,,,,,,,,,,,,,,,,,,,,,,,,,
,,,,,,,,,,00001591044,2020-10-18_18h57.57.768,swahili,2020.2.4,MacIntel,60,,,,,,,,,,0.422124566,-0.026736111,1,0,0,0.681,test_pile,25,0,25,0,1,GRAVE - KABURI,,,,,,,,,,,,,,,,,,,,,,,,,,,,,,,,,,,,,,,,,,,,,,,,,,,,,,,,,,,,,,,,,,,,,,,,,,,,,,
,,,,,,,,,,00001591044,2020-10-18_18h57.57.768,swahili,2020.2.4,MacIntel,60,,,,,,,,,,-0.416737196,-0.166814236,1,0,0,0.496355,unsorted_card,26,0,26,0,1,,,,,,,,,,,,,,,,,,,,,,,,,,,,,,,,,,,,,,,,,,,,,,,,,,,,,,,,,,,,,,,,,,,,,,,,,,,,,,,
,,,,,,,,,,00001591044,2020-10-18_18h57.57.768,swahili,2020.2.4,MacIntel,60,,,,,,,,,,0.479199219,-0.038038194,1,0,0,0.749215,test_pile,27,0,27,0,1,MANURE - SAMADI,,,,,,,,,,,,,,,,,,,,,,,,,,,,,,,,,,,,,,,,,,,,,,,,,,,,,,,,,,,,,,,,,,,,,,,,,,,,,,
,,,,,,,,,,00001591044,2020-10-18_18h57.57.768,swahili,2020.2.4,MacIntel,60,,,,,,,,,,-0.285291884,-0.088402778,1,0,0,0.479925,unsorted_card,28,0,28,0,1,,,,,,,,,,,,,,,,,,,,,,,,,,,,,,,,,,,,,,,,,,,,,,,,,,,,,,,,,,,,,,,,,,,,,,,,,,,,,,,
,,,,,,,,,,00001591044,2020-10-18_18h57.57.768,swahili,2020.2.4,MacIntel,60,,,,,,,,,,0.511344401,0.061423611,1,0,0,0.66699,test_pile,29,0,29,0,1,AGENT - WAKILI,,,,,,,,,,,,,,,,,,,,,,,,,,,,,,,,,,,,,,,,,,,,,,,,,,,,,,,,,,,,,,,,,,,,,,,,,,,,,,
,,,,,,,,,,00001591044,2020-10-18_18h57.57.768,swahili,2020.2.4,MacIntel,60,,,,,,,,,,-0.297878689,-0.147022569,1,0,0,0.529375,unsorted_card,30,0,30,0,1,,,,,,,,,,,,,,,,,,,,,,,,,,,,,,,,,,,,,,,,,,,,,,,,,,,,,,,,,,,,,,,,,,,,,,,,,,,,,,,
,,,,,,,,,,00001591044,2020-10-18_18h57.57.768,swahili,2020.2.4,MacIntel,60,,,,,,,,,,0.397379557,-0.053940972,1,0,0,0.59825,test_pile,31,0,31,0,1,BRIBE - RUSHWA,,,,,,,,,,,,,,,,,,,,,,,,,,,,,,,,,,,,,,,,,,,,,,,,,,,,,,,,,,,,,,,,,,,,,,,,,,,,,,
,,,,,,,,,,00001591044,2020-10-18_18h57.57.768,swahili,2020.2.4,MacIntel,60,,,,,,,,,,-0.246180556,-0.048229167,1,0,0,0.479665,unsorted_card,32,0,32,0,1,,,,,,,,,,,,,,,,,,,,,,,,,,,,,,,,,,,,,,,,,,,,,,,,,,,,,,,,,,,,,,,,,,,,,,,,,,,,,,,
,,,,,,,,,,00001591044,2020-10-18_18h57.57.768,swahili,2020.2.4,MacIntel,60,,,,,,,,,,0.528700087,0.002022569,1,0,0,0.633155,test_pile,33,0,33,0,1,ORPHAN - YATIMA,,,,,,,,,,,,,,,,,,,,,,,,,,,,,,,,,,,,,,,,,,,,,,,,,,,,,,,,,,,,,,,,,,,,,,,,,,,,,,
,,,,,,,,,,00001591044,2020-10-18_18h57.57.768,swahili,2020.2.4,MacIntel,60,,,,,,,,,,-0.219493273,-0.066371528,1,0,0,0.52966,unsorted_card,34,0,34,0,1,,,,,,,,,,,,,,,,,,,,,,,,,,,,,,,,,,,,,,,,,,,,,,,,,,,,,,,,,,,,,,,,,,,,,,,,,,,,,,,
,,,,,,,,,,00001591044,2020-10-18_18h57.57.768,swahili,2020.2.4,MacIntel,60,,,,,,,,,,0.494200304,-0.026232639,1,0,0,0.71553,test_pile,35,0,35,0,1,DIVORCE - TALAKA,,,,,,,,,,,,,,,,,,,,,,,,,,,,,,,,,,,,,,,,,,,,,,,,,,,,,,,,,,,,,,,,,,,,,,,,,,,,,,
,,,,,,,,,,00001591044,2020-10-18_18h57.57.768,swahili,2020.2.4,MacIntel,60,,,,,,,,,,-0.185584852,-0.078862847,1,0,0,0.813815,unsorted_card,36,0,36,0,1,,,,,,,,,,,,,,,,,,,,,,,,,,,,,,,,,,,,,,,,,,,,,,,,,,,,,,,,,,,,,,,,,,,,,,,,,,,,,,,
,,,,,,,,,,00001591044,2020-10-18_18h57.57.768,swahili,2020.2.4,MacIntel,60,,,,,,,,,,0.385248481,-0.066024306,1,0,0,0.88153,test_pile,37,0,37,0,1,BOAT - MASHUA,,,,,,,,,,,,,,,,,,,,,,,,,,,,,,,,,,,,,,,,,,,,,,,,,,,,,,,,,,,,,,,,,,,,,,,,,,,,,,
,,,,,,,,,,00001591044,2020-10-18_18h57.57.768,swahili,2020.2.4,MacIntel,60,,,,,,,,,,-0.280457899,-0.136701389,1,0,0,0.530195,unsorted_card,38,0,38,0,1,,,,,,,,,,,,,,,,,,,,,,,,,,,,,,,,,,,,,,,,,,,,,,,,,,,,,,,,,,,,,,,,,,,,,,,,,,,,,,,
,,,,,,,,,,00001591044,2020-10-18_18h57.57.768,swahili,2020.2.4,MacIntel,60,,,,,,,,,,0.529600694,0.032595486,1,0,0,0.8981,test_pile,39,0,39,0,1,TREASURE - DAFINA,,,,,,,,,,,,,,,,,,,,,,,,,,,,,,,,,,,,,,,,,,,,,,,,,,,,,,,,,,,,,,,,,,,,,,,,,,,,,,
,,,,,,,,,,00001591044,2020-10-18_18h57.57.768,swahili,2020.2.4,MacIntel,60,,,,,,,,,,,,,,,,,,,,,,,,,,,,,,,,0,0,0,0,1,,,,,,,,,,,,,,,,,,,,,,,,,,,,,,,,,,,,,,,,,,,,,,,,,,,,,,,,,,,,,,,,
,,,,,,,,,,00001591044,2020-10-18_18h57.57.768,swahili,2020.2.4,MacIntel,60,,,,,,,,,,,,,,,,,,,,,,,,,,,,,,,,,,,,,return,1.249035,9.864995,0.419965278,-0.083767361,1,0,0,0.71344,yes,PLATE,UTENZI,incorrect,0,0,0,0,1,,,,,,,,,,,,,,,,,,,,,,,,,,,,,,,,,,,,,,,,,,,,,,
,,,,,,,,,,00001591044,2020-10-18_18h57.57.768,swahili,2020.2.4,MacIntel,60,,,,,,,,,,,,,,,,,,,,,,,,,,,,,,,,,,,,,,,7.828945,0.499034288,-0.044756944,1,0,0,0.566935,yes,GRAVE,RUSHWA,incorrect,1,0,1,0,1,,,,,,,,,,,,,,,,,,,,,,,,,,,,,,,,,,,,,,,,,,,,,,
,,,,,,,,,,00001591044,2020-10-18_18h57.57.768,swahili,2020.2.4,MacIntel,60,,,,,,,,,,,,,,,,,,,,,,,,,,,,,,,,,,,,,,,5.87978,0.693017578,0.086258681,1,0,0,0.600555,yes,DIVORCE,TALAKA,incorrect,2,0,2,0,1,,,,,,,,,,,,,,,,,,,,,,,,,,,,,,,,,,,,,,,,,,,,,,
,,,,,,,,,,00001591044,2020-10-18_18h57.57.768,swahili,2020.2.4,MacIntel,60,,,,,,,,,,,,,,,,,,,,,,,,,,,,,,,,,,,,,,,4.581255,0.365174696,-0.108194444,1,0,0,0.565955,yes,CHEESE,JUBILI,incorrect,3,0,3,0,1,,,,,,,,,,,,,,,,,,,,,,,,,,,,,,,,,,,,,,,,,,,,,,
,,,,,,,,,,00001591044,2020-10-18_18h57.57.768,swahili,2020.2.4,MacIntel,60,,,,,,,,,,,,,,,,,,,,,,,,,,,,,,,,,,,,,,,3.847945,0.413823785,-0.027829861,1,0,0,0.5334,yes,TAILOR,TAILOR,correct,4,0,4,0,1,,,,,,,,,,,,,,,,,,,,,,,,,,,,,,,,,,,,,,,,,,,,,,
,,,,,,,,,,00001591044,2020-10-18_18h57.57.768,swahili,2020.2.4,MacIntel,60,,,,,,,,,,,,,,,,,,,,,,,,,,,,,,,,,,,,,,,2.66354,0.573567708,-0.004305556,1,0,0,0.567225,yes,MANURE,SAHANA,incorrect,5,0,5,0,1,,,,,,,,,,,,,,,,,,,,,,,,,,,,,,,,,,,,,,,,,,,,,,
,,,,,,,,,,00001591044,2020-10-18_18h57.57.768,swahili,2020.2.4,MacIntel,60,,,,,,,,,,,,,,,,,,,,,,,,,,,,,,,,,,,,,,,3.479915,0.386810981,-0.025668403,1,0,0,0.550435,yes,TREASURE,DAHANI,incorrect,6,0,6,0,1,,,,,,,,,,,,,,,,,,,,,,,,,,,,,,,,,,,,,,,,,,,,,,
,,,,,,,,,,00001591044,2020-10-18_18h57.57.768,swahili,2020.2.4,MacIntel,60,,,,,,,,,,,,,,,,,,,,,,,,,,,,,,,,,,,,,,,6.463865,0.402799479,-0.126744792,1,0,0,0.48382,yes,BOAT,MUSHKA,incorrect,7,0,7,0,1,,,,,,,,,,,,,,,,,,,,,,,,,,,,,,,,,,,,,,,,,,,,,,
,,,,,,,,,,00001591044,2020-10-18_18h57.57.768,swahili,2020.2.4,MacIntel,60,,,,,,,,,,,,,,,,,,,,,,,,,,,,,,,,,,,,,,,10.896565,0.607335069,-0.039644097,1,0,0,1.468355,yes,GRAPES,KABA,incorrect,8,0,8,0,1,,,,,,,,,,,,,,,,,,,,,,,,,,,,,,,,,,,,,,,,,,,,,,
,,,,,,,,,,00001591044,2020-10-18_18h57.57.768,swahili,2020.2.4,MacIntel,60,,,,,,,,,,,,,,,,,,,,,,,,,,,,,,,,,,,,,,,2.53134,0.374782986,-0.064036458,1,0,0,0.99927,yes,OATH,OATH,correct,9,0,9,0,1,,,,,,,,,,,,,,,,,,,,,,,,,,,,,,,,,,,,,,,,,,,,,,
,,,,,,,,,,00001591044,2020-10-18_18h57.57.768,swahili,2020.2.4,MacIntel,60,,,,,,,,,,,,,,,,,,,,,,,,,,,,,,,,,,,,,,,10.01436,0.486159939,-0.024140625,1,0,0,0.53324,yes,POEM,UTIZI,incorrect,10,0,10,0,1,,,,,,,,,,,,,,,,,,,,,,,,,,,,,,,,,,,,,,,,,,,,,,
,,,,,,,,,,00001591044,2020-10-18_18h57.57.768,swahili,2020.2.4,MacIntel,60,,,,,,,,,,,,,,,,,,,,,,,,,,,,,,,,,,,,,,,3.84707,0.388948568,-0.013776042,1,0,0,0.66649,yes,BLAME,BLAME,correct,11,0,11,0,1,,,,,,,,,,,,,,,,,,,,,,,,,,,,,,,,,,,,,,,,,,,,,,
,,,,,,,,,,00001591044,2020-10-18_18h57.57.768,swahili,2020.2.4,MacIntel,60,,,,,,,,,,,,,,,,,,,,,,,,,,,,,,,,,,,,,,,7.69632,0.570936415,0.075616319,1,0,0,0.566915,yes,MERCHANT,SABAHA,incorrect,12,0,12,0,1,,,,,,,,,,,,,,,,,,,,,,,,,,,,,,,,,,,,,,,,,,,,,,
,,,,,,,,,,00001591044,2020-10-18_18h57.57.768,swahili,2020.2.4,MacIntel,60,,,,,,,,,,,,,,,,,,,,,,,,,,,,,,,,,,,,,,,8.21302,0.294666884,0.043758681,1,0,0,0.56656,yes,BULL,GABALA,incorrect,13,0,13,0,1,,,,,,,,,,,,,,,,,,,,,,,,,,,,,,,,,,,,,,,,,,,,,,
,,,,,,,,,,00001591044,2020-10-18_18h57.57.768,swahili,2020.2.4,MacIntel,60,,,,,,,,,,,,,,,,,,,,,,,,,,,,,,,,,,,,,,,4.664365,0.294666884,0.043758681,1,0,0,0.449115,yes,AGENT,TAHINI,incorrect,14,0,14,0,1,,,,,,,,,,,,,,,,,,,,,,,,,,,,,,,,,,,,,,,,,,,,,,
,,,,,,,,,,00001591044,2020-10-18_18h57.57.768,swahili,2020.2.4,MacIntel,60,,,,,,,,,,,,,,,,,,,,,,,,,,,,,,,,,,,,,,,7.23019,0.347520616,0.049236111,1,0,0,0.50089,yes,BRIBE,RUSHWA,incorrect,15,0,15,0,1,,,,,,,,,,,,,,,,,,,,,,,,,,,,,,,,,,,,,,,,,,,,,,
,,,,,,,,,,00001591044,2020-10-18_18h57.57.768,swahili,2020.2.4,MacIntel,60,,,,,,,,,,,,,,,,,,,,,,,,,,,,,,,,,,,,,,,11.081055,0.363107639,-0.043784722,1,0,0,0.54908,yes,ORPHAN,ORPHAN,correct,16,0,16,0,1,,,,,,,,,,,,,,,,,,,,,,,,,,,,,,,,,,,,,,,,,,,,,,
,,,,,,,,,,00001591044,2020-10-18_18h57.57.768,swahili,2020.2.4,MacIntel,60,,,,,,,,,,,,,,,,,,,,,,,,,,,,,,,,,,,,,,,2.514005,0.431157769,-0.031883681,1,0,0,0.466485,yes,PARROT,GABANA,incorrect,17,0,17,0,1,,,,,,,,,,,,,,,,,,,,,,,,,,,,,,,,,,,,,,,,,,,,,,
,,,,,,,,,,00001591044,2020-10-18_18h57.57.768,swahili,2020.2.4,MacIntel,60,,,,,,,,,,,,,,,,,,,,,,,,,,,,,,,,,,,,,,,4.78148,0.446820747,-0.004210069,1,0,0,0.46589,yes,CORN,SAHANA,incorrect,18,0,18,0,1,,,,,,,,,,,,,,,,,,,,,,,,,,,,,,,,,,,,,,,,,,,,,,
,,,,,,,,,,00001591044,2020-10-18_18h57.57.768,swahili,2020.2.4,MacIntel,60,,,,,,,,,,,,,,,,,,,,,,,,,,,,,,,,,,,,,,,5.230165,0.446820747,-0.004210069,1,0,0,0.38215,yes,YEAST,HANI,incorrect,19,0,19,0,1,,,,,,,,,,,,,,,,,,,,,,,,,,,,,,,,,,,,,,,,,,,,,,
,,,,,,,,,,00001591044,2020-10-18_18h57.57.768,swahili,2020.2.4,MacIntel,60,,,,,,,,,,,,,,,,,,,,,,,,,,,,,,,,,,,,,,,,,,,,,,,,,,,,,,,0,0,0,0,1,,,,,,,,,,,,,,,,,,,,,,,,,,,,,,,,,,,,,,,,,
,,,,,,,,,,00001591044,2020-10-18_18h57.57.768,swahili,2020.2.4,MacIntel,60,,,,,,,,,,,,,,,,,,,,,,,,,,,,,,,,,,,,,,,,,,,,,,,,,,,,,,,1,0,1,0,1,,,,,,,,,,,,,,,,,,,,,,,,,,,,,,,,,,,,,,,,,
,,,,,,,,,,00001591044,2020-10-18_18h57.57.768,swahili,2020.2.4,MacIntel,60,,,,,,,,,,,,,,,,,,,,,,,,,,,,,,,,,,,,,,,,,,,,,,,,,,,,,,,,,,,,0,0,0,0,1,,,,,,,,,,,,,,,,,,,,,,,,,,,,,,,,,,,,
,,,,,,,,,,00001591044,2020-10-18_18h57.57.768,swahili,2020.2.4,MacIntel,60,,,,,,,,,,-0.422596571,-0.089444444,1,0,0,1.38045,unsorted_card,0,0,0,0,1,,,,,,,,,,,,,,,,,,,,,,,,,,,,,,,,,,,,,,,,,,,,,,,,,,,,,,,,,,,,,,,,,,,,,,,,,,,,,,,
,,,,,,,,,,00001591044,2020-10-18_18h57.57.768,swahili,2020.2.4,MacIntel,60,,,,,,,,,,0.557492405,-0.508862847,1,0,0,0.48077,done_pile,1,0,1,0,1,MERCHANT - TAJIRI,,,,,,,,,,,,,,,,,,,,,,,,,,,,,,,,,,,,,,,,,,,,,,,,,,,,,,,,,,,,,,,,,,,,,,,,,,,,,,
,,,,,,,,,,00001591044,2020-10-18_18h57.57.768,swahili,2020.2.4,MacIntel,60,,,,,,,,,,-0.269585503,-0.142048611,1,0,0,0.497715,unsorted_card,2,0,2,0,1,,,,,,,,,,,,,,,,,,,,,,,,,,,,,,,,,,,,,,,,,,,,,,,,,,,,,,,,,,,,,,,,,,,,,,,,,,,,,,,
,,,,,,,,,,00001591044,2020-10-18_18h57.57.768,swahili,2020.2.4,MacIntel,60,,,,,,,,,,0.579188368,-0.499288194,1,0,0,0.548195,done_pile,3,0,3,0,1,PARROT - KASUKU,,,,,,,,,,,,,,,,,,,,,,,,,,,,,,,,,,,,,,,,,,,,,,,,,,,,,,,,,,,,,,,,,,,,,,,,,,,,,,
,,,,,,,,,,00001591044,2020-10-18_18h57.57.768,swahili,2020.2.4,MacIntel,60,,,,,,,,,,-0.279085286,-0.114513889,1,0,0,0.465465,unsorted_card,4,0,4,0,1,,,,,,,,,,,,,,,,,,,,,,,,,,,,,,,,,,,,,,,,,,,,,,,,,,,,,,,,,,,,,,,,,,,,,,,,,,,,,,,
,,,,,,,,,,00001591044,2020-10-18_18h57.57.768,swahili,2020.2.4,MacIntel,60,,,,,,,,,,0.588818359,-0.562994792,1,0,0,0.51522,done_pile,5,0,5,0,1,BULL - FAHILI,,,,,,,,,,,,,,,,,,,,,,,,,,,,,,,,,,,,,,,,,,,,,,,,,,,,,,,,,,,,,,,,,,,,,,,,,,,,,,
,,,,,,,,,,00001591044,2020-10-18_18h57.57.768,swahili,2020.2.4,MacIntel,60,,,,,,,,,,-0.394856771,0.061067708,1,0,0,0.46336,unsorted_card,6,0,6,0,1,,,,,,,,,,,,,,,,,,,,,,,,,,,,,,,,,,,,,,,,,,,,,,,,,,,,,,,,,,,,,,,,,,,,,,,,,,,,,,,
,,,,,,,,,,00001591044,2020-10-18_18h57.57.768,swahili,2020.2.4,MacIntel,60,,,,,,,,,,0.54836697,-0.538585069,1,0,0,0.73319,done_pile,7,0,7,0,1,PLATE - SAHANI,,,,,,,,,,,,,,,,,,,,,,,,,,,,,,,,,,,,,,,,,,,,,,,,,,,,,,,,,,,,,,,,,,,,,,,,,,,,,,
,,,,,,,,,,00001591044,2020-10-18_18h57.57.768,swahili,2020.2.4,MacIntel,60,,,,,,,,,,-0.502061632,0.257899306,1,0,0,0.497665,unsorted_card,8,0,8,0,1,,,,,,,,,,,,,,,,,,,,,,,,,,,,,,,,,,,,,,,,,,,,,,,,,,,,,,,,,,,,,,,,,,,,,,,,,,,,,,,
,,,,,,,,,,00001591044,2020-10-18_18h57.57.768,swahili,2020.2.4,MacIntel,60,,,,,,,,,,0.546815321,-0.534861111,1,0,0,0.714515,done_pile,9,0,9,0,1,YEAST - HAMIRA,,,,,,,,,,,,,,,,,,,,,,,,,,,,,,,,,,,,,,,,,,,,,,,,,,,,,,,,,,,,,,,,,,,,,,,,,,,,,,
,,,,,,,,,,00001591044,2020-10-18_18h57.57.768,swahili,2020.2.4,MacIntel,60,,,,,,,,,,-0.498019748,-0.014088542,1,0,0,0.50004,unsorted_card,10,0,10,0,1,,,,,,,,,,,,,,,,,,,,,,,,,,,,,,,,,,,,,,,,,,,,,,,,,,,,,,,,,,,,,,,,,,,,,,,,,,,,,,,
,,,,,,,,,,00001591044,2020-10-18_18h57.57.768,swahili,2020.2.4,MacIntel,60,,,,,,,,,,0.510655382,-0.553758681,1,0,0,0.681895,done_pile,11,0,11,0,1,BLAME - LAWAMA,,,,,,,,,,,,,,,,,,,,,,,,,,,,,,,,,,,,,,,,,,,,,,,,,,,,,,,,,,,,,,,,,,,,,,,,,,,,,,
,,,,,,,,,,00001591044,2020-10-18_18h57.57.768,swahili,2020.2.4,MacIntel,60,,,,,,,,,,-0.188232422,-0.220303819,1,0,0,0.51299,unsorted_card,12,0,12,0,1,,,,,,,,,,,,,,,,,,,,,,,,,,,,,,,,,,,,,,,,,,,,,,,,,,,,,,,,,,,,,,,,,,,,,,,,,,,,,,,
,,,,,,,,,,00001591044,2020-10-18_18h57.57.768,swahili,2020.2.4,MacIntel,60,,,,,,,,,,0.469439019,-0.562664931,1,0,0,0.6651,done_pile,13,0,13,0,1,OATH - YAMINI,,,,,,,,,,,,,,,,,,,,,,,,,,,,,,,,,,,,,,,,,,,,,,,,,,,,,,,,,,,,,,,,,,,,,,,,,,,,,,
,,,,,,,,,,00001591044,2020-10-18_18h57.57.768,swahili,2020.2.4,MacIntel,60,,,,,,,,,,-0.270431858,-0.045651042,1,0,0,0.532415,unsorted_card,14,0,14,0,1,,,,,,,,,,,,,,,,,,,,,,,,,,,,,,,,,,,,,,,,,,,,,,,,,,,,,,,,,,,,,,,,,,,,,,,,,,,,,,,
,,,,,,,,,,00001591044,2020-10-18_18h57.57.768,swahili,2020.2.4,MacIntel,60,,,,,,,,,,0.375092231,-0.52078125,1,0,0,0.732145,done_pile,15,0,15,0,1,CORN - NAFAKA,,,,,,,,,,,,,,,,,,,,,,,,,,,,,,,,,,,,,,,,,,,,,,,,,,,,,,,,,,,,,,,,,,,,,,,,,,,,,,
,,,,,,,,,,00001591044,2020-10-18_18h57.57.768,swahili,2020.2.4,MacIntel,60,,,,,,,,,,-0.47561849,-0.025078125,1,0,0,0.512865,unsorted_card,16,0,16,0,1,,,,,,,,,,,,,,,,,,,,,,,,,,,,,,,,,,,,,,,,,,,,,,,,,,,,,,,,,,,,,,,,,,,,,,,,,,,,,,,
,,,,,,,,,,00001591044,2020-10-18_18h57.57.768,swahili,2020.2.4,MacIntel,60,,,,,,,,,,0.387575955,-0.474548611,1,0,0,0.61624,done_pile,17,0,17,0,1,POEM - UTENZI,,,,,,,,,,,,,,,,,,,,,,,,,,,,,,,,,,,,,,,,,,,,,,,,,,,,,,,,,,,,,,,,,,,,,,,,,,,,,,
,,,,,,,,,,00001591044,2020-10-18_18h57.57.768,swahili,2020.2.4,MacIntel,60,,,,,,,,,,-0.358403863,0.011875,1,0,0,0.49901,unsorted_card,18,0,18,0,1,,,,,,,,,,,,,,,,,,,,,,,,,,,,,,,,,,,,,,,,,,,,,,,,,,,,,,,,,,,,,,,,,,,,,,,,,,,,,,,
,,,,,,,,,,00001591044,2020-10-18_18h57.57.768,swahili,2020.2.4,MacIntel,60,,,,,,,,,,0.484440104,-0.522925347,1,0,0,0.66346,done_pile,19,0,19,0,1,TAILOR - MSHONI,,,,,,,,,,,,,,,,,,,,,,,,,,,,,,,,,,,,,,,,,,,,,,,,,,,,,,,,,,,,,,,,,,,,,,,,,,,,,,
,,,,,,,,,,00001591044,2020-10-18_18h57.57.768,swahili,2020.2.4,MacIntel,60,,,,,,,,,,-0.422791884,0.076675347,1,0,0,0.548155,unsorted_card,20,0,20,0,1,,,,,,,,,,,,,,,,,,,,,,,,,,,,,,,,,,,,,,,,,,,,,,,,,,,,,,,,,,,,,,,,,,,,,,,,,,,,,,,
,,,,,,,,,,00001591044,2020-10-18_18h57.57.768,swahili,2020.2.4,MacIntel,60,,,,,,,,,,0.504969618,-0.491293403,1,0,0,0.782415,done_pile,21,0,21,0,1,CHEESE - JIBINI,,,,,,,,,,,,,,,,,,,,,,,,,,,,,,,,,,,,,,,,,,,,,,,,,,,,,,,,,,,,,,,,,,,,,,,,,,,,,,
,,,,,,,,,,00001591044,2020-10-18_18h57.57.768,swahili,2020.2.4,MacIntel,60,,,,,,,,,,-0.263102214,-0.052508681,1,0,0,0.798175,unsorted_card,22,0,22,0,1,,,,,,,,,,,,,,,,,,,,,,,,,,,,,,,,,,,,,,,,,,,,,,,,,,,,,,,,,,,,,,,,,,,,,,,,,,,,,,,
,,,,,,,,,,00001591044,2020-10-18_18h57.57.768,swahili,2020.2.4,MacIntel,60,,,,,,,,,,0.417952474,-0.412291667,1,0,0,1.19906,done_pile,23,0,23,0,1,GRAPES - ZABIBU,,,,,,,,,,,,,,,,,,,,,,,,,,,,,,,,,,,,,,,,,,,,,,,,,,,,,,,,,,,,,,,,,,,,,,,,,,,,,,
,,,,,,,,,,00001591044,2020-10-18_18h57.57.768,swahili,2020.2.4,MacIntel,60,,,,,,,,,,-0.484299045,-0.006640625,1,0,0,0.51521,unsorted_card,24,0,24,0,1,,,,,,,,,,,,,,,,,,,,,,,,,,,,,,,,,,,,,,,,,,,,,,,,,,,,,,,,,,,,,,,,,,,,,,,,,,,,,,,
,,,,,,,,,,00001591044,2020-10-18_18h57.57.768,swahili,2020.2.4,MacIntel,60,,,,,,,,,,0.501291233,-0.590850694,1,0,0,0.79749,done_pile,25,0,25,0,1,GRAVE - KABURI,,,,,,,,,,,,,,,,,,,,,,,,,,,,,,,,,,,,,,,,,,,,,,,,,,,,,,,,,,,,,,,,,,,,,,,,,,,,,,
,,,,,,,,,,00001591044,2020-10-18_18h57.57.768,swahili,2020.2.4,MacIntel,60,,,,,,,,,,-0.588791233,0.081171875,1,0,0,0.448495,unsorted_card,26,0,26,0,1,,,,,,,,,,,,,,,,,,,,,,,,,,,,,,,,,,,,,,,,,,,,,,,,,,,,,,,,,,,,,,,,,,,,,,,,,,,,,,,
,,,,,,,,,,00001591044,2020-10-18_18h57.57.768,swahili,2020.2.4,MacIntel,60,,,,,,,,,,0.489550781,-0.620364583,1,0,0,0.749075,done_pile,27,0,27,0,1,MANURE - SAMADI,,,,,,,,,,,,,,,,,,,,,,,,,,,,,,,,,,,,,,,,,,,,,,,,,,,,,,,,,,,,,,,,,,,,,,,,,,,,,,
,,,,,,,,,,00001591044,2020-10-18_18h57.57.768,swahili,2020.2.4,MacIntel,60,,,,,,,,,,-0.261002604,-0.059730903,1,0,0,0.49763,unsorted_card,28,0,28,0,1,,,,,,,,,,,,,,,,,,,,,,,,,,,,,,,,,,,,,,,,,,,,,,,,,,,,,,,,,,,,,,,,,,,,,,,,,,,,,,,
,,,,,,,,,,00001591044,2020-10-18_18h57.57.768,swahili,2020.2.4,MacIntel,60,,,,,,,,,,0.668153212,-0.608888889,1,0,0,0.5813,done_pile,29,0,29,0,1,AGENT - WAKILI,,,,,,,,,,,,,,,,,,,,,,,,,,,,,,,,,,,,,,,,,,,,,,,,,,,,,,,,,,,,,,,,,,,,,,,,,,,,,,
,,,,,,,,,,00001591044,2020-10-18_18h57.57.768,swahili,2020.2.4,MacIntel,60,,,,,,,,,,-0.34429796,-0.031901042,1,0,0,0.59457,unsorted_card,30,0,30,0,1,,,,,,,,,,,,,,,,,,,,,,,,,,,,,,,,,,,,,,,,,,,,,,,,,,,,,,,,,,,,,,,,,,,,,,,,,,,,,,,
,,,,,,,,,,00001591044,2020-10-18_18h57.57.768,swahili,2020.2.4,MacIntel,60,,,,,,,,,,0.60874566,-0.492248264,1,0,0,0.71462,done_pile,31,0,31,0,1,BRIBE - RUSHWA,,,,,,,,,,,,,,,,,,,,,,,,,,,,,,,,,,,,,,,,,,,,,,,,,,,,,,,,,,,,,,,,,,,,,,,,,,,,,,
,,,,,,,,,,00001591044,2020-10-18_18h57.57.768,swahili,2020.2.4,MacIntel,60,,,,,,,,,,-0.357383898,-0.019583333,1,0,0,0.581115,unsorted_card,32,0,32,0,1,,,,,,,,,,,,,,,,,,,,,,,,,,,,,,,,,,,,,,,,,,,,,,,,,,,,,,,,,,,,,,,,,,,,,,,,,,,,,,,
,,,,,,,,,,00001591044,2020-10-18_18h57.57.768,swahili,2020.2.4,MacIntel,60,,,,,,,,,,0.624989149,-0.618689236,1,0,0,0.599765,done_pile,33,0,33,0,1,ORPHAN - YATIMA,,,,,,,,,,,,,,,,,,,,,,,,,,,,,,,,,,,,,,,,,,,,,,,,,,,,,,,,,,,,,,,,,,,,,,,,,,,,,,
,,,,,,,,,,00001591044,2020-10-18_18h57.57.768,swahili,2020.2.4,MacIntel,60,,,,,,,,,,-0.145274523,-0.298142361,1,0,0,0.561965,unsorted_card,34,0,34,0,1,,,,,,,,,,,,,,,,,,,,,,,,,,,,,,,,,,,,,,,,,,,,,,,,,,,,,,,,,,,,,,,,,,,,,,,,,,,,,,,
,,,,,,,,,,00001591044,2020-10-18_18h57.57.768,swahili,2020.2.4,MacIntel,60,,,,,,,,,,0.539067925,-0.623350694,1,0,0,0.731435,done_pile,35,0,35,0,1,DIVORCE - TALAKA,,,,,,,,,,,,,,,,,,,,,,,,,,,,,,,,,,,,,,,,,,,,,,,,,,,,,,,,,,,,,,,,,,,,,,,,,,,,,,
,,,,,,,,,,00001591044,2020-10-18_18h57.57.768,swahili,2020.2.4,MacIntel,60,,,,,,,,,,-0.448627387,0.229184028,1,0,0,0.48171,unsorted_card,36,0,36,0,1,,,,,,,,,,,,,,,,,,,,,,,,,,,,,,,,,,,,,,,,,,,,,,,,,,,,,,,,,,,,,,,,,,,,,,,,,,,,,,,
,,,,,,,,,,00001591044,2020-10-18_18h57.57.768,swahili,2020.2.4,MacIntel,60,,,,,,,,,,0.425661892,-0.491267361,1,0,0,0.88148,done_pile,37,0,37,0,1,BOAT - MASHUA,,,,,,,,,,,,,,,,,,,,,,,,,,,,,,,,,,,,,,,,,,,,,,,,,,,,,,,,,,,,,,,,,,,,,,,,,,,,,,
,,,,,,,,,,00001591044,2020-10-18_18h57.57.768,swahili,2020.2.4,MacIntel,60,,,,,,,,,,-0.415820313,0.047369792,1,0,0,0.53196,unsorted_card,38,0,38,0,1,,,,,,,,,,,,,,,,,,,,,,,,,,,,,,,,,,,,,,,,,,,,,,,,,,,,,,,,,,,,,,,,,,,,,,,,,,,,,,,
,,,,,,,,,,00001591044,2020-10-18_18h57.57.768,swahili,2020.2.4,MacIntel,60,,,,,,,,,,0.395285373,-0.447638889,1,0,0,1.41652,done_pile,39,0,39,0,1,TREASURE - DAFINA,,,,,,,,,,,,,,,,,,,,,,,,,,,,,,,,,,,,,,,,,,,,,,,,,,,,,,,,,,,,,,,,,,,,,,,,,,,,,,
,,,,,,,,,,00001591044,2020-10-18_18h57.57.768,swahili,2020.2.4,MacIntel,60,,,,,,,,,,,,,,,,,,,,,,,,,,,,,,,,,,,,,,,,,,,,,,,,,,,,,,,0,0,0,0,1,,,,,,,,,,,,,,,,,,,,,,,,,,,,,,,,,,,,,,,,,
,,,,,,,,,,00001591044,2020-10-18_18h57.57.768,swahili,2020.2.4,MacIntel,60,,,,,,,,,,,,,,,,,,,,,,,,,,,,,,,,,,,,,,,,,,,,,,,,,,,,,,,1,0,1,0,1,,,,,,,,,,,,,,,,,,,,,,,,,,,,,,,,,,,,,,,,,
,,,,,,,,,,00001591044,2020-10-18_18h57.57.768,swahili,2020.2.4,MacIntel,60,,,,,,,,JIBINI,CHEESE,,,,,,,,,,,,,,,,,,,,,,,,,,,,,,5.63704,,,,,,,,,JIBINI,correct,,,,,,,,,,,,,,,,return,1.567345,return,1.32142,return,5.48184,0,0,0,10,1,,,,,,,,,,,,,,,,,,,,,,,,,
,,,,,,,,,,00001591044,2020-10-18_18h57.57.768,swahili,2020.2.4,MacIntel,60,,,,,,,,ZABIBU,GRAPES,,,,,,,,,,,,,,,,,,,,,,,,,,,,,,16.462005,,,,,,,,,SAHANO,incorrect,,,,,,,,,,,,,,,,,,,,,,0,1,1,11,1,,,,,,,,,,,,,,,,,,,,,,,,,
,,,,,,,,,,00001591044,2020-10-18_18h57.57.768,swahili,2020.2.4,MacIntel,60,,,,,,,,YATIMA,ORPHAN,,,,,,,,,,,,,,,,,,,,,,,,,,,,,,26.69706,,,,,,,,,SHANI,incorrect,,,,,,,,,,,,,,,,,,,,,,0,2,2,16,1,,,,,,,,,,,,,,,,,,,,,,,,,
,,,,,,,,,,00001591044,2020-10-18_18h57.57.768,swahili,2020.2.4,MacIntel,60,,,,,,,,DAFINA,TREASURE,,,,,,,,,,,,,,,,,,,,,,,,,,,,,,4.314985,,,,,,,,,DAFINI,incorrect,,,,,,,,,,,,,,,,,,,,,,0,3,3,19,1,,,,,,,,,,,,,,,,,,,,,,,,,
,,,,,,,,,,00001591044,2020-10-18_18h57.57.768,swahili,2020.2.4,MacIntel,60,,,,,,,,HAMIRA,YEAST,,,,,,,,,,,,,,,,,,,,,,,,,,,,,,6.71485,,,,,,,,,HABANI,incorrect,,,,,,,,,,,,,,,,,,,,,,0,4,4,4,1,,,,,,,,,,,,,,,,,,,,,,,,,
,,,,,,,,,,00001591044,2020-10-18_18h57.57.768,swahili,2020.2.4,MacIntel,60,,,,,,,,YAMINI,OATH,,,,,,,,,,,,,,,,,,,,,,,,,,,,,,4.897875,,,,,,,,,HABANI,incorrect,,,,,,,,,,,,,,,,,,,,,,0,5,5,6,1,,,,,,,,,,,,,,,,,,,,,,,,,
,,,,,,,,,,00001591044,2020-10-18_18h57.57.768,swahili,2020.2.4,MacIntel,60,,,,,,,,UTENZI,POEM,,,,,,,,,,,,,,,,,,,,,,,,,,,,,,4.51379,,,,,,,,,UTENZI,correct,,,,,,,,,,,,,,,,,,,,,,0,6,6,8,1,,,,,,,,,,,,,,,,,,,,,,,,,
,,,,,,,,,,00001591044,2020-10-18_18h57.57.768,swahili,2020.2.4,MacIntel,60,,,,,,,,MASHUA,BOAT,,,,,,,,,,,,,,,,,,,,,,,,,,,,,,5.830335,,,,,,,,,MASHKU,incorrect,,,,,,,,,,,,,,,,,,,,,,0,7,7,18,1,,,,,,,,,,,,,,,,,,,,,,,,,
,,,,,,,,,,00001591044,2020-10-18_18h57.57.768,swahili,2020.2.4,MacIntel,60,,,,,,,,NAFAKA,CORN,,,,,,,,,,,,,,,,,,,,,,,,,,,,,,9.782015,,,,,,,,,SAMURI,incorrect,,,,,,,,,,,,,,,,,,,,,,0,8,8,7,1,,,,,,,,,,,,,,,,,,,,,,,,,
,,,,,,,,,,00001591044,2020-10-18_18h57.57.768,swahili,2020.2.4,MacIntel,60,,,,,,,,RUSHWA,BRIBE,,,,,,,,,,,,,,,,,,,,,,,,,,,,,,7.813885,,,,,,,,,RUSHWA,correct,,,,,,,,,,,,,,,,,,,,,,0,9,9,15,1,,,,,,,,,,,,,,,,,,,,,,,,,
,,,,,,,,,,00001591044,2020-10-18_18h57.57.768,swahili,2020.2.4,MacIntel,60,,,,,,,,SAMADI,MANURE,,,,,,,,,,,,,,,,,,,,,,,,,,,,,,6.131365,,,,,,,,,SAHANI,incorrect,,,,,,,,,,,,,,,,,,,,,,0,10,10,13,1,,,,,,,,,,,,,,,,,,,,,,,,,
,,,,,,,,,,00001591044,2020-10-18_18h57.57.768,swahili,2020.2.4,MacIntel,60,,,,,,,,KABURI,GRAVE,,,,,,,,,,,,,,,,,,,,,,,,,,,,,,7.86408,,,,,,,,,KABURI,correct,,,,,,,,,,,,,,,,,,,,,,0,11,11,12,1,,,,,,,,,,,,,,,,,,,,,,,,,
,,,,,,,,,,00001591044,2020-10-18_18h57.57.768,swahili,2020.2.4,MacIntel,60,,,,,,,,KASUKU,PARROT,,,,,,,,,,,,,,,,,,,,,,,,,,,,,,25.664745,,,,,,,,,GABANI,incorrect,,,,,,,,,,,,,,,,,,,,,,0,12,12,1,1,,,,,,,,,,,,,,,,,,,,,,,,,
,,,,,,,,,,00001591044,2020-10-18_18h57.57.768,swahili,2020.2.4,MacIntel,60,,,,,,,,FAHILI,BULL,,,,,,,,,,,,,,,,,,,,,,,,,,,,,,9.462775,,,,,,,,,BULL,incorrect,,,,,,,,,,,,,,,,,,,,,,0,13,13,2,1,,,,,,,,,,,,,,,,,,,,,,,,,
,,,,,,,,,,00001591044,2020-10-18_18h57.57.768,swahili,2020.2.4,MacIntel,60,,,,,,,,SAHANI,PLATE,,,,,,,,,,,,,,,,,,,,,,,,,,,,,,5.714305,,,,,,,,,RABUI,incorrect,,,,,,,,,,,,,,,,,,,,,,0,14,14,3,1,,,,,,,,,,,,,,,,,,,,,,,,,
,,,,,,,,,,00001591044,2020-10-18_18h57.57.768,swahili,2020.2.4,MacIntel,60,,,,,,,,LAWAMA,BLAME,,,,,,,,,,,,,,,,,,,,,,,,,,,,,,7.81573,,,,,,,,,SABURI,incorrect,,,,,,,,,,,,,,,,,,,,,,0,15,15,5,1,,,,,,,,,,,,,,,,,,,,,,,,,
,,,,,,,,,,00001591044,2020-10-18_18h57.57.768,swahili,2020.2.4,MacIntel,60,,,,,,,,WAKILI,AGENT,,,,,,,,,,,,,,,,,,,,,,,,,,,,,,7.880775,,,,,,,,,TAKINI,incorrect,,,,,,,,,,,,,,,,,,,,,,0,16,16,14,1,,,,,,,,,,,,,,,,,,,,,,,,,
,,,,,,,,,,00001591044,2020-10-18_18h57.57.768,swahili,2020.2.4,MacIntel,60,,,,,,,,MSHONI,TAILOR,,,,,,,,,,,,,,,,,,,,,,,,,,,,,,25.68008,,,,,,,,,MBURI,incorrect,,,,,,,,,,,,,,,,,,,,,,0,17,17,9,1,,,,,,,,,,,,,,,,,,,,,,,,,
,,,,,,,,,,00001591044,2020-10-18_18h57.57.768,swahili,2020.2.4,MacIntel,60,,,,,,,,TAJIRI,MERCHANT,,,,,,,,,,,,,,,,,,,,,,,,,,,,,,10.14888,,,,,,,,,TAZINI,incorrect,,,,,,,,,,,,,,,,,,,,,,0,18,18,0,1,,,,,,,,,,,,,,,,,,,,,,,,,
,,,,,,,,,,00001591044,2020-10-18_18h57.57.768,swahili,2020.2.4,MacIntel,60,,,,,,,,TALAKA,DIVORCE,,,,,,,,,,,,,,,,,,,,,,,,,,,,,,3.463315,,,,,,,,,TALAKA,correct,,,,,,,,,,,,,,,,,,,,,,0,19,19,17,1,,,,,,,,,,,,,,,,,,,,,,,,,
,,,,,,,,,,00001591044,2020-10-18_18h57.57.768,swahili,2020.2.4,MacIntel,60,,,,,,,,,,,,,,,,,,,,,,,,,,,,,,,,,,,,,,,,,,,,,,,,,,,,,,,,,,,,,,,,,,,,,,,,,,,,0,0,0,0,1,I bought all my goods from the ____ at the market. ,TAJIRI,,,,,,,,,,,,,,,,,,
,,,,,,,,,,00001591044,2020-10-18_18h57.57.768,swahili,2020.2.4,MacIntel,60,,,,,,,,,,,,,,,,,,,,,,,,,,,,,,,,,,,,,,,,,,,,,,,,,,,,,,,,,,,,,,,,,,,,,,,,,,,,0,1,1,1,1,The ____ is a bird that can learn to repeat words.,KASUKU,,,,,,,,,,,,,,,,,,
,,,,,,,,,,00001591044,2020-10-18_18h57.57.768,swahili,2020.2.4,MacIntel,60,,,,,,,,,,,,,,,,,,,,,,,,,,,,,,,,,,,,,,,,,,,,,,,,,,,,,,,,,,,,,,,,,,,,,,,,,,,,0,2,2,2,1,The ____ charged the matador's red cape. ,FAHILI,,,,,,,,,,,,,,,,,,
,,,,,,,,,,00001591044,2020-10-18_18h57.57.768,swahili,2020.2.4,MacIntel,60,,,,,,,,,,,,,,,,,,,,,,,,,,,,,,,,,,,,,,,,,,,,,,,,,,,,,,,,,,,,,,,,,,,,,,,,,,,,0,3,3,3,1,I filled my ____ with food at the buffet. ,SAHANI,,,,,,,,,,,,,,,,,,
,,,,,,,,,,00001591044,2020-10-18_18h57.57.768,swahili,2020.2.4,MacIntel,60,,,,,,,,,,,,,,,,,,,,,,,,,,,,,,,,,,,,,,,,,,,,,,,,,,,,,,,,,,,,,,,,,,,,,,,,,,,,0,4,4,4,1,_____ makes bread rise. ,HAMIRA,,,,,,,,,,,,,,,,,,
,,,,,,,,,,00001591044,2020-10-18_18h57.57.768,swahili,2020.2.4,MacIntel,60,,,,,,,,,,,,,,,,,,,,,,,,,,,,,,,,,,,,,,,,,,,,,,,,,,,,,,,,,,,,,,,,,,,,,,,,,,,,0,5,5,5,1,Shannon had no one else to  ____ for what happened.,LAWAMA,,,,,,,,,,,,,,,,,,
,,,,,,,,,,00001591044,2020-10-18_18h57.57.768,swahili,2020.2.4,MacIntel,60,,,,,,,,,,,,,,,,,,,,,,,,,,,,,,,,,,,,,,,,,,,,,,,,,,,,,,,,,,,,,,,,,,,,,,,,,,,,0,6,6,6,1,The president takes the  ____ of office to uphold the Constitution.,YAMINI,,,,,,,,,,,,,,,,,,
,,,,,,,,,,00001591044,2020-10-18_18h57.57.768,swahili,2020.2.4,MacIntel,60,,,,,,,,,,,,,,,,,,,,,,,,,,,,,,,,,,,,,,,,,,,,,,,,,,,,,,,,,,,,,,,,,,,,,,,,,,,,0,7,7,7,1,Kate doesn't like ____ on the cob because it gets stuck between her teeth. ,NAFAKA,,,,,,,,,,,,,,,,,,
,,,,,,,,,,00001591044,2020-10-18_18h57.57.768,swahili,2020.2.4,MacIntel,60,,,,,,,,,,,,,,,,,,,,,,,,,,,,,,,,,,,,,,,,,,,,,,,,,,,,,,,,,,,,,,,,,,,,,,,,,,,,0,8,8,8,1,David wrote Cynthia a romantic ____  but she thought it rhymed too much.,UTENZI,,,,,,,,,,,,,,,,,,
,,,,,,,,,,00001591044,2020-10-18_18h57.57.768,swahili,2020.2.4,MacIntel,60,,,,,,,,,,,,,,,,,,,,,,,,,,,,,,,,,,,,,,,,,,,,,,,,,,,,,,,,,,,,,,,,,,,,,,,,,,,,0,9,9,9,1,Charles went to the ____ to get his suit adjusted. ,MSHONI,,,,,,,,,,,,,,,,,,
,,,,,,,,,,00001591044,2020-10-18_18h57.57.768,swahili,2020.2.4,MacIntel,60,,,,,,,,,,,,,,,,,,,,,,,,,,,,,,,,,,,,,,,,,,,,,,,,,,,,,,,,,,,,,,,,,,,,,,,,,,,,0,10,10,10,1,Amy cooked a grilled ____ sandwich to go with her tomato soup.,JIBINI,,,,,,,,,,,,,,,,,,
,,,,,,,,,,00001591044,2020-10-18_18h57.57.768,swahili,2020.2.4,MacIntel,60,,,,,,,,,,,,,,,,,,,,,,,,,,,,,,,,,,,,,,,,,,,,,,,,,,,,,,,,,,,,,,,,,,,,,,,,,,,,0,11,11,11,1,Fermented _______ are used to make wine.,ZABIBU,,,,,,,,,,,,,,,,,,
,,,,,,,,,,00001591044,2020-10-18_18h57.57.768,swahili,2020.2.4,MacIntel,60,,,,,,,,,,,,,,,,,,,,,,,,,,,,,,,,,,,,,,,,,,,,,,,,,,,,,,,,,,,,,,,,,,,,,,,,,,,,0,12,12,12,1,She visited her father's ___ on the anniversary of his death. ,KABURI,,,,,,,,,,,,,,,,,,
,,,,,,,,,,00001591044,2020-10-18_18h57.57.768,swahili,2020.2.4,MacIntel,60,,,,,,,,,,,,,,,,,,,,,,,,,,,,,,,,,,,,,,,,,,,,,,,,,,,,,,,,,,,,,,,,,,,,,,,,,,,,0,13,13,13,1,"On a farm, there is a good chance you will step into a pile of ______.",SAMADI,,,,,,,,,,,,,,,,,,
,,,,,,,,,,00001591044,2020-10-18_18h57.57.768,swahili,2020.2.4,MacIntel,60,,,,,,,,,,,,,,,,,,,,,,,,,,,,,,,,,,,,,,,,,,,,,,,,,,,,,,,,,,,,,,,,,,,,,,,,,,,,0,14,14,14,1,"To buy a house, you may need to speak with a real estate ______.",WAKILI,,,,,,,,,,,,,,,,,,
,,,,,,,,,,00001591044,2020-10-18_18h57.57.768,swahili,2020.2.4,MacIntel,60,,,,,,,,,,,,,,,,,,,,,,,,,,,,,,,,,,,,,,,,,,,,,,,,,,,,,,,,,,,,,,,,,,,,,,,,,,,,0,15,15,15,1,The politician was arrested for taking a _____.,RUSHWA,,,,,,,,,,,,,,,,,,
,,,,,,,,,,00001591044,2020-10-18_18h57.57.768,swahili,2020.2.4,MacIntel,60,,,,,,,,,,,,,,,,,,,,,,,,,,,,,,,,,,,,,,,,,,,,,,,,,,,,,,,,,,,,,,,,,,,,,,,,,,,,0,16,16,16,1,The _____ is living with foster parents.,YATIMA,,,,,,,,,,,,,,,,,,
,,,,,,,,,,00001591044,2020-10-18_18h57.57.768,swahili,2020.2.4,MacIntel,60,,,,,,,,,,,,,,,,,,,,,,,,,,,,,,,,,,,,,,,,,,,,,,,,,,,,,,,,,,,,,,,,,,,,,,,,,,,,0,17,17,17,1,My aunt and uncle got a _________ after two years of marriage.,TALAKA,,,,,,,,,,,,,,,,,,
,,,,,,,,,,00001591044,2020-10-18_18h57.57.768,swahili,2020.2.4,MacIntel,60,,,,,,,,,,,,,,,,,,,,,,,,,,,,,,,,,,,,,,,,,,,,,,,,,,,,,,,,,,,,,,,,,,,,,,,,,,,,0,18,18,18,1,You need a ______ to go fishing in the middle of a lake.,MASHUA,,,,,,,,,,,,,,,,,,
,,,,,,,,,,00001591044,2020-10-18_18h57.57.768,swahili,2020.2.4,MacIntel,60,,,,,,,,,,,,,,,,,,,,,,,,,,,,,,,,,,,,,,,,,,,,,,,,,,,,,,,,,,,,,,,,,,,,,,,,,,,,0,19,19,19,1,Pirates looked for buried _________ at the bottom of the sea.,DAFINA,,,,,,,,,,,,,,,,,,
,,,,,,,,,,00001591044,2020-10-18_18h57.57.768,swahili,2020.2.4,MacIntel,60,,,,,,,,,,,,,,,,,,,,,,,,,,,,,,,,,,,,,,,,,,,,,,,,,,,,,,,,,,,,,,,,,,,,,,,,,,,,,,,,,David wrote Cynthia a romantic ____  but she thought it rhymed too much.,UTENZI,return,3.095975,UTENZI,correct,-0.036507161,-0.555833333,1,0,0,4.30921,b,0,0,0,8,1,,
,,,,,,,,,,00001591044,2020-10-18_18h57.57.768,swahili,2020.2.4,MacIntel,60,,,,,,,,,,,,,,,,,,,,,,,,,,,,,,,,,,,,,,,,,,,,,,,,,,,,,,,,,,,,,,,,,,,,,,,,,,,,,,,,,Pirates looked for buried _________ at the bottom of the sea.,DAFINA,,,DAFINA,correct,-0.588872613,-0.568706597,1,0,0,2.04378,a,0,1,1,19,1,,
,,,,,,,,,,00001591044,2020-10-18_18h57.57.768,swahili,2020.2.4,MacIntel,60,,,,,,,,,,,,,,,,,,,,,,,,,,,,,,,,,,,,,,,,,,,,,,,,,,,,,,,,,,,,,,,,,,,,,,,,,,,,,,,,,I bought all my goods from the ____ at the market. ,TAJIRI,,,TAJIRI,correct,0.520882161,-0.56609375,1,0,0,7.827285,c,0,2,2,0,1,,
,,,,,,,,,,00001591044,2020-10-18_18h57.57.768,swahili,2020.2.4,MacIntel,60,,,,,,,,,,,,,,,,,,,,,,,,,,,,,,,,,,,,,,,,,,,,,,,,,,,,,,,,,,,,,,,,,,,,,,,,,,,,,,,,,Amy cooked a grilled ____ sandwich to go with her tomato soup.,JIBINI,,,JIBINI,correct,0.01655816,-0.563741319,1,0,0,10.859945,b,0,3,3,10,1,,
,,,,,,,,,,00001591044,2020-10-18_18h57.57.768,swahili,2020.2.4,MacIntel,60,,,,,,,,,,,,,,,,,,,,,,,,,,,,,,,,,,,,,,,,,,,,,,,,,,,,,,,,,,,,,,,,,,,,,,,,,,,,,,,,,Kate doesn't like ____ on the cob because it gets stuck between her teeth. ,NAFAKA,,,NAFAKA,correct,0.423187934,-0.606354167,1,0,0,6.977475,c,0,4,4,7,1,,
,,,,,,,,,,00001591044,2020-10-18_18h57.57.768,swahili,2020.2.4,MacIntel,60,,,,,,,,,,,,,,,,,,,,,,,,,,,,,,,,,,,,,,,,,,,,,,,,,,,,,,,,,,,,,,,,,,,,,,,,,,,,,,,,,The ____ charged the matador's red cape. ,FAHILI,,,FAHILI,correct,-0.486745877,-0.523576389,1,0,0,7.5773,a,0,5,5,2,1,,
,,,,,,,,,,00001591044,2020-10-18_18h57.57.768,swahili,2020.2.4,MacIntel,60,,,,,,,,,,,,,,,,,,,,,,,,,,,,,,,,,,,,,,,,,,,,,,,,,,,,,,,,,,,,,,,,,,,,,,,,,,,,,,,,,Shannon had no one else to  ____ for what happened.,LAWAMA,,,HAMIRA,incorrect,-0.400971137,-0.619739583,1,0,0,13.427925,a,0,6,6,5,1,,
,,,,,,,,,,00001591044,2020-10-18_18h57.57.768,swahili,2020.2.4,MacIntel,60,,,,,,,,,,,,,,,,,,,,,,,,,,,,,,,,,,,,,,,,,,,,,,,,,,,,,,,,,,,,,,,,,,,,,,,,,,,,,,,,,You need a ______ to go fishing in the middle of a lake.,MASHUA,,,MASHUA,correct,0.006244575,-0.551744792,1,0,0,4.26002,b,0,7,7,18,1,,
,,,,,,,,,,00001591044,2020-10-18_18h57.57.768,swahili,2020.2.4,MacIntel,60,,,,,,,,,,,,,,,,,,,,,,,,,,,,,,,,,,,,,,,,,,,,,,,,,,,,,,,,,,,,,,,,,,,,,,,,,,,,,,,,,The politician was arrested for taking a _____.,RUSHWA,,,RUSHWA,correct,0.397309028,-0.523168403,1,0,0,4.628955,c,0,8,8,15,1,,
,,,,,,,,,,00001591044,2020-10-18_18h57.57.768,swahili,2020.2.4,MacIntel,60,,,,,,,,,,,,,,,,,,,,,,,,,,,,,,,,,,,,,,,,,,,,,,,,,,,,,,,,,,,,,,,,,,,,,,,,,,,,,,,,,Fermented _______ are used to make wine.,ZABIBU,,,ZABIBU,correct,0.397309028,-0.523168403,1,0,0,6.79217,c,0,9,9,11,1,,
,,,,,,,,,,00001591044,2020-10-18_18h57.57.768,swahili,2020.2.4,MacIntel,60,,,,,,,,,,,,,,,,,,,,,,,,,,,,,,,,,,,,,,,,,,,,,,,,,,,,,,,,,,,,,,,,,,,,,,,,,,,,,,,,,Charles went to the ____ to get his suit adjusted. ,MSHONI,,,MSHONI,correct,0.531315104,-0.615008681,1,0,0,5.528355,c,0,10,10,9,1,,
,,,,,,,,,,00001591044,2020-10-18_18h57.57.768,swahili,2020.2.4,MacIntel,60,,,,,,,,,,,,,,,,,,,,,,,,,,,,,,,,,,,,,,,,,,,,,,,,,,,,,,,,,,,,,,,,,,,,,,,,,,,,,,,,,"On a farm, there is a good chance you will step into a pile of ______.",SAMADI,,,SAMADI,correct,-0.512765842,-0.597256944,1,0,0,7.609835,a,0,11,11,13,1,,
,,,,,,,,,,00001591044,2020-10-18_18h57.57.768,swahili,2020.2.4,MacIntel,60,,,,,,,,,,,,,,,,,,,,,,,,,,,,,,,,,,,,,,,,,,,,,,,,,,,,,,,,,,,,,,,,,,,,,,,,,,,,,,,,,She visited her father's ___ on the anniversary of his death. ,KABURI,,,KABURI,correct,-0.378434245,-0.599704861,1,0,0,5.47821,a,0,12,12,12,1,,
,,,,,,,,,,00001591044,2020-10-18_18h57.57.768,swahili,2020.2.4,MacIntel,60,,,,,,,,,,,,,,,,,,,,,,,,,,,,,,,,,,,,,,,,,,,,,,,,,,,,,,,,,,,,,,,,,,,,,,,,,,,,,,,,,My aunt and uncle got a _________ after two years of marriage.,TALAKA,,,TALAKA,correct,0.059499783,-0.628454861,1,0,0,4.444255,b,0,13,13,17,1,,
,,,,,,,,,,00001591044,2020-10-18_18h57.57.768,swahili,2020.2.4,MacIntel,60,,,,,,,,,,,,,,,,,,,,,,,,,,,,,,,,,,,,,,,,,,,,,,,,,,,,,,,,,,,,,,,,,,,,,,,,,,,,,,,,,I filled my ____ with food at the buffet. ,SAHANI,,,KASUKU,incorrect,0.431911892,-0.556875,1,0,0,5.51062,c,0,14,14,3,1,,
,,,,,,,,,,00001591044,2020-10-18_18h57.57.768,swahili,2020.2.4,MacIntel,60,,,,,,,,,,,,,,,,,,,,,,,,,,,,,,,,,,,,,,,,,,,,,,,,,,,,,,,,,,,,,,,,,,,,,,,,,,,,,,,,,The president takes the  ____ of office to uphold the Constitution.,YAMINI,,,HAMIRA,incorrect,-0.146875,-0.454357639,1,0,0,15.827625,b,0,15,15,6,1,,
,,,,,,,,,,00001591044,2020-10-18_18h57.57.768,swahili,2020.2.4,MacIntel,60,,,,,,,,,,,,,,,,,,,,,,,,,,,,,,,,,,,,,,,,,,,,,,,,,,,,,,,,,,,,,,,,,,,,,,,,,,,,,,,,,"To buy a house, you may need to speak with a real estate ______.",WAKILI,,,TAJIRI,incorrect,-0.467523872,-0.484079861,1,0,0,6.327605,a,0,16,16,14,1,,
,,,,,,,,,,00001591044,2020-10-18_18h57.57.768,swahili,2020.2.4,MacIntel,60,,,,,,,,,,,,,,,,,,,,,,,,,,,,,,,,,,,,,,,,,,,,,,,,,,,,,,,,,,,,,,,,,,,,,,,,,,,,,,,,,_____ makes bread rise. ,HAMIRA,,,FAHILI,incorrect,0.160834418,-0.523038194,1,0,0,8.144375,b,0,17,17,4,1,,
,,,,,,,,,,00001591044,2020-10-18_18h57.57.768,swahili,2020.2.4,MacIntel,60,,,,,,,,,,,,,,,,,,,,,,,,,,,,,,,,,,,,,,,,,,,,,,,,,,,,,,,,,,,,,,,,,,,,,,,,,,,,,,,,,The _____ is living with foster parents.,YATIMA,,,YATIMA,correct,-0.018256293,-0.542013889,1,0,0,7.67791,b,0,18,18,16,1,,
,,,,,,,,,,00001591044,2020-10-18_18h57.57.768,swahili,2020.2.4,MacIntel,60,,,,,,,,,,,,,,,,,,,,,,,,,,,,,,,,,,,,,,,,,,,,,,,,,,,,,,,,,,,,,,,,,,,,,,,,,,,,,,,,,The ____ is a bird that can learn to repeat words.,KASUKU,,,KASUKU,correct,-0.018256293,-0.542013889,1,0,0,5.45945,b,0,19,19,1,1,,
,,,,,,,,,,00001591044,2020-10-18_18h57.57.768,swahili,2020.2.4,MacIntel,60,,,,,,,,,,,,,,,,,,,,,,,,,,,,,,,,,,,,,,,,,,,,,,,,,,,,,,,,,,,,,,,,,,,,,,,,,,,,,,,,,,,,,,,,,,,,,,,,,,,return,4.61964
