condition,consent_key.keys,consent_key.rt,done_with_instructions.keys,done_with_instructions.rt,instr_loop.thisRepN,instr_loop.thisTrialN,instr_loop.thisN,instr_loop.thisIndex,instr_loop.ran,Student ID #,date,expName,psychopyVersion,OS,frameRate,instr_learning_key.keys,instr_learning_key.rt,card_gen_loop.thisRepN,card_gen_loop.thisTrialN,card_gen_loop.thisN,card_gen_loop.thisIndex,card_gen_loop.ran,swa,eng,choose_pile.x,choose_pile.y,choose_pile.leftButton,choose_pile.midButton,choose_pile.rightButton,choose_pile.time,choose_pile.clicked_name,choices.thisRepN,choices.thisTrialN,choices.thisN,choices.thisIndex,choices.ran,card_to_show,mouse_pick.x,mouse_pick.y,mouse_pick.leftButton,mouse_pick.midButton,mouse_pick.rightButton,mouse_pick.time,mouse_pick.clicked_name,key_instr_study.keys,next_study.keys,study_loop.thisRepN,study_loop.thisTrialN,study_loop.thisN,study_loop.thisIndex,study_loop.ran,key_instr_test.keys,key_instr_test.rt,duration,yes_or_no.x,yes_or_no.y,yes_or_no.leftButton,yes_or_no.midButton,yes_or_no.rightButton,yes_or_no.time,yes_or_no.clicked_name,test_response.stim,test_response.resp,test_response.eval,test_loop.thisRepN,test_loop.thisTrialN,test_loop.thisN,test_loop.thisIndex,test_loop.ran,learn_loop.thisRepN,learn_loop.thisTrialN,learn_loop.thisN,learn_loop.thisIndex,learn_loop.ran,key_instr_study.rt,next_study.rt,trials.thisRepN,trials.thisTrialN,trials.thisN,trials.thisIndex,trials.ran
2,return,5.023,return,2.817,0,0,0,0,1,1576735,2020-10-26_15h48.58.557,swahili,2020.2.4,MacIntel,60,,,,,,,,,,,,,,,,,,,,,,,,,,,,,,,,,,,,,,,,,,,,,,,,,,,,,,,,,,,,,,,,,,
,,,return,3.408,1,0,1,0,1,1576735,2020-10-26_15h48.58.557,swahili,2020.2.4,MacIntel,60,,,,,,,,,,,,,,,,,,,,,,,,,,,,,,,,,,,,,,,,,,,,,,,,,,,,,,,,,,,,,,,,,,
,,,,,,,,,,1576735,2020-10-26_15h48.58.557,swahili,2020.2.4,MacIntel,60,return,16.813,0,0,0,0,1,TAJIRI,MERCHANT,,,,,,,,,,,,,,,,,,,,,,,,,,,,,,,,,,,,,,,,,,,,,,,,,,,,,,,,,
,,,,,,,,,,1576735,2020-10-26_15h48.58.557,swahili,2020.2.4,MacIntel,60,,,0,1,1,1,1,KASUKU,PARROT,,,,,,,,,,,,,,,,,,,,,,,,,,,,,,,,,,,,,,,,,,,,,,,,,,,,,,,,,
,,,,,,,,,,1576735,2020-10-26_15h48.58.557,swahili,2020.2.4,MacIntel,60,,,0,2,2,2,1,FAHILI,BULL,,,,,,,,,,,,,,,,,,,,,,,,,,,,,,,,,,,,,,,,,,,,,,,,,,,,,,,,,
,,,,,,,,,,1576735,2020-10-26_15h48.58.557,swahili,2020.2.4,MacIntel,60,,,0,3,3,3,1,SAHANI,PLATE,,,,,,,,,,,,,,,,,,,,,,,,,,,,,,,,,,,,,,,,,,,,,,,,,,,,,,,,,
,,,,,,,,,,1576735,2020-10-26_15h48.58.557,swahili,2020.2.4,MacIntel,60,,,0,4,4,4,1,HAMIRA,YEAST,,,,,,,,,,,,,,,,,,,,,,,,,,,,,,,,,,,,,,,,,,,,,,,,,,,,,,,,,
,,,,,,,,,,1576735,2020-10-26_15h48.58.557,swahili,2020.2.4,MacIntel,60,,,0,5,5,5,1,LAWAMA,BLAME,,,,,,,,,,,,,,,,,,,,,,,,,,,,,,,,,,,,,,,,,,,,,,,,,,,,,,,,,
,,,,,,,,,,1576735,2020-10-26_15h48.58.557,swahili,2020.2.4,MacIntel,60,,,0,6,6,6,1,YAMINI,OATH,,,,,,,,,,,,,,,,,,,,,,,,,,,,,,,,,,,,,,,,,,,,,,,,,,,,,,,,,
,,,,,,,,,,1576735,2020-10-26_15h48.58.557,swahili,2020.2.4,MacIntel,60,,,0,7,7,7,1,NAFAKA,CORN,,,,,,,,,,,,,,,,,,,,,,,,,,,,,,,,,,,,,,,,,,,,,,,,,,,,,,,,,
,,,,,,,,,,1576735,2020-10-26_15h48.58.557,swahili,2020.2.4,MacIntel,60,,,0,8,8,8,1,UTENZI,POEM,,,,,,,,,,,,,,,,,,,,,,,,,,,,,,,,,,,,,,,,,,,,,,,,,,,,,,,,,
,,,,,,,,,,1576735,2020-10-26_15h48.58.557,swahili,2020.2.4,MacIntel,60,,,0,9,9,9,1,MSHONI,TAILOR,,,,,,,,,,,,,,,,,,,,,,,,,,,,,,,,,,,,,,,,,,,,,,,,,,,,,,,,,
,,,,,,,,,,1576735,2020-10-26_15h48.58.557,swahili,2020.2.4,MacIntel,60,,,0,10,10,10,1,JIBINI,CHEESE,,,,,,,,,,,,,,,,,,,,,,,,,,,,,,,,,,,,,,,,,,,,,,,,,,,,,,,,,
,,,,,,,,,,1576735,2020-10-26_15h48.58.557,swahili,2020.2.4,MacIntel,60,,,0,11,11,11,1,ZABIBU,GRAPES,,,,,,,,,,,,,,,,,,,,,,,,,,,,,,,,,,,,,,,,,,,,,,,,,,,,,,,,,
,,,,,,,,,,1576735,2020-10-26_15h48.58.557,swahili,2020.2.4,MacIntel,60,,,0,12,12,12,1,KABURI,GRAVE,,,,,,,,,,,,,,,,,,,,,,,,,,,,,,,,,,,,,,,,,,,,,,,,,,,,,,,,,
,,,,,,,,,,1576735,2020-10-26_15h48.58.557,swahili,2020.2.4,MacIntel,60,,,0,13,13,13,1,SAMADI,MANURE,,,,,,,,,,,,,,,,,,,,,,,,,,,,,,,,,,,,,,,,,,,,,,,,,,,,,,,,,
,,,,,,,,,,1576735,2020-10-26_15h48.58.557,swahili,2020.2.4,MacIntel,60,,,0,14,14,14,1,WAKILI,AGENT,,,,,,,,,,,,,,,,,,,,,,,,,,,,,,,,,,,,,,,,,,,,,,,,,,,,,,,,,
,,,,,,,,,,1576735,2020-10-26_15h48.58.557,swahili,2020.2.4,MacIntel,60,,,0,15,15,15,1,RUSHWA,BRIBE,,,,,,,,,,,,,,,,,,,,,,,,,,,,,,,,,,,,,,,,,,,,,,,,,,,,,,,,,
,,,,,,,,,,1576735,2020-10-26_15h48.58.557,swahili,2020.2.4,MacIntel,60,,,0,16,16,16,1,YATIMA,ORPHAN,,,,,,,,,,,,,,,,,,,,,,,,,,,,,,,,,,,,,,,,,,,,,,,,,,,,,,,,,
,,,,,,,,,,1576735,2020-10-26_15h48.58.557,swahili,2020.2.4,MacIntel,60,,,0,17,17,17,1,TALAKA,DIVORCE,,,,,,,,,,,,,,,,,,,,,,,,,,,,,,,,,,,,,,,,,,,,,,,,,,,,,,,,,
,,,,,,,,,,1576735,2020-10-26_15h48.58.557,swahili,2020.2.4,MacIntel,60,,,0,18,18,18,1,MASHUA,BOAT,,,,,,,,,,,,,,,,,,,,,,,,,,,,,,,,,,,,,,,,,,,,,,,,,,,,,,,,,
,,,,,,,,,,1576735,2020-10-26_15h48.58.557,swahili,2020.2.4,MacIntel,60,,,0,19,19,19,1,DAFINA,TREASURE,,,,,,,,,,,,,,,,,,,,,,,,,,,,,,,,,,,,,,,,,,,,,,,,,,,,,,,,,
,,,,,,,,,,1576735,2020-10-26_15h48.58.557,swahili,2020.2.4,MacIntel,60,,,,,,,,,,-0.452991453,-0.008902077,1,0,0,4.802,unsorted_card,0,0,0,0,1,,,,,,,,,,,,,,,,,,,,,,,,,,,,,,,,,,,,,,,,,,,,,
,,,,,,,,,,1576735,2020-10-26_15h48.58.557,swahili,2020.2.4,MacIntel,60,,,,,,,,,,-0.427350427,-0.011869436,1,0,0,3.727,unsorted_card,1,0,1,0,1,MERCHANT - TAJIRI,,,,,,,,,,,,,,,,,,,,,,,,,,,,,,,,,,,,,,,,,,,,
,,,,,,,,,,1576735,2020-10-26_15h48.58.557,swahili,2020.2.4,MacIntel,60,,,,,,,,,,0.478632479,0.445103858,1,0,0,17.665,study_pile,2,0,2,0,1,MERCHANT - TAJIRI,,,,,,,,,,,,,,,,,,,,,,,,,,,,,,,,,,,,,,,,,,,,
,,,,,,,,,,1576735,2020-10-26_15h48.58.557,swahili,2020.2.4,MacIntel,60,,,,,,,,,,-0.314102564,-0.005934718,1,0,0,1.099,unsorted_card,3,0,3,0,1,,,,,,,,,,,,,,,,,,,,,,,,,,,,,,,,,,,,,,,,,,,,,
,,,,,,,,,,1576735,2020-10-26_15h48.58.557,swahili,2020.2.4,MacIntel,60,,,,,,,,,,0.461538462,-0.038575668,1,0,0,2.364,test_pile,4,0,4,0,1,PARROT - KASUKU,,,,,,,,,,,,,,,,,,,,,,,,,,,,,,,,,,,,,,,,,,,,
,,,,,,,,,,1576735,2020-10-26_15h48.58.557,swahili,2020.2.4,MacIntel,60,,,,,,,,,,-0.361111111,-0.014836795,1,0,0,0.698,unsorted_card,5,0,5,0,1,,,,,,,,,,,,,,,,,,,,,,,,,,,,,,,,,,,,,,,,,,,,,
,,,,,,,,,,1576735,2020-10-26_15h48.58.557,swahili,2020.2.4,MacIntel,60,,,,,,,,,,0.427350427,0.465875371,1,0,0,1.516,study_pile,6,0,6,0,1,BULL - FAHILI,,,,,,,,,,,,,,,,,,,,,,,,,,,,,,,,,,,,,,,,,,,,
,,,,,,,,,,1576735,2020-10-26_15h48.58.557,swahili,2020.2.4,MacIntel,60,,,,,,,,,,-0.282051282,0.112759644,1,0,0,0.716,unsorted_card,7,0,7,0,1,,,,,,,,,,,,,,,,,,,,,,,,,,,,,,,,,,,,,,,,,,,,,
,,,,,,,,,,1576735,2020-10-26_15h48.58.557,swahili,2020.2.4,MacIntel,60,,,,,,,,,,0.448717949,0.456973294,1,0,0,3.249,study_pile,8,0,8,0,1,PLATE - SAHANI,,,,,,,,,,,,,,,,,,,,,,,,,,,,,,,,,,,,,,,,,,,,
,,,,,,,,,,1576735,2020-10-26_15h48.58.557,swahili,2020.2.4,MacIntel,60,,,,,,,,,,-0.243589744,0.041543027,1,0,0,2.129,unsorted_card,9,0,9,0,1,,,,,,,,,,,,,,,,,,,,,,,,,,,,,,,,,,,,,,,,,,,,,
,,,,,,,,,,1576735,2020-10-26_15h48.58.557,swahili,2020.2.4,MacIntel,60,,,,,,,,,,0.491452991,0.415430267,1,0,0,5.815,study_pile,10,0,10,0,1,YEAST - HAMIRA,,,,,,,,,,,,,,,,,,,,,,,,,,,,,,,,,,,,,,,,,,,,
,,,,,,,,,,1576735,2020-10-26_15h48.58.557,swahili,2020.2.4,MacIntel,60,,,,,,,,,,-0.247863248,0.059347181,1,0,0,0.597,unsorted_card,11,0,11,0,1,,,,,,,,,,,,,,,,,,,,,,,,,,,,,,,,,,,,,,,,,,,,,
,,,,,,,,,,1576735,2020-10-26_15h48.58.557,swahili,2020.2.4,MacIntel,60,,,,,,,,,,0.427350427,0.439169139,1,0,0,5.767,study_pile,12,0,12,0,1,BLAME - LAWAMA,,,,,,,,,,,,,,,,,,,,,,,,,,,,,,,,,,,,,,,,,,,,
,,,,,,,,,,1576735,2020-10-26_15h48.58.557,swahili,2020.2.4,MacIntel,60,,,,,,,,,,-0.222222222,0.091988131,1,0,0,0.948,unsorted_card,13,0,13,0,1,,,,,,,,,,,,,,,,,,,,,,,,,,,,,,,,,,,,,,,,,,,,,
,,,,,,,,,,1576735,2020-10-26_15h48.58.557,swahili,2020.2.4,MacIntel,60,,,,,,,,,,0.495726496,-0.421364985,1,0,0,4.649,done_pile,14,0,14,0,1,OATH - YAMINI,,,,,,,,,,,,,,,,,,,,,,,,,,,,,,,,,,,,,,,,,,,,
,,,,,,,,,,1576735,2020-10-26_15h48.58.557,swahili,2020.2.4,MacIntel,60,,,,,,,,,,-0.333333333,-0.050445104,1,0,0,0.764,unsorted_card,15,0,15,0,1,,,,,,,,,,,,,,,,,,,,,,,,,,,,,,,,,,,,,,,,,,,,,
,,,,,,,,,,1576735,2020-10-26_15h48.58.557,swahili,2020.2.4,MacIntel,60,,,,,,,,,,0.448717949,-0.041543027,1,0,0,2.366,test_pile,16,0,16,0,1,CORN - NAFAKA,,,,,,,,,,,,,,,,,,,,,,,,,,,,,,,,,,,,,,,,,,,,
,,,,,,,,,,1576735,2020-10-26_15h48.58.557,swahili,2020.2.4,MacIntel,60,,,,,,,,,,-0.271367521,-0.026706231,1,0,0,0.683,unsorted_card,17,0,17,0,1,,,,,,,,,,,,,,,,,,,,,,,,,,,,,,,,,,,,,,,,,,,,,
,,,,,,,,,,1576735,2020-10-26_15h48.58.557,swahili,2020.2.4,MacIntel,60,,,,,,,,,,0.555555556,-0.077151335,1,0,0,7.398,test_pile,18,0,18,0,1,POEM - UTENZI,,,,,,,,,,,,,,,,,,,,,,,,,,,,,,,,,,,,,,,,,,,,
,,,,,,,,,,1576735,2020-10-26_15h48.58.557,swahili,2020.2.4,MacIntel,60,,,,,,,,,,-0.320512821,0.029673591,1,0,0,3.748,unsorted_card,19,0,19,0,1,,,,,,,,,,,,,,,,,,,,,,,,,,,,,,,,,,,,,,,,,,,,,
,,,,,,,,,,1576735,2020-10-26_15h48.58.557,swahili,2020.2.4,MacIntel,60,,,,,,,,,,0.472222222,0.40652819,1,0,0,2.782,study_pile,20,0,20,0,1,TAILOR - MSHONI,,,,,,,,,,,,,,,,,,,,,,,,,,,,,,,,,,,,,,,,,,,,
,,,,,,,,,,1576735,2020-10-26_15h48.58.557,swahili,2020.2.4,MacIntel,60,,,,,,,,,,-0.403846154,-0.21958457,1,0,0,0.696,unsorted_card,21,0,21,0,1,,,,,,,,,,,,,,,,,,,,,,,,,,,,,,,,,,,,,,,,,,,,,
,,,,,,,,,,1576735,2020-10-26_15h48.58.557,swahili,2020.2.4,MacIntel,60,,,,,,,,,,0.517094017,-0.50148368,1,0,0,2.684,done_pile,22,0,22,0,1,CHEESE - JIBINI,,,,,,,,,,,,,,,,,,,,,,,,,,,,,,,,,,,,,,,,,,,,
,,,,,,,,,,1576735,2020-10-26_15h48.58.557,swahili,2020.2.4,MacIntel,60,,,,,,,,,,-0.258547009,0.002967359,1,0,0,0.681,unsorted_card,23,0,23,0,1,,,,,,,,,,,,,,,,,,,,,,,,,,,,,,,,,,,,,,,,,,,,,
,,,,,,,,,,1576735,2020-10-26_15h48.58.557,swahili,2020.2.4,MacIntel,60,,,,,,,,,,0.489316239,-0.433234421,1,0,0,2.099,done_pile,24,0,24,0,1,GRAPES - ZABIBU,,,,,,,,,,,,,,,,,,,,,,,,,,,,,,,,,,,,,,,,,,,,
,,,,,,,,,,1576735,2020-10-26_15h48.58.557,swahili,2020.2.4,MacIntel,60,,,,,,,,,,-0.352564103,-0.172106825,1,0,0,0.482,unsorted_card,25,0,25,0,1,,,,,,,,,,,,,,,,,,,,,,,,,,,,,,,,,,,,,,,,,,,,,
,,,,,,,,,,1576735,2020-10-26_15h48.58.557,swahili,2020.2.4,MacIntel,60,,,,,,,,,,0.435897436,-0.017804154,1,0,0,1.917,test_pile,26,0,26,0,1,GRAVE - KABURI,,,,,,,,,,,,,,,,,,,,,,,,,,,,,,,,,,,,,,,,,,,,
,,,,,,,,,,1576735,2020-10-26_15h48.58.557,swahili,2020.2.4,MacIntel,60,,,,,,,,,,-0.775641026,-0.026706231,1,0,0,0.447,unsorted_card,27,0,27,0,1,,,,,,,,,,,,,,,,,,,,,,,,,,,,,,,,,,,,,,,,,,,,,
,,,,,,,,,,1576735,2020-10-26_15h48.58.557,swahili,2020.2.4,MacIntel,60,,,,,,,,,,0.493589744,0.412462908,1,0,0,2.75,study_pile,28,0,28,0,1,MANURE - SAMADI,,,,,,,,,,,,,,,,,,,,,,,,,,,,,,,,,,,,,,,,,,,,
,,,,,,,,,,1576735,2020-10-26_15h48.58.557,swahili,2020.2.4,MacIntel,60,,,,,,,,,,-0.096153846,0.15727003,1,0,0,0.465,unsorted_card,29,0,29,0,1,,,,,,,,,,,,,,,,,,,,,,,,,,,,,,,,,,,,,,,,,,,,,
,,,,,,,,,,1576735,2020-10-26_15h48.58.557,swahili,2020.2.4,MacIntel,60,,,,,,,,,,0.465811966,0.448071217,1,0,0,2.448,study_pile,30,0,30,0,1,AGENT - WAKILI,,,,,,,,,,,,,,,,,,,,,,,,,,,,,,,,,,,,,,,,,,,,
,,,,,,,,,,1576735,2020-10-26_15h48.58.557,swahili,2020.2.4,MacIntel,60,,,,,,,,,,-0.382478632,0.017804154,1,0,0,0.665,unsorted_card,31,0,31,0,1,,,,,,,,,,,,,,,,,,,,,,,,,,,,,,,,,,,,,,,,,,,,,
,,,,,,,,,,1576735,2020-10-26_15h48.58.557,swahili,2020.2.4,MacIntel,60,,,,,,,,,,0.472222222,0.456973294,1,0,0,11.633,study_pile,32,0,32,0,1,BRIBE - RUSHWA,,,,,,,,,,,,,,,,,,,,,,,,,,,,,,,,,,,,,,,,,,,,
,,,,,,,,,,1576735,2020-10-26_15h48.58.557,swahili,2020.2.4,MacIntel,60,,,,,,,,,,-0.292735043,0.071216617,1,0,0,0.631,unsorted_card,33,0,33,0,1,,,,,,,,,,,,,,,,,,,,,,,,,,,,,,,,,,,,,,,,,,,,,
,,,,,,,,,,1576735,2020-10-26_15h48.58.557,swahili,2020.2.4,MacIntel,60,,,,,,,,,,0.446581197,-0.445103858,1,0,0,2.715,done_pile,34,0,34,0,1,ORPHAN - YATIMA,,,,,,,,,,,,,,,,,,,,,,,,,,,,,,,,,,,,,,,,,,,,
,,,,,,,,,,1576735,2020-10-26_15h48.58.557,swahili,2020.2.4,MacIntel,60,,,,,,,,,,-0.363247863,-0.065281899,1,0,0,0.432,unsorted_card,35,0,35,0,1,,,,,,,,,,,,,,,,,,,,,,,,,,,,,,,,,,,,,,,,,,,,,
,,,,,,,,,,1576735,2020-10-26_15h48.58.557,swahili,2020.2.4,MacIntel,60,,,,,,,,,,0.39957265,-0.50148368,1,0,0,1.848,done_pile,36,0,36,0,1,DIVORCE - TALAKA,,,,,,,,,,,,,,,,,,,,,,,,,,,,,,,,,,,,,,,,,,,,
,,,,,,,,,,1576735,2020-10-26_15h48.58.557,swahili,2020.2.4,MacIntel,60,,,,,,,,,,-0.205128205,-0.163204748,1,0,0,0.582,unsorted_card,37,0,37,0,1,,,,,,,,,,,,,,,,,,,,,,,,,,,,,,,,,,,,,,,,,,,,,
,,,,,,,,,,1576735,2020-10-26_15h48.58.557,swahili,2020.2.4,MacIntel,60,,,,,,,,,,0.64957265,-0.053412463,1,0,0,1.849,test_pile,38,0,38,0,1,BOAT - MASHUA,,,,,,,,,,,,,,,,,,,,,,,,,,,,,,,,,,,,,,,,,,,,
,,,,,,,,,,1576735,2020-10-26_15h48.58.557,swahili,2020.2.4,MacIntel,60,,,,,,,,,,-0.25,-0.029673591,1,0,0,0.515,unsorted_card,39,0,39,0,1,,,,,,,,,,,,,,,,,,,,,,,,,,,,,,,,,,,,,,,,,,,,,
,,,,,,,,,,1576735,2020-10-26_15h48.58.557,swahili,2020.2.4,MacIntel,60,,,,,,,,,,0.408119658,0.459940653,1,0,0,1.315,study_pile,40,0,40,0,1,TREASURE - DAFINA,,,,,,,,,,,,,,,,,,,,,,,,,,,,,,,,,,,,,,,,,,,,
,,,,,,,,,,1576735,2020-10-26_15h48.58.557,swahili,2020.2.4,MacIntel,60,,,,,,,,,,,,,,,,,,,,,,,0.570512821,0.050445104,1,0,0,3.812,test_first,,,0,0,0,0,1,,,,,,,,,,,,,,,,,,,,,,,,,,,,,,
,,,,,,,,,,1576735,2020-10-26_15h48.58.557,swahili,2020.2.4,MacIntel,60,,,,,,,,,,,,,,,,,,,,,,,,,,,,,,,,,,,,,return,3.862,12.598,0.429487179,-0.050445104,1,0,0,3.779,yes,PARROT,YIMINI,incorrect,0,0,0,0,1,,,,,,,,,,,,
,,,,,,,,,,1576735,2020-10-26_15h48.58.557,swahili,2020.2.4,MacIntel,60,,,,,,,,,,,,,,,,,,,,,,,,,,,,,,,,,,,,,,,3.365,0.457264957,0.118694362,1,0,0,1.115,yes,POEM,IDK,incorrect,1,0,1,0,1,,,,,,,,,,,,
,,,,,,,,,,1576735,2020-10-26_15h48.58.557,swahili,2020.2.4,MacIntel,60,,,,,,,,,,,,,,,,,,,,,,,,,,,,,,,,,,,,,,,7.232,0.391025641,-0.127596439,1,0,0,0.849,yes,GRAVE,LALIK,incorrect,2,0,2,0,1,,,,,,,,,,,,
,,,,,,,,,,1576735,2020-10-26_15h48.58.557,swahili,2020.2.4,MacIntel,60,,,,,,,,,,,,,,,,,,,,,,,,,,,,,,,,,,,,,,,2.95,0.376068376,-0.011869436,1,0,0,0.665,yes,CORN,MALAN,incorrect,3,0,3,0,1,,,,,,,,,,,,
,,,,,,,,,,1576735,2020-10-26_15h48.58.557,swahili,2020.2.4,MacIntel,60,,,,,,,,,,,,,,,,,,,,,,,,,,,,,,,,,,,,,,,7.932,0.397435897,-0.106824926,1,0,0,0.9,yes,BOAT,IDK,incorrect,4,0,4,0,1,,,,,,,,,,,,
,,,,,,,,,,1576735,2020-10-26_15h48.58.557,swahili,2020.2.4,MacIntel,60,,,,,,,,,,,,,,,,,,,,,,,,,,,,,,,,,,,,,,,,,,,,,,,,,,,,,,,0,0,0,0,1,,,,,,,
,,,,,,,,,,1576735,2020-10-26_15h48.58.557,swahili,2020.2.4,MacIntel,60,,,,,,,,,,,,,,,,,,,,,,BLAME - LAWAMA,,,,,,,,return,return,0,0,0,0,1,,,,,,,,,,,,,,,,,,,,,,,,3.039,6.872,,,,,
,,,,,,,,,,1576735,2020-10-26_15h48.58.557,swahili,2020.2.4,MacIntel,60,,,,,,,,,,,,,,,,,,,,,,MANURE - SAMADI,,,,,,,,,return,1,0,1,0,1,,,,,,,,,,,,,,,,,,,,,,,,,2.314,,,,,
,,,,,,,,,,1576735,2020-10-26_15h48.58.557,swahili,2020.2.4,MacIntel,60,,,,,,,,,,,,,,,,,,,,,,YEAST - HAMIRA,,,,,,,,,return,2,0,2,0,1,,,,,,,,,,,,,,,,,,,,,,,,,1.639,,,,,
,,,,,,,,,,1576735,2020-10-26_15h48.58.557,swahili,2020.2.4,MacIntel,60,,,,,,,,,,,,,,,,,,,,,,TAILOR - MSHONI,,,,,,,,,return,3,0,3,0,1,,,,,,,,,,,,,,,,,,,,,,,,,1.152,,,,,
,,,,,,,,,,1576735,2020-10-26_15h48.58.557,swahili,2020.2.4,MacIntel,60,,,,,,,,,,,,,,,,,,,,,,TREASURE - DAFINA,,,,,,,,,return,4,0,4,0,1,,,,,,,,,,,,,,,,,,,,,,,,,0.656,,,,,
,,,,,,,,,,1576735,2020-10-26_15h48.58.557,swahili,2020.2.4,MacIntel,60,,,,,,,,,,,,,,,,,,,,,,AGENT - WAKILI,,,,,,,,,return,5,0,5,0,1,,,,,,,,,,,,,,,,,,,,,,,,,0.481,,,,,
,,,,,,,,,,1576735,2020-10-26_15h48.58.557,swahili,2020.2.4,MacIntel,60,,,,,,,,,,,,,,,,,,,,,,BULL - FAHILI,,,,,,,,,return,6,0,6,0,1,,,,,,,,,,,,,,,,,,,,,,,,,0.431,,,,,
,,,,,,,,,,1576735,2020-10-26_15h48.58.557,swahili,2020.2.4,MacIntel,60,,,,,,,,,,,,,,,,,,,,,,PLATE - SAHANI,,,,,,,,,return,7,0,7,0,1,,,,,,,,,,,,,,,,,,,,,,,,,0.42,,,,,
,,,,,,,,,,1576735,2020-10-26_15h48.58.557,swahili,2020.2.4,MacIntel,60,,,,,,,,,,,,,,,,,,,,,,MERCHANT - TAJIRI,,,,,,,,,return,8,0,8,0,1,,,,,,,,,,,,,,,,,,,,,,,,,0.428,,,,,
,,,,,,,,,,1576735,2020-10-26_15h48.58.557,swahili,2020.2.4,MacIntel,60,,,,,,,,,,,,,,,,,,,,,,BRIBE - RUSHWA,,,,,,,,,return,9,0,9,0,1,,,,,,,,,,,,,,,,,,,,,,,,,0.387,,,,,
,,,,,,,,,,1576735,2020-10-26_15h48.58.557,swahili,2020.2.4,MacIntel,60,,,,,,,,,,,,,,,,,,,,,,,,,,,,,,,,,,,,,,,,,,,,,,,,,,,,,,,1,0,1,0,1,,,,,,,
,,,,,,,,,,1576735,2020-10-26_15h48.58.557,swahili,2020.2.4,MacIntel,60,,,,,,,,,,,,,,,,,,,,,,,,,,,,,,,,,,,,,,,,,,,,,,,,,,,,,,,,,,,,,,0,0,0,0,1
,,,,,,,,,,1576735,2020-10-26_15h48.58.557,swahili,2020.2.4,MacIntel,60,,,,,,,,,,-0.297008547,-0.06231454,1,0,0,5.627,unsorted_card,0,0,0,0,1,,,,,,,,,,,,,,,,,,,,,,,,,,,,,,,,,,,,,,,,,,,,,
,,,,,,,,,,1576735,2020-10-26_15h48.58.557,swahili,2020.2.4,MacIntel,60,,,,,,,,,,0.510683761,0.459940653,1,0,0,4.616,study_pile,1,0,1,0,1,MERCHANT - TAJIRI,,,,,,,,,,,,,,,,,,,,,,,,,,,,,,,,,,,,,,,,,,,,
,,,,,,,,,,1576735,2020-10-26_15h48.58.557,swahili,2020.2.4,MacIntel,60,,,,,,,,,,-0.329059829,-0.038575668,1,0,0,0.748,unsorted_card,2,0,2,0,1,,,,,,,,,,,,,,,,,,,,,,,,,,,,,,,,,,,,,,,,,,,,,
,,,,,,,,,,1576735,2020-10-26_15h48.58.557,swahili,2020.2.4,MacIntel,60,,,,,,,,,,0.478632479,0,1,0,0,4.05,test_pile,3,0,3,0,1,PARROT - KASUKU,,,,,,,,,,,,,,,,,,,,,,,,,,,,,,,,,,,,,,,,,,,,
,,,,,,,,,,1576735,2020-10-26_15h48.58.557,swahili,2020.2.4,MacIntel,60,,,,,,,,,,-0.202991453,-0.053412463,1,0,0,1.032,unsorted_card,4,0,4,0,1,,,,,,,,,,,,,,,,,,,,,,,,,,,,,,,,,,,,,,,,,,,,,
,,,,,,,,,,1576735,2020-10-26_15h48.58.557,swahili,2020.2.4,MacIntel,60,,,,,,,,,,0.523504274,0.513353116,1,0,0,0.914,study_pile,5,0,5,0,1,BULL - FAHILI,,,,,,,,,,,,,,,,,,,,,,,,,,,,,,,,,,,,,,,,,,,,
,,,,,,,,,,1576735,2020-10-26_15h48.58.557,swahili,2020.2.4,MacIntel,60,,,,,,,,,,-0.224358974,0.017804154,1,0,0,0.449,unsorted_card,6,0,6,0,1,,,,,,,,,,,,,,,,,,,,,,,,,,,,,,,,,,,,,,,,,,,,,
,,,,,,,,,,1576735,2020-10-26_15h48.58.557,swahili,2020.2.4,MacIntel,60,,,,,,,,,,0.376068376,0.448071217,1,0,0,0.516,study_pile,7,0,7,0,1,PLATE - SAHANI,,,,,,,,,,,,,,,,,,,,,,,,,,,,,,,,,,,,,,,,,,,,
,,,,,,,,,,1576735,2020-10-26_15h48.58.557,swahili,2020.2.4,MacIntel,60,,,,,,,,,,-0.391025641,0.023738872,1,0,0,0.366,unsorted_card,8,0,8,0,1,,,,,,,,,,,,,,,,,,,,,,,,,,,,,,,,,,,,,,,,,,,,,
,,,,,,,,,,1576735,2020-10-26_15h48.58.557,swahili,2020.2.4,MacIntel,60,,,,,,,,,,0.463675214,0.471810089,1,0,0,0.45,study_pile,9,0,9,0,1,YEAST - HAMIRA,,,,,,,,,,,,,,,,,,,,,,,,,,,,,,,,,,,,,,,,,,,,
,,,,,,,,,,1576735,2020-10-26_15h48.58.557,swahili,2020.2.4,MacIntel,60,,,,,,,,,,-0.239316239,-0.023738872,1,0,0,0.414,unsorted_card,10,0,10,0,1,,,,,,,,,,,,,,,,,,,,,,,,,,,,,,,,,,,,,,,,,,,,,
,,,,,,,,,,1576735,2020-10-26_15h48.58.557,swahili,2020.2.4,MacIntel,60,,,,,,,,,,0.621794872,0.65578635,1,0,0,0.4,study_pile,11,0,11,0,1,BLAME - LAWAMA,,,,,,,,,,,,,,,,,,,,,,,,,,,,,,,,,,,,,,,,,,,,
,,,,,,,,,,1576735,2020-10-26_15h48.58.557,swahili,2020.2.4,MacIntel,60,,,,,,,,,,-0.311965812,0.09495549,1,0,0,0.348,unsorted_card,12,0,12,0,1,,,,,,,,,,,,,,,,,,,,,,,,,,,,,,,,,,,,,,,,,,,,,
,,,,,,,,,,1576735,2020-10-26_15h48.58.557,swahili,2020.2.4,MacIntel,60,,,,,,,,,,0.551282051,0.513353116,1,0,0,0.383,study_pile,13,0,13,0,1,CORN - NAFAKA,,,,,,,,,,,,,,,,,,,,,,,,,,,,,,,,,,,,,,,,,,,,
,,,,,,,,,,1576735,2020-10-26_15h48.58.557,swahili,2020.2.4,MacIntel,60,,,,,,,,,,-0.158119658,0.074183976,1,0,0,0.348,unsorted_card,14,0,14,0,1,,,,,,,,,,,,,,,,,,,,,,,,,,,,,,,,,,,,,,,,,,,,,
,,,,,,,,,,1576735,2020-10-26_15h48.58.557,swahili,2020.2.4,MacIntel,60,,,,,,,,,,0.482905983,0.427299703,1,0,0,0.4,study_pile,15,0,15,0,1,POEM - UTENZI,,,,,,,,,,,,,,,,,,,,,,,,,,,,,,,,,,,,,,,,,,,,
,,,,,,,,,,1576735,2020-10-26_15h48.58.557,swahili,2020.2.4,MacIntel,60,,,,,,,,,,-0.166666667,-0.080118694,1,0,0,0.416,unsorted_card,16,0,16,0,1,,,,,,,,,,,,,,,,,,,,,,,,,,,,,,,,,,,,,,,,,,,,,
,,,,,,,,,,1576735,2020-10-26_15h48.58.557,swahili,2020.2.4,MacIntel,60,,,,,,,,,,0.61965812,0.599406528,1,0,0,0.349,study_pile,17,0,17,0,1,TAILOR - MSHONI,,,,,,,,,,,,,,,,,,,,,,,,,,,,,,,,,,,,,,,,,,,,
,,,,,,,,,,1576735,2020-10-26_15h48.58.557,swahili,2020.2.4,MacIntel,60,,,,,,,,,,-0.205128205,0.071216617,1,0,0,0.383,unsorted_card,18,0,18,0,1,,,,,,,,,,,,,,,,,,,,,,,,,,,,,,,,,,,,,,,,,,,,,
,,,,,,,,,,1576735,2020-10-26_15h48.58.557,swahili,2020.2.4,MacIntel,60,,,,,,,,,,0.395299145,0.385756677,1,0,0,0.397,study_pile,19,0,19,0,1,GRAVE - KABURI,,,,,,,,,,,,,,,,,,,,,,,,,,,,,,,,,,,,,,,,,,,,
,,,,,,,,,,1576735,2020-10-26_15h48.58.557,swahili,2020.2.4,MacIntel,60,,,,,,,,,,-0.168803419,0.06231454,1,0,0,0.417,unsorted_card,20,0,20,0,1,,,,,,,,,,,,,,,,,,,,,,,,,,,,,,,,,,,,,,,,,,,,,
,,,,,,,,,,1576735,2020-10-26_15h48.58.557,swahili,2020.2.4,MacIntel,60,,,,,,,,,,0.497863248,0.448071217,1,0,0,0.382,study_pile,21,0,21,0,1,MANURE - SAMADI,,,,,,,,,,,,,,,,,,,,,,,,,,,,,,,,,,,,,,,,,,,,
,,,,,,,,,,1576735,2020-10-26_15h48.58.557,swahili,2020.2.4,MacIntel,60,,,,,,,,,,-0.158119658,0.005934718,1,0,0,0.849,unsorted_card,22,0,22,0,1,,,,,,,,,,,,,,,,,,,,,,,,,,,,,,,,,,,,,,,,,,,,,
,,,,,,,,,,1576735,2020-10-26_15h48.58.557,swahili,2020.2.4,MacIntel,60,,,,,,,,,,0.52991453,0.56379822,1,0,0,0.498,study_pile,23,0,23,0,1,AGENT - WAKILI,,,,,,,,,,,,,,,,,,,,,,,,,,,,,,,,,,,,,,,,,,,,
,,,,,,,,,,1576735,2020-10-26_15h48.58.557,swahili,2020.2.4,MacIntel,60,,,,,,,,,,-0.145299145,0.166172107,1,0,0,0.448,unsorted_card,24,0,24,0,1,,,,,,,,,,,,,,,,,,,,,,,,,,,,,,,,,,,,,,,,,,,,,
,,,,,,,,,,1576735,2020-10-26_15h48.58.557,swahili,2020.2.4,MacIntel,60,,,,,,,,,,0.602564103,0.489614243,1,0,0,0.467,study_pile,25,0,25,0,1,BRIBE - RUSHWA,,,,,,,,,,,,,,,,,,,,,,,,,,,,,,,,,,,,,,,,,,,,
,,,,,,,,,,1576735,2020-10-26_15h48.58.557,swahili,2020.2.4,MacIntel,60,,,,,,,,,,-0.151709402,0.09495549,1,0,0,0.381,unsorted_card,26,0,26,0,1,,,,,,,,,,,,,,,,,,,,,,,,,,,,,,,,,,,,,,,,,,,,,
,,,,,,,,,,1576735,2020-10-26_15h48.58.557,swahili,2020.2.4,MacIntel,60,,,,,,,,,,0.579059829,0.667655786,1,0,0,0.367,study_pile,27,0,27,0,1,BOAT - MASHUA,,,,,,,,,,,,,,,,,,,,,,,,,,,,,,,,,,,,,,,,,,,,
,,,,,,,,,,1576735,2020-10-26_15h48.58.557,swahili,2020.2.4,MacIntel,60,,,,,,,,,,-0.258547009,0.06231454,1,0,0,0.383,unsorted_card,28,0,28,0,1,,,,,,,,,,,,,,,,,,,,,,,,,,,,,,,,,,,,,,,,,,,,,
,,,,,,,,,,1576735,2020-10-26_15h48.58.557,swahili,2020.2.4,MacIntel,60,,,,,,,,,,0.344017094,0.382789318,1,0,0,0.482,study_pile,29,0,29,0,1,TREASURE - DAFINA,,,,,,,,,,,,,,,,,,,,,,,,,,,,,,,,,,,,,,,,,,,,
,,,,,,,,,,1576735,2020-10-26_15h48.58.557,swahili,2020.2.4,MacIntel,60,,,,,,,,,,,,,,,,,,,,,,,0.382478632,0.011869436,1,0,0,0.998,test_first,,,0,0,0,0,1,,,,,,,,,,,,,,,,,,,,,,,,,,,,,,
,,,,,,,,,,1576735,2020-10-26_15h48.58.557,swahili,2020.2.4,MacIntel,60,,,,,,,,,,,,,,,,,,,,,,,,,,,,,,,,,,,,,return,1.405,3.249,0.564102564,-0.089020772,1,0,0,0.816,yes,PARROT,KASUKU,incorrect,0,0,0,0,1,,,,,,,,,,,,
,,,,,,,,,,1576735,2020-10-26_15h48.58.557,swahili,2020.2.4,MacIntel,60,,,,,,,,,,,,,,,,,,,,,,,,,,,,,,,,,,,,,,,,,,,,,,,,,,,,,,,0,0,0,0,1,,,,,,,
,,,,,,,,,,1576735,2020-10-26_15h48.58.557,swahili,2020.2.4,MacIntel,60,,,,,,,,,,,,,,,,,,,,,,BLAME - LAWAMA,,,,,,,,return,return,0,0,0,0,1,,,,,,,,,,,,,,,,,,,,,,,,1.22,4.629,,,,,
,,,,,,,,,,1576735,2020-10-26_15h48.58.557,swahili,2020.2.4,MacIntel,60,,,,,,,,,,,,,,,,,,,,,,GRAVE - KABURI,,,,,,,,,return,1,0,1,0,1,,,,,,,,,,,,,,,,,,,,,,,,,1.439,,,,,
,,,,,,,,,,1576735,2020-10-26_15h48.58.557,swahili,2020.2.4,MacIntel,60,,,,,,,,,,,,,,,,,,,,,,YEAST - HAMIRA,,,,,,,,,return,2,0,2,0,1,,,,,,,,,,,,,,,,,,,,,,,,,1.108,,,,,
,,,,,,,,,,1576735,2020-10-26_15h48.58.557,swahili,2020.2.4,MacIntel,60,,,,,,,,,,,,,,,,,,,,,,MANURE - SAMADI,,,,,,,,,return,3,0,3,0,1,,,,,,,,,,,,,,,,,,,,,,,,,0.249,,,,,
,,,,,,,,,,1576735,2020-10-26_15h48.58.557,swahili,2020.2.4,MacIntel,60,,,,,,,,,,,,,,,,,,,,,,TAILOR - MSHONI,,,,,,,,,return,4,0,4,0,1,,,,,,,,,,,,,,,,,,,,,,,,,0.165,,,,,
,,,,,,,,,,1576735,2020-10-26_15h48.58.557,swahili,2020.2.4,MacIntel,60,,,,,,,,,,,,,,,,,,,,,,BOAT - MASHUA,,,,,,,,,return,5,0,5,0,1,,,,,,,,,,,,,,,,,,,,,,,,,0.174,,,,,
,,,,,,,,,,1576735,2020-10-26_15h48.58.557,swahili,2020.2.4,MacIntel,60,,,,,,,,,,,,,,,,,,,,,,CORN - NAFAKA,,,,,,,,,return,6,0,6,0,1,,,,,,,,,,,,,,,,,,,,,,,,,0.359,,,,,
,,,,,,,,,,1576735,2020-10-26_15h48.58.557,swahili,2020.2.4,MacIntel,60,,,,,,,,,,,,,,,,,,,,,,AGENT - WAKILI,,,,,,,,,return,7,0,7,0,1,,,,,,,,,,,,,,,,,,,,,,,,,0.142,,,,,
,,,,,,,,,,1576735,2020-10-26_15h48.58.557,swahili,2020.2.4,MacIntel,60,,,,,,,,,,,,,,,,,,,,,,BULL - FAHILI,,,,,,,,,return,8,0,8,0,1,,,,,,,,,,,,,,,,,,,,,,,,,0.3,,,,,
,,,,,,,,,,1576735,2020-10-26_15h48.58.557,swahili,2020.2.4,MacIntel,60,,,,,,,,,,,,,,,,,,,,,,PLATE - SAHANI,,,,,,,,,return,9,0,9,0,1,,,,,,,,,,,,,,,,,,,,,,,,,0.155,,,,,
,,,,,,,,,,1576735,2020-10-26_15h48.58.557,swahili,2020.2.4,MacIntel,60,,,,,,,,,,,,,,,,,,,,,,BRIBE - RUSHWA,,,,,,,,,return,10,0,10,0,1,,,,,,,,,,,,,,,,,,,,,,,,,0.159,,,,,
,,,,,,,,,,1576735,2020-10-26_15h48.58.557,swahili,2020.2.4,MacIntel,60,,,,,,,,,,,,,,,,,,,,,,TREASURE - DAFINA,,,,,,,,,return,11,0,11,0,1,,,,,,,,,,,,,,,,,,,,,,,,,0.299,,,,,
,,,,,,,,,,1576735,2020-10-26_15h48.58.557,swahili,2020.2.4,MacIntel,60,,,,,,,,,,,,,,,,,,,,,,POEM - UTENZI,,,,,,,,,return,12,0,12,0,1,,,,,,,,,,,,,,,,,,,,,,,,,0.297,,,,,
,,,,,,,,,,1576735,2020-10-26_15h48.58.557,swahili,2020.2.4,MacIntel,60,,,,,,,,,,,,,,,,,,,,,,MERCHANT - TAJIRI,,,,,,,,,return,13,0,13,0,1,,,,,,,,,,,,,,,,,,,,,,,,,0.273,,,,,
,,,,,,,,,,1576735,2020-10-26_15h48.58.557,swahili,2020.2.4,MacIntel,60,,,,,,,,,,,,,,,,,,,,,,,,,,,,,,,,,,,,,,,,,,,,,,,,,,,,,,,1,0,1,0,1,,,,,,,
,,,,,,,,,,1576735,2020-10-26_15h48.58.557,swahili,2020.2.4,MacIntel,60,,,,,,,,,,,,,,,,,,,,,,,,,,,,,,,,,,,,,,,,,,,,,,,,,,,,,,,,,,,,,,1,0,1,0,1
,,,,,,,,,,1576735,2020-10-26_15h48.58.557,swahili,2020.2.4,MacIntel,60,,,,,,,,,,-0.247863248,-0.09495549,1,0,0,2.694,unsorted_card,0,0,0,0,1,,,,,,,,,,,,,,,,,,,,,,,,,,,,,,,,,,,,,,,,,,,,,
,,,,,,,,,,1576735,2020-10-26_15h48.58.557,swahili,2020.2.4,MacIntel,60,,,,,,,,,,0.493589744,0.008902077,1,0,0,17.867,test_pile,1,0,1,0,1,MERCHANT - TAJIRI,,,,,,,,,,,,,,,,,,,,,,,,,,,,,,,,,,,,,,,,,,,,
,,,,,,,,,,1576735,2020-10-26_15h48.58.557,swahili,2020.2.4,MacIntel,60,,,,,,,,,,-0.301282051,0,1,0,0,0.615,unsorted_card,2,0,2,0,1,,,,,,,,,,,,,,,,,,,,,,,,,,,,,,,,,,,,,,,,,,,,,
,,,,,,,,,,1576735,2020-10-26_15h48.58.557,swahili,2020.2.4,MacIntel,60,,,,,,,,,,0.540598291,-0.059347181,1,0,0,2.581,test_pile,3,0,3,0,1,PARROT - KASUKU,,,,,,,,,,,,,,,,,,,,,,,,,,,,,,,,,,,,,,,,,,,,
,,,,,,,,,,1576735,2020-10-26_15h48.58.557,swahili,2020.2.4,MacIntel,60,,,,,,,,,,-0.356837607,-0.03264095,1,0,0,0.466,unsorted_card,4,0,4,0,1,,,,,,,,,,,,,,,,,,,,,,,,,,,,,,,,,,,,,,,,,,,,,
,,,,,,,,,,1576735,2020-10-26_15h48.58.557,swahili,2020.2.4,MacIntel,60,,,,,,,,,,0.47008547,0.439169139,1,0,0,0.85,study_pile,5,0,5,0,1,BULL - FAHILI,,,,,,,,,,,,,,,,,,,,,,,,,,,,,,,,,,,,,,,,,,,,
,,,,,,,,,,1576735,2020-10-26_15h48.58.557,swahili,2020.2.4,MacIntel,60,,,,,,,,,,-0.262820513,0.089020772,1,0,0,0.399,unsorted_card,6,0,6,0,1,,,,,,,,,,,,,,,,,,,,,,,,,,,,,,,,,,,,,,,,,,,,,
,,,,,,,,,,1576735,2020-10-26_15h48.58.557,swahili,2020.2.4,MacIntel,60,,,,,,,,,,0.393162393,0.471810089,1,0,0,0.798,study_pile,7,0,7,0,1,PLATE - SAHANI,,,,,,,,,,,,,,,,,,,,,,,,,,,,,,,,,,,,,,,,,,,,
,,,,,,,,,,1576735,2020-10-26_15h48.58.557,swahili,2020.2.4,MacIntel,60,,,,,,,,,,-0.273504274,0.035608309,1,0,0,0.433,unsorted_card,8,0,8,0,1,,,,,,,,,,,,,,,,,,,,,,,,,,,,,,,,,,,,,,,,,,,,,
,,,,,,,,,,1576735,2020-10-26_15h48.58.557,swahili,2020.2.4,MacIntel,60,,,,,,,,,,0.495726496,0.483679525,1,0,0,0.398,study_pile,9,0,9,0,1,YEAST - HAMIRA,,,,,,,,,,,,,,,,,,,,,,,,,,,,,,,,,,,,,,,,,,,,
,,,,,,,,,,1576735,2020-10-26_15h48.58.557,swahili,2020.2.4,MacIntel,60,,,,,,,,,,-0.275641026,-0.074183976,1,0,0,0.382,unsorted_card,10,0,10,0,1,,,,,,,,,,,,,,,,,,,,,,,,,,,,,,,,,,,,,,,,,,,,,
,,,,,,,,,,1576735,2020-10-26_15h48.58.557,swahili,2020.2.4,MacIntel,60,,,,,,,,,,0.282051282,0.415430267,1,0,0,0.466,study_pile,11,0,11,0,1,BLAME - LAWAMA,,,,,,,,,,,,,,,,,,,,,,,,,,,,,,,,,,,,,,,,,,,,
,,,,,,,,,,1576735,2020-10-26_15h48.58.557,swahili,2020.2.4,MacIntel,60,,,,,,,,,,-0.126068376,0.100890208,1,0,0,0.598,unsorted_card,12,0,12,0,1,,,,,,,,,,,,,,,,,,,,,,,,,,,,,,,,,,,,,,,,,,,,,
,,,,,,,,,,1576735,2020-10-26_15h48.58.557,swahili,2020.2.4,MacIntel,60,,,,,,,,,,0.502136752,0.584569733,1,0,0,0.433,study_pile,13,0,13,0,1,CORN - NAFAKA,,,,,,,,,,,,,,,,,,,,,,,,,,,,,,,,,,,,,,,,,,,,
,,,,,,,,,,1576735,2020-10-26_15h48.58.557,swahili,2020.2.4,MacIntel,60,,,,,,,,,,-0.431623932,0.071216617,1,0,0,0.382,unsorted_card,14,0,14,0,1,,,,,,,,,,,,,,,,,,,,,,,,,,,,,,,,,,,,,,,,,,,,,
,,,,,,,,,,1576735,2020-10-26_15h48.58.557,swahili,2020.2.4,MacIntel,60,,,,,,,,,,0.666666667,0.486646884,1,0,0,0.449,study_pile,15,0,15,0,1,POEM - UTENZI,,,,,,,,,,,,,,,,,,,,,,,,,,,,,,,,,,,,,,,,,,,,
,,,,,,,,,,1576735,2020-10-26_15h48.58.557,swahili,2020.2.4,MacIntel,60,,,,,,,,,,-0.254273504,0.053412463,1,0,0,0.398,unsorted_card,16,0,16,0,1,,,,,,,,,,,,,,,,,,,,,,,,,,,,,,,,,,,,,,,,,,,,,
,,,,,,,,,,1576735,2020-10-26_15h48.58.557,swahili,2020.2.4,MacIntel,60,,,,,,,,,,0.561965812,0.632047478,1,0,0,0.399,study_pile,17,0,17,0,1,TAILOR - MSHONI,,,,,,,,,,,,,,,,,,,,,,,,,,,,,,,,,,,,,,,,,,,,
,,,,,,,,,,1576735,2020-10-26_15h48.58.557,swahili,2020.2.4,MacIntel,60,,,,,,,,,,-0.22008547,0.100890208,1,0,0,0.399,unsorted_card,18,0,18,0,1,,,,,,,,,,,,,,,,,,,,,,,,,,,,,,,,,,,,,,,,,,,,,
,,,,,,,,,,1576735,2020-10-26_15h48.58.557,swahili,2020.2.4,MacIntel,60,,,,,,,,,,0.525641026,0.451038576,1,0,0,0.415,study_pile,19,0,19,0,1,GRAVE - KABURI,,,,,,,,,,,,,,,,,,,,,,,,,,,,,,,,,,,,,,,,,,,,
,,,,,,,,,,1576735,2020-10-26_15h48.58.557,swahili,2020.2.4,MacIntel,60,,,,,,,,,,-0.19017094,0.035608309,1,0,0,0.333,unsorted_card,20,0,20,0,1,,,,,,,,,,,,,,,,,,,,,,,,,,,,,,,,,,,,,,,,,,,,,
,,,,,,,,,,1576735,2020-10-26_15h48.58.557,swahili,2020.2.4,MacIntel,60,,,,,,,,,,0.416666667,0.367952522,1,0,0,0.416,study_pile,21,0,21,0,1,MANURE - SAMADI,,,,,,,,,,,,,,,,,,,,,,,,,,,,,,,,,,,,,,,,,,,,
,,,,,,,,,,1576735,2020-10-26_15h48.58.557,swahili,2020.2.4,MacIntel,60,,,,,,,,,,-0.158119658,0.071216617,1,0,0,0.399,unsorted_card,22,0,22,0,1,,,,,,,,,,,,,,,,,,,,,,,,,,,,,,,,,,,,,,,,,,,,,
,,,,,,,,,,1576735,2020-10-26_15h48.58.557,swahili,2020.2.4,MacIntel,60,,,,,,,,,,0.41025641,0.551928783,1,0,0,0.331,study_pile,23,0,23,0,1,AGENT - WAKILI,,,,,,,,,,,,,,,,,,,,,,,,,,,,,,,,,,,,,,,,,,,,
,,,,,,,,,,1576735,2020-10-26_15h48.58.557,swahili,2020.2.4,MacIntel,60,,,,,,,,,,-0.282051282,0.011869436,1,0,0,0.349,unsorted_card,24,0,24,0,1,,,,,,,,,,,,,,,,,,,,,,,,,,,,,,,,,,,,,,,,,,,,,
,,,,,,,,,,1576735,2020-10-26_15h48.58.557,swahili,2020.2.4,MacIntel,60,,,,,,,,,,0.337606838,0.3115727,1,0,0,0.383,study_pile,25,0,25,0,1,BRIBE - RUSHWA,,,,,,,,,,,,,,,,,,,,,,,,,,,,,,,,,,,,,,,,,,,,
,,,,,,,,,,1576735,2020-10-26_15h48.58.557,swahili,2020.2.4,MacIntel,60,,,,,,,,,,-0.143162393,-0.06231454,1,0,0,0.416,unsorted_card,26,0,26,0,1,,,,,,,,,,,,,,,,,,,,,,,,,,,,,,,,,,,,,,,,,,,,,
,,,,,,,,,,1576735,2020-10-26_15h48.58.557,swahili,2020.2.4,MacIntel,60,,,,,,,,,,0.521367521,0.456973294,1,0,0,0.398,study_pile,27,0,27,0,1,BOAT - MASHUA,,,,,,,,,,,,,,,,,,,,,,,,,,,,,,,,,,,,,,,,,,,,
,,,,,,,,,,1576735,2020-10-26_15h48.58.557,swahili,2020.2.4,MacIntel,60,,,,,,,,,,-0.243589744,-0.06231454,1,0,0,0.383,unsorted_card,28,0,28,0,1,,,,,,,,,,,,,,,,,,,,,,,,,,,,,,,,,,,,,,,,,,,,,
,,,,,,,,,,1576735,2020-10-26_15h48.58.557,swahili,2020.2.4,MacIntel,60,,,,,,,,,,0.722222222,0.510385757,1,0,0,0.464,study_pile,29,0,29,0,1,TREASURE - DAFINA,,,,,,,,,,,,,,,,,,,,,,,,,,,,,,,,,,,,,,,,,,,,
,,,,,,,,,,1576735,2020-10-26_15h48.58.557,swahili,2020.2.4,MacIntel,60,,,,,,,,,,,,,,,,,,,,,,,0.480769231,0.014836795,1,0,0,3.751,test_first,,,0,0,0,0,1,,,,,,,,,,,,,,,,,,,,,,,,,,,,,,
,,,,,,,,,,1576735,2020-10-26_15h48.58.557,swahili,2020.2.4,MacIntel,60,,,,,,,,,,,,,,,,,,,,,,,,,,,,,,,,,,,,,return,6.505,3.515,0.335470085,-0.118694362,1,0,0,0.8,yes,MERCHANT,TAJIRI,incorrect,0,0,0,0,1,,,,,,,,,,,,
,,,,,,,,,,1576735,2020-10-26_15h48.58.557,swahili,2020.2.4,MacIntel,60,,,,,,,,,,,,,,,,,,,,,,,,,,,,,,,,,,,,,,,9.582,-0.517094017,-0.008902077,1,0,0,1.867,no,PARROT,KASUKU,incorrect,1,0,1,0,1,,,,,,,,,,,,
,,,,,,,,,,1576735,2020-10-26_15h48.58.557,swahili,2020.2.4,MacIntel,60,,,,,,,,,,,,,,,,,,,,,,,,,,,,,,,,,,,,,,,,,,,,,,,,,,,,,,,0,0,0,0,1,,,,,,,
,,,,,,,,,,1576735,2020-10-26_15h48.58.557,swahili,2020.2.4,MacIntel,60,,,,,,,,,,,,,,,,,,,,,,CORN - NAFAKA,,,,,,,,return,return,0,0,0,0,1,,,,,,,,,,,,,,,,,,,,,,,,3.065,12.928,,,,,
,,,,,,,,,,1576735,2020-10-26_15h48.58.557,swahili,2020.2.4,MacIntel,60,,,,,,,,,,,,,,,,,,,,,,TAILOR - MSHONI,,,,,,,,,return,1,0,1,0,1,,,,,,,,,,,,,,,,,,,,,,,,,9.406,,,,,
,,,,,,,,,,1576735,2020-10-26_15h48.58.557,swahili,2020.2.4,MacIntel,60,,,,,,,,,,,,,,,,,,,,,,BOAT - MASHUA,,,,,,,,,return,2,0,2,0,1,,,,,,,,,,,,,,,,,,,,,,,,,0.165,,,,,
,,,,,,,,,,1576735,2020-10-26_15h48.58.557,swahili,2020.2.4,MacIntel,60,,,,,,,,,,,,,,,,,,,,,,TREASURE - DAFINA,,,,,,,,,return,3,0,3,0,1,,,,,,,,,,,,,,,,,,,,,,,,,0.141,,,,,
,,,,,,,,,,1576735,2020-10-26_15h48.58.557,swahili,2020.2.4,MacIntel,60,,,,,,,,,,,,,,,,,,,,,,BULL - FAHILI,,,,,,,,,return,4,0,4,0,1,,,,,,,,,,,,,,,,,,,,,,,,,0.13,,,,,
,,,,,,,,,,1576735,2020-10-26_15h48.58.557,swahili,2020.2.4,MacIntel,60,,,,,,,,,,,,,,,,,,,,,,POEM - UTENZI,,,,,,,,,return,5,0,5,0,1,,,,,,,,,,,,,,,,,,,,,,,,,0.111,,,,,
,,,,,,,,,,1576735,2020-10-26_15h48.58.557,swahili,2020.2.4,MacIntel,60,,,,,,,,,,,,,,,,,,,,,,YEAST - HAMIRA,,,,,,,,,return,6,0,6,0,1,,,,,,,,,,,,,,,,,,,,,,,,,0.289,,,,,
,,,,,,,,,,1576735,2020-10-26_15h48.58.557,swahili,2020.2.4,MacIntel,60,,,,,,,,,,,,,,,,,,,,,,MANURE - SAMADI,,,,,,,,,return,7,0,7,0,1,,,,,,,,,,,,,,,,,,,,,,,,,0.13,,,,,
,,,,,,,,,,1576735,2020-10-26_15h48.58.557,swahili,2020.2.4,MacIntel,60,,,,,,,,,,,,,,,,,,,,,,PLATE - SAHANI,,,,,,,,,return,8,0,8,0,1,,,,,,,,,,,,,,,,,,,,,,,,,0.479,,,,,
,,,,,,,,,,1576735,2020-10-26_15h48.58.557,swahili,2020.2.4,MacIntel,60,,,,,,,,,,,,,,,,,,,,,,BLAME - LAWAMA,,,,,,,,,return,9,0,9,0,1,,,,,,,,,,,,,,,,,,,,,,,,,0.38,,,,,
,,,,,,,,,,1576735,2020-10-26_15h48.58.557,swahili,2020.2.4,MacIntel,60,,,,,,,,,,,,,,,,,,,,,,GRAVE - KABURI,,,,,,,,,return,10,0,10,0,1,,,,,,,,,,,,,,,,,,,,,,,,,0.298,,,,,
,,,,,,,,,,1576735,2020-10-26_15h48.58.557,swahili,2020.2.4,MacIntel,60,,,,,,,,,,,,,,,,,,,,,,BRIBE - RUSHWA,,,,,,,,,return,11,0,11,0,1,,,,,,,,,,,,,,,,,,,,,,,,,0.518,,,,,
,,,,,,,,,,1576735,2020-10-26_15h48.58.557,swahili,2020.2.4,MacIntel,60,,,,,,,,,,,,,,,,,,,,,,AGENT - WAKILI,,,,,,,,,return,12,0,12,0,1,,,,,,,,,,,,,,,,,,,,,,,,,0.397,,,,,
,,,,,,,,,,1576735,2020-10-26_15h48.58.557,swahili,2020.2.4,MacIntel,60,,,,,,,,,,,,,,,,,,,,,,,,,,,,,,,,,,,,,,,,,,,,,,,,,,,,,,,1,0,1,0,1,,,,,,,
,,,,,,,,,,1576735,2020-10-26_15h48.58.557,swahili,2020.2.4,MacIntel,60,,,,,,,,,,,,,,,,,,,,,,,,,,,,,,,,,,,,,,,,,,,,,,,,,,,,,,,,,,,,,,2,0,2,0,1
,,,,,,,,,,1576735,2020-10-26_15h48.58.557,swahili,2020.2.4,MacIntel,60,,,,,,,,,,-0.226495726,-0.044510386,1,0,0,1.209,unsorted_card,0,0,0,0,1,,,,,,,,,,,,,,,,,,,,,,,,,,,,,,,,,,,,,,,,,,,,,
,,,,,,,,,,1576735,2020-10-26_15h48.58.557,swahili,2020.2.4,MacIntel,60,,,,,,,,,,0.465811966,-0.071216617,1,0,0,6.966,test_pile,1,0,1,0,1,MERCHANT - TAJIRI,,,,,,,,,,,,,,,,,,,,,,,,,,,,,,,,,,,,,,,,,,,,
,,,,,,,,,,1576735,2020-10-26_15h48.58.557,swahili,2020.2.4,MacIntel,60,,,,,,,,,,-0.262820513,-0.077151335,1,0,0,0.649,unsorted_card,2,0,2,0,1,,,,,,,,,,,,,,,,,,,,,,,,,,,,,,,,,,,,,,,,,,,,,
,,,,,,,,,,1576735,2020-10-26_15h48.58.557,swahili,2020.2.4,MacIntel,60,,,,,,,,,,0.457264957,-0.020771513,1,0,0,1.082,test_pile,3,0,3,0,1,PARROT - KASUKU,,,,,,,,,,,,,,,,,,,,,,,,,,,,,,,,,,,,,,,,,,,,
,,,,,,,,,,1576735,2020-10-26_15h48.58.557,swahili,2020.2.4,MacIntel,60,,,,,,,,,,-0.512820513,-0.026706231,1,0,0,0.533,unsorted_card,4,0,4,0,1,,,,,,,,,,,,,,,,,,,,,,,,,,,,,,,,,,,,,,,,,,,,,
,,,,,,,,,,1576735,2020-10-26_15h48.58.557,swahili,2020.2.4,MacIntel,60,,,,,,,,,,0.538461538,-0.49851632,1,0,0,7.15,done_pile,5,0,5,0,1,BULL - FAHILI,,,,,,,,,,,,,,,,,,,,,,,,,,,,,,,,,,,,,,,,,,,,
,,,,,,,,,,1576735,2020-10-26_15h48.58.557,swahili,2020.2.4,MacIntel,60,,,,,,,,,,-0.247863248,-0.074183976,1,0,0,0.666,unsorted_card,6,0,6,0,1,,,,,,,,,,,,,,,,,,,,,,,,,,,,,,,,,,,,,,,,,,,,,
,,,,,,,,,,1576735,2020-10-26_15h48.58.557,swahili,2020.2.4,MacIntel,60,,,,,,,,,,0.461538462,-0.46884273,1,0,0,7.982,done_pile,7,0,7,0,1,PLATE - SAHANI,,,,,,,,,,,,,,,,,,,,,,,,,,,,,,,,,,,,,,,,,,,,
,,,,,,,,,,1576735,2020-10-26_15h48.58.557,swahili,2020.2.4,MacIntel,60,,,,,,,,,,0.431623932,-0.439169139,1,0,0,0.899,done_pile,8,0,8,0,1,,,,,,,,,,,,,,,,,,,,,,,,,,,,,,,,,,,,,,,,,,,,,
,,,,,,,,,,1576735,2020-10-26_15h48.58.557,swahili,2020.2.4,MacIntel,60,,,,,,,,,,-0.487179487,-0.077151335,1,0,0,0.699,unsorted_card,9,0,9,0,1,,,,,,,,,,,,,,,,,,,,,,,,,,,,,,,,,,,,,,,,,,,,,
,,,,,,,,,,1576735,2020-10-26_15h48.58.557,swahili,2020.2.4,MacIntel,60,,,,,,,,,,-0.487179487,-0.077151335,1,0,0,0.117,unsorted_card,10,0,10,0,1,YEAST - HAMIRA,,,,,,,,,,,,,,,,,,,,,,,,,,,,,,,,,,,,,,,,,,,,
,,,,,,,,,,1576735,2020-10-26_15h48.58.557,swahili,2020.2.4,MacIntel,60,,,,,,,,,,0.416666667,0.409495549,1,0,0,1.998,study_pile,11,0,11,0,1,YEAST - HAMIRA,,,,,,,,,,,,,,,,,,,,,,,,,,,,,,,,,,,,,,,,,,,,
,,,,,,,,,,1576735,2020-10-26_15h48.58.557,swahili,2020.2.4,MacIntel,60,,,,,,,,,,-0.489316239,-0.130563798,1,0,0,0.449,unsorted_card,12,0,12,0,1,,,,,,,,,,,,,,,,,,,,,,,,,,,,,,,,,,,,,,,,,,,,,
,,,,,,,,,,1576735,2020-10-26_15h48.58.557,swahili,2020.2.4,MacIntel,60,,,,,,,,,,0.613247863,-0.486646884,1,0,0,2.15,done_pile,13,0,13,0,1,BLAME - LAWAMA,,,,,,,,,,,,,,,,,,,,,,,,,,,,,,,,,,,,,,,,,,,,
,,,,,,,,,,1576735,2020-10-26_15h48.58.557,swahili,2020.2.4,MacIntel,60,,,,,,,,,,-0.472222222,-0.115727003,1,0,0,0.498,unsorted_card,14,0,14,0,1,,,,,,,,,,,,,,,,,,,,,,,,,,,,,,,,,,,,,,,,,,,,,
,,,,,,,,,,1576735,2020-10-26_15h48.58.557,swahili,2020.2.4,MacIntel,60,,,,,,,,,,0.497863248,-0.543026706,1,0,0,3.365,done_pile,15,0,15,0,1,CORN - NAFAKA,,,,,,,,,,,,,,,,,,,,,,,,,,,,,,,,,,,,,,,,,,,,
,,,,,,,,,,1576735,2020-10-26_15h48.58.557,swahili,2020.2.4,MacIntel,60,,,,,,,,,,-0.344017094,-0.166172107,1,0,0,0.482,unsorted_card,16,0,16,0,1,,,,,,,,,,,,,,,,,,,,,,,,,,,,,,,,,,,,,,,,,,,,,
,,,,,,,,,,1576735,2020-10-26_15h48.58.557,swahili,2020.2.4,MacIntel,60,,,,,,,,,,0.547008547,0.445103858,1,0,0,4.033,study_pile,17,0,17,0,1,POEM - UTENZI,,,,,,,,,,,,,,,,,,,,,,,,,,,,,,,,,,,,,,,,,,,,
,,,,,,,,,,1576735,2020-10-26_15h48.58.557,swahili,2020.2.4,MacIntel,60,,,,,,,,,,-0.358974359,0.008902077,1,0,0,0.465,unsorted_card,18,0,18,0,1,,,,,,,,,,,,,,,,,,,,,,,,,,,,,,,,,,,,,,,,,,,,,
,,,,,,,,,,1576735,2020-10-26_15h48.58.557,swahili,2020.2.4,MacIntel,60,,,,,,,,,,0.512820513,-0.483679525,1,0,0,1.632,done_pile,19,0,19,0,1,TAILOR - MSHONI,,,,,,,,,,,,,,,,,,,,,,,,,,,,,,,,,,,,,,,,,,,,
,,,,,,,,,,1576735,2020-10-26_15h48.58.557,swahili,2020.2.4,MacIntel,60,,,,,,,,,,-0.427350427,-0.189910979,1,0,0,0.466,unsorted_card,20,0,20,0,1,,,,,,,,,,,,,,,,,,,,,,,,,,,,,,,,,,,,,,,,,,,,,
,,,,,,,,,,1576735,2020-10-26_15h48.58.557,swahili,2020.2.4,MacIntel,60,,,,,,,,,,0.38034188,-0.074183976,1,0,0,1.783,test_pile,21,0,21,0,1,GRAVE - KABURI,,,,,,,,,,,,,,,,,,,,,,,,,,,,,,,,,,,,,,,,,,,,
,,,,,,,,,,1576735,2020-10-26_15h48.58.557,swahili,2020.2.4,MacIntel,60,,,,,,,,,,-0.288461538,-0.041543027,1,0,0,0.366,unsorted_card,22,0,22,0,1,,,,,,,,,,,,,,,,,,,,,,,,,,,,,,,,,,,,,,,,,,,,,
,,,,,,,,,,1576735,2020-10-26_15h48.58.557,swahili,2020.2.4,MacIntel,60,,,,,,,,,,0.574786325,0.480712166,1,0,0,0.682,study_pile,23,0,23,0,1,MANURE - SAMADI,,,,,,,,,,,,,,,,,,,,,,,,,,,,,,,,,,,,,,,,,,,,
,,,,,,,,,,1576735,2020-10-26_15h48.58.557,swahili,2020.2.4,MacIntel,60,,,,,,,,,,-0.241452991,-0.053412463,1,0,0,0.398,unsorted_card,24,0,24,0,1,,,,,,,,,,,,,,,,,,,,,,,,,,,,,,,,,,,,,,,,,,,,,
,,,,,,,,,,1576735,2020-10-26_15h48.58.557,swahili,2020.2.4,MacIntel,60,,,,,,,,,,0.508547009,0.554896142,1,0,0,0.766,study_pile,25,0,25,0,1,AGENT - WAKILI,,,,,,,,,,,,,,,,,,,,,,,,,,,,,,,,,,,,,,,,,,,,
,,,,,,,,,,1576735,2020-10-26_15h48.58.557,swahili,2020.2.4,MacIntel,60,,,,,,,,,,-0.183760684,0.100890208,1,0,0,0.616,unsorted_card,26,0,26,0,1,,,,,,,,,,,,,,,,,,,,,,,,,,,,,,,,,,,,,,,,,,,,,
,,,,,,,,,,1576735,2020-10-26_15h48.58.557,swahili,2020.2.4,MacIntel,60,,,,,,,,,,0.489316239,0.519287834,1,0,0,0.632,study_pile,27,0,27,0,1,BRIBE - RUSHWA,,,,,,,,,,,,,,,,,,,,,,,,,,,,,,,,,,,,,,,,,,,,
,,,,,,,,,,1576735,2020-10-26_15h48.58.557,swahili,2020.2.4,MacIntel,60,,,,,,,,,,-0.286324786,-0.059347181,1,0,0,0.465,unsorted_card,28,0,28,0,1,,,,,,,,,,,,,,,,,,,,,,,,,,,,,,,,,,,,,,,,,,,,,
,,,,,,,,,,1576735,2020-10-26_15h48.58.557,swahili,2020.2.4,MacIntel,60,,,,,,,,,,0.408119658,0.421364985,1,0,0,1.067,study_pile,29,0,29,0,1,BOAT - MASHUA,,,,,,,,,,,,,,,,,,,,,,,,,,,,,,,,,,,,,,,,,,,,
,,,,,,,,,,1576735,2020-10-26_15h48.58.557,swahili,2020.2.4,MacIntel,60,,,,,,,,,,-0.173076923,-0.044510386,1,0,0,0.749,unsorted_card,30,0,30,0,1,,,,,,,,,,,,,,,,,,,,,,,,,,,,,,,,,,,,,,,,,,,,,
,,,,,,,,,,1576735,2020-10-26_15h48.58.557,swahili,2020.2.4,MacIntel,60,,,,,,,,,,0.455128205,0.047477745,1,0,0,1.598,test_pile,31,0,31,0,1,TREASURE - DAFINA,,,,,,,,,,,,,,,,,,,,,,,,,,,,,,,,,,,,,,,,,,,,
,,,,,,,,,,1576735,2020-10-26_15h48.58.557,swahili,2020.2.4,MacIntel,60,,,,,,,,,,,,,,,,,,,,,,,0.386752137,0.026706231,1,0,0,1.15,test_first,,,0,0,0,0,1,,,,,,,,,,,,,,,,,,,,,,,,,,,,,,
,,,,,,,,,,1576735,2020-10-26_15h48.58.557,swahili,2020.2.4,MacIntel,60,,,,,,,,,,,,,,,,,,,,,,,,,,,,,,,,,,,,,return,1.056,4.35,-0.538461538,-0.056379822,1,0,0,0.916,no,GRAVE,NIFILI,incorrect,0,0,0,0,1,,,,,,,,,,,,
,,,,,,,,,,1576735,2020-10-26_15h48.58.557,swahili,2020.2.4,MacIntel,60,,,,,,,,,,,,,,,,,,,,,,,,,,,,,,,,,,,,,,,4.681,0.5,0.053412463,1,0,0,0.849,yes,MERCHANT,KUZU,incorrect,1,0,1,0,1,,,,,,,,,,,,
,,,,,,,,,,1576735,2020-10-26_15h48.58.557,swahili,2020.2.4,MacIntel,60,,,,,,,,,,,,,,,,,,,,,,,,,,,,,,,,,,,,,,,8.567,0.44017094,-0.109792285,1,0,0,0.616,yes,PARROT,HIMINU,incorrect,2,0,2,0,1,,,,,,,,,,,,
,,,,,,,,,,1576735,2020-10-26_15h48.58.557,swahili,2020.2.4,MacIntel,60,,,,,,,,,,,,,,,,,,,,,,,,,,,,,,,,,,,,,,,3.916,0.376068376,-0.056379822,1,0,0,0.632,yes,TREASURE,NAFAKA,incorrect,3,0,3,0,1,,,,,,,,,,,,
,,,,,,,,,,1576735,2020-10-26_15h48.58.557,swahili,2020.2.4,MacIntel,60,,,,,,,,,,,,,,,,,,,,,,,,,,,,,,,,,,,,,,,,,,,,,,,,,,,,,,,0,0,0,0,1,,,,,,,
,,,,,,,,,,1576735,2020-10-26_15h48.58.557,swahili,2020.2.4,MacIntel,60,,,,,,,,,,,,,,,,,,,,,,MANURE - SAMADI,,,,,,,,return,return,0,0,0,0,1,,,,,,,,,,,,,,,,,,,,,,,,1.883,2.011,,,,,
,,,,,,,,,,1576735,2020-10-26_15h48.58.557,swahili,2020.2.4,MacIntel,60,,,,,,,,,,,,,,,,,,,,,,BOAT - MASHUA,,,,,,,,,return,1,0,1,0,1,,,,,,,,,,,,,,,,,,,,,,,,,0.382,,,,,
,,,,,,,,,,1576735,2020-10-26_15h48.58.557,swahili,2020.2.4,MacIntel,60,,,,,,,,,,,,,,,,,,,,,,POEM - UTENZI,,,,,,,,,return,2,0,2,0,1,,,,,,,,,,,,,,,,,,,,,,,,,0.24,,,,,
,,,,,,,,,,1576735,2020-10-26_15h48.58.557,swahili,2020.2.4,MacIntel,60,,,,,,,,,,,,,,,,,,,,,,YEAST - HAMIRA,,,,,,,,,return,3,0,3,0,1,,,,,,,,,,,,,,,,,,,,,,,,,0.159,,,,,
,,,,,,,,,,1576735,2020-10-26_15h48.58.557,swahili,2020.2.4,MacIntel,60,,,,,,,,,,,,,,,,,,,,,,BRIBE - RUSHWA,,,,,,,,,return,4,0,4,0,1,,,,,,,,,,,,,,,,,,,,,,,,,0.184,,,,,
,,,,,,,,,,1576735,2020-10-26_15h48.58.557,swahili,2020.2.4,MacIntel,60,,,,,,,,,,,,,,,,,,,,,,AGENT - WAKILI,,,,,,,,,return,5,0,5,0,1,,,,,,,,,,,,,,,,,,,,,,,,,0.139,,,,,
,,,,,,,,,,1576735,2020-10-26_15h48.58.557,swahili,2020.2.4,MacIntel,60,,,,,,,,,,,,,,,,,,,,,,,,,,,,,,,,,,,,,,,,,,,,,,,,,,,,,,,1,0,1,0,1,,,,,,,
,,,,,,,,,,1576735,2020-10-26_15h48.58.557,swahili,2020.2.4,MacIntel,60,,,,,,,,,,,,,,,,,,,,,,,,,,,,,,,,,,,,,,,,,,,,,,,,,,,,,,,,,,,,,,3,0,3,0,1
,,,,,,,,,,1576735,2020-10-26_15h48.58.557,swahili,2020.2.4,MacIntel,60,,,,,,,,,,-0.418803419,-0.258160237,1,0,0,3.746,unsorted_card,0,0,0,0,1,,,,,,,,,,,,,,,,,,,,,,,,,,,,,,,,,,,,,,,,,,,,,
,,,,,,,,,,1576735,2020-10-26_15h48.58.557,swahili,2020.2.4,MacIntel,60,,,,,,,,,,0.450854701,-0.480712166,1,0,0,0.649,done_pile,1,0,1,0,1,MERCHANT - TAJIRI,,,,,,,,,,,,,,,,,,,,,,,,,,,,,,,,,,,,,,,,,,,,
,,,,,,,,,,1576735,2020-10-26_15h48.58.557,swahili,2020.2.4,MacIntel,60,,,,,,,,,,-0.403846154,-0.097922849,1,0,0,0.432,unsorted_card,2,0,2,0,1,,,,,,,,,,,,,,,,,,,,,,,,,,,,,,,,,,,,,,,,,,,,,
,,,,,,,,,,1576735,2020-10-26_15h48.58.557,swahili,2020.2.4,MacIntel,60,,,,,,,,,,0.489316239,-0.560830861,1,0,0,0.683,done_pile,3,0,3,0,1,PARROT - KASUKU,,,,,,,,,,,,,,,,,,,,,,,,,,,,,,,,,,,,,,,,,,,,
,,,,,,,,,,1576735,2020-10-26_15h48.58.557,swahili,2020.2.4,MacIntel,60,,,,,,,,,,-0.252136752,-0.15727003,1,0,0,0.415,unsorted_card,4,0,4,0,1,,,,,,,,,,,,,,,,,,,,,,,,,,,,,,,,,,,,,,,,,,,,,
,,,,,,,,,,1576735,2020-10-26_15h48.58.557,swahili,2020.2.4,MacIntel,60,,,,,,,,,,0.465811966,-0.560830861,1,0,0,0.434,done_pile,5,0,5,0,1,YEAST - HAMIRA,,,,,,,,,,,,,,,,,,,,,,,,,,,,,,,,,,,,,,,,,,,,
,,,,,,,,,,1576735,2020-10-26_15h48.58.557,swahili,2020.2.4,MacIntel,60,,,,,,,,,,-0.226495726,-0.18694362,1,0,0,0.398,unsorted_card,6,0,6,0,1,,,,,,,,,,,,,,,,,,,,,,,,,,,,,,,,,,,,,,,,,,,,,
,,,,,,,,,,1576735,2020-10-26_15h48.58.557,swahili,2020.2.4,MacIntel,60,,,,,,,,,,0.373931624,-0.394658754,1,0,0,0.4,done_pile,7,0,7,0,1,POEM - UTENZI,,,,,,,,,,,,,,,,,,,,,,,,,,,,,,,,,,,,,,,,,,,,
,,,,,,,,,,1576735,2020-10-26_15h48.58.557,swahili,2020.2.4,MacIntel,60,,,,,,,,,,-0.373931624,-0.139465875,1,0,0,0.399,unsorted_card,8,0,8,0,1,,,,,,,,,,,,,,,,,,,,,,,,,,,,,,,,,,,,,,,,,,,,,
,,,,,,,,,,1576735,2020-10-26_15h48.58.557,swahili,2020.2.4,MacIntel,60,,,,,,,,,,0.474358974,-0.540059347,1,0,0,0.415,done_pile,9,0,9,0,1,GRAVE - KABURI,,,,,,,,,,,,,,,,,,,,,,,,,,,,,,,,,,,,,,,,,,,,
,,,,,,,,,,1576735,2020-10-26_15h48.58.557,swahili,2020.2.4,MacIntel,60,,,,,,,,,,-0.35042735,-0.148367953,1,0,0,0.383,unsorted_card,10,0,10,0,1,,,,,,,,,,,,,,,,,,,,,,,,,,,,,,,,,,,,,,,,,,,,,
,,,,,,,,,,1576735,2020-10-26_15h48.58.557,swahili,2020.2.4,MacIntel,60,,,,,,,,,,0.478632479,-0.543026706,1,0,0,0.45,done_pile,11,0,11,0,1,MANURE - SAMADI,,,,,,,,,,,,,,,,,,,,,,,,,,,,,,,,,,,,,,,,,,,,
,,,,,,,,,,1576735,2020-10-26_15h48.58.557,swahili,2020.2.4,MacIntel,60,,,,,,,,,,-0.395299145,-0.065281899,1,0,0,0.382,unsorted_card,12,0,12,0,1,,,,,,,,,,,,,,,,,,,,,,,,,,,,,,,,,,,,,,,,,,,,,
,,,,,,,,,,1576735,2020-10-26_15h48.58.557,swahili,2020.2.4,MacIntel,60,,,,,,,,,,0.44017094,-0.554896142,1,0,0,0.482,done_pile,13,0,13,0,1,AGENT - WAKILI,,,,,,,,,,,,,,,,,,,,,,,,,,,,,,,,,,,,,,,,,,,,
,,,,,,,,,,1576735,2020-10-26_15h48.58.557,swahili,2020.2.4,MacIntel,60,,,,,,,,,,-0.275641026,-0.18694362,1,0,0,0.399,unsorted_card,14,0,14,0,1,,,,,,,,,,,,,,,,,,,,,,,,,,,,,,,,,,,,,,,,,,,,,
,,,,,,,,,,1576735,2020-10-26_15h48.58.557,swahili,2020.2.4,MacIntel,60,,,,,,,,,,0.367521368,-0.569732938,1,0,0,0.482,done_pile,15,0,15,0,1,BRIBE - RUSHWA,,,,,,,,,,,,,,,,,,,,,,,,,,,,,,,,,,,,,,,,,,,,
,,,,,,,,,,1576735,2020-10-26_15h48.58.557,swahili,2020.2.4,MacIntel,60,,,,,,,,,,-0.260683761,-0.195845697,1,0,0,0.433,unsorted_card,16,0,16,0,1,,,,,,,,,,,,,,,,,,,,,,,,,,,,,,,,,,,,,,,,,,,,,
,,,,,,,,,,1576735,2020-10-26_15h48.58.557,swahili,2020.2.4,MacIntel,60,,,,,,,,,,0.474358974,-0.489614243,1,0,0,0.482,done_pile,17,0,17,0,1,BOAT - MASHUA,,,,,,,,,,,,,,,,,,,,,,,,,,,,,,,,,,,,,,,,,,,,
,,,,,,,,,,1576735,2020-10-26_15h48.58.557,swahili,2020.2.4,MacIntel,60,,,,,,,,,,-0.395299145,-0.083086053,1,0,0,0.383,unsorted_card,18,0,18,0,1,,,,,,,,,,,,,,,,,,,,,,,,,,,,,,,,,,,,,,,,,,,,,
,,,,,,,,,,1576735,2020-10-26_15h48.58.557,swahili,2020.2.4,MacIntel,60,,,,,,,,,,0.429487179,-0.46884273,1,0,0,0.483,done_pile,19,0,19,0,1,TREASURE - DAFINA,,,,,,,,,,,,,,,,,,,,,,,,,,,,,,,,,,,,,,,,,,,,
,,,,,,,,,,1576735,2020-10-26_15h48.58.557,swahili,2020.2.4,MacIntel,60,,,,,,,,,,,,,,,,,,,,,,,,,,,,,,,,,,,,,,,,,,,,,,,,,,,,,,,0,0,0,0,1,,,,,,,
,,,,,,,,,,1576735,2020-10-26_15h48.58.557,swahili,2020.2.4,MacIntel,60,,,,,,,,,,,,,,,,,,,,,,,,,,,,,,,,,,,,,,,,,,,,,,,,,,,,,,,1,0,1,0,1,,,,,,,
