condition,consent_key.keys,consent_key.rt,done_with_instructions.keys,done_with_instructions.rt,instr_loop.thisRepN,instr_loop.thisTrialN,instr_loop.thisN,instr_loop.thisIndex,instr_loop.ran,Student ID #,date,expName,psychopyVersion,OS,frameRate,instr_learning_key.keys,instr_learning_key.rt,card_gen_loop.thisRepN,card_gen_loop.thisTrialN,card_gen_loop.thisN,card_gen_loop.thisIndex,card_gen_loop.ran,swa,eng,choose_pile.x,choose_pile.y,choose_pile.leftButton,choose_pile.midButton,choose_pile.rightButton,choose_pile.time,choose_pile.clicked_name,choices.thisRepN,choices.thisTrialN,choices.thisN,choices.thisIndex,choices.ran,card_to_show,mouse_pick.x,mouse_pick.y,mouse_pick.leftButton,mouse_pick.midButton,mouse_pick.rightButton,mouse_pick.time,mouse_pick.clicked_name,key_instr_study.keys,key_instr_study.rt,next_study.keys,next_study.rt,study_loop.thisRepN,study_loop.thisTrialN,study_loop.thisN,study_loop.thisIndex,study_loop.ran,key_instr_test.keys,learn_loop.thisRepN,learn_loop.thisTrialN,learn_loop.thisN,learn_loop.thisIndex,learn_loop.ran,trials.thisRepN,trials.thisTrialN,trials.thisN,trials.thisIndex,trials.ran,key_instr_test.rt,duration,yes_or_no.x,yes_or_no.y,yes_or_no.leftButton,yes_or_no.midButton,yes_or_no.rightButton,yes_or_no.time,yes_or_no.clicked_name,test_response.stim,test_response.resp,test_response.eval,test_loop.thisRepN,test_loop.thisTrialN,test_loop.thisN,test_loop.thisIndex,test_loop.ran,instr_movie_key.keys,instr_movie_key.rt,return_to_exp.keys,return_to_exp.rt,instr_assess_key.keys,instr_assess_key.rt,assess_loop.thisRepN,assess_loop.thisTrialN,assess_loop.thisN,assess_loop.thisIndex,assess_loop.ran,ans_gen_loop.thisRepN,ans_gen_loop.thisTrialN,ans_gen_loop.thisN,ans_gen_loop.thisIndex,ans_gen_loop.ran,sen,ans,instr_transfer_key.keys,instr_transfer_key.rt,transfer_response.resp,transfer_response.eval,select_word.x,select_word.y,select_word.leftButton,select_word.midButton,select_word.rightButton,select_word.time,select_word.clicked_name,transfers.thisRepN,transfers.thisTrialN,transfers.thisN,transfers.thisIndex,transfers.ran,end_experiment.keys,end_experiment.rt
1,return,58.259545,return,57.472865,0,0,0,0,1,00001537187,2020-10-17_14h18.36.855,swahili,2020.2.4,MacIntel,60,,,,,,,,,,,,,,,,,,,,,,,,,,,,,,,,,,,,,,,,,,,,,,,,,,,,,,,,,,,,,,,,,,,,,,,,,,,,,,,,,,,,,,,,,,,,,,,,,,,,,,
,,,,,,,,,,00001537187,2020-10-17_14h18.36.855,swahili,2020.2.4,MacIntel,60,return,24.857735,0,0,0,0,1,TAJIRI,MERCHANT,,,,,,,,,,,,,,,,,,,,,,,,,,,,,,,,,,,,,,,,,,,,,,,,,,,,,,,,,,,,,,,,,,,,,,,,,,,,,,,,,,,,,,,,,,,,,
,,,,,,,,,,00001537187,2020-10-17_14h18.36.855,swahili,2020.2.4,MacIntel,60,,,0,1,1,1,1,KASUKU,PARROT,,,,,,,,,,,,,,,,,,,,,,,,,,,,,,,,,,,,,,,,,,,,,,,,,,,,,,,,,,,,,,,,,,,,,,,,,,,,,,,,,,,,,,,,,,,,,
,,,,,,,,,,00001537187,2020-10-17_14h18.36.855,swahili,2020.2.4,MacIntel,60,,,0,2,2,2,1,FAHILI,BULL,,,,,,,,,,,,,,,,,,,,,,,,,,,,,,,,,,,,,,,,,,,,,,,,,,,,,,,,,,,,,,,,,,,,,,,,,,,,,,,,,,,,,,,,,,,,,
,,,,,,,,,,00001537187,2020-10-17_14h18.36.855,swahili,2020.2.4,MacIntel,60,,,0,3,3,3,1,SAHANI,PLATE,,,,,,,,,,,,,,,,,,,,,,,,,,,,,,,,,,,,,,,,,,,,,,,,,,,,,,,,,,,,,,,,,,,,,,,,,,,,,,,,,,,,,,,,,,,,,
,,,,,,,,,,00001537187,2020-10-17_14h18.36.855,swahili,2020.2.4,MacIntel,60,,,0,4,4,4,1,HAMIRA,YEAST,,,,,,,,,,,,,,,,,,,,,,,,,,,,,,,,,,,,,,,,,,,,,,,,,,,,,,,,,,,,,,,,,,,,,,,,,,,,,,,,,,,,,,,,,,,,,
,,,,,,,,,,00001537187,2020-10-17_14h18.36.855,swahili,2020.2.4,MacIntel,60,,,0,5,5,5,1,LAWAMA,BLAME,,,,,,,,,,,,,,,,,,,,,,,,,,,,,,,,,,,,,,,,,,,,,,,,,,,,,,,,,,,,,,,,,,,,,,,,,,,,,,,,,,,,,,,,,,,,,
,,,,,,,,,,00001537187,2020-10-17_14h18.36.855,swahili,2020.2.4,MacIntel,60,,,0,6,6,6,1,YAMINI,OATH,,,,,,,,,,,,,,,,,,,,,,,,,,,,,,,,,,,,,,,,,,,,,,,,,,,,,,,,,,,,,,,,,,,,,,,,,,,,,,,,,,,,,,,,,,,,,
,,,,,,,,,,00001537187,2020-10-17_14h18.36.855,swahili,2020.2.4,MacIntel,60,,,0,7,7,7,1,NAFAKA,CORN,,,,,,,,,,,,,,,,,,,,,,,,,,,,,,,,,,,,,,,,,,,,,,,,,,,,,,,,,,,,,,,,,,,,,,,,,,,,,,,,,,,,,,,,,,,,,
,,,,,,,,,,00001537187,2020-10-17_14h18.36.855,swahili,2020.2.4,MacIntel,60,,,0,8,8,8,1,UTENZI,POEM,,,,,,,,,,,,,,,,,,,,,,,,,,,,,,,,,,,,,,,,,,,,,,,,,,,,,,,,,,,,,,,,,,,,,,,,,,,,,,,,,,,,,,,,,,,,,
,,,,,,,,,,00001537187,2020-10-17_14h18.36.855,swahili,2020.2.4,MacIntel,60,,,0,9,9,9,1,MSHONI,TAILOR,,,,,,,,,,,,,,,,,,,,,,,,,,,,,,,,,,,,,,,,,,,,,,,,,,,,,,,,,,,,,,,,,,,,,,,,,,,,,,,,,,,,,,,,,,,,,
,,,,,,,,,,00001537187,2020-10-17_14h18.36.855,swahili,2020.2.4,MacIntel,60,,,0,10,10,10,1,JIBINI,CHEESE,,,,,,,,,,,,,,,,,,,,,,,,,,,,,,,,,,,,,,,,,,,,,,,,,,,,,,,,,,,,,,,,,,,,,,,,,,,,,,,,,,,,,,,,,,,,,
,,,,,,,,,,00001537187,2020-10-17_14h18.36.855,swahili,2020.2.4,MacIntel,60,,,0,11,11,11,1,ZABIBU,GRAPES,,,,,,,,,,,,,,,,,,,,,,,,,,,,,,,,,,,,,,,,,,,,,,,,,,,,,,,,,,,,,,,,,,,,,,,,,,,,,,,,,,,,,,,,,,,,,
,,,,,,,,,,00001537187,2020-10-17_14h18.36.855,swahili,2020.2.4,MacIntel,60,,,0,12,12,12,1,KABURI,GRAVE,,,,,,,,,,,,,,,,,,,,,,,,,,,,,,,,,,,,,,,,,,,,,,,,,,,,,,,,,,,,,,,,,,,,,,,,,,,,,,,,,,,,,,,,,,,,,
,,,,,,,,,,00001537187,2020-10-17_14h18.36.855,swahili,2020.2.4,MacIntel,60,,,0,13,13,13,1,SAMADI,MANURE,,,,,,,,,,,,,,,,,,,,,,,,,,,,,,,,,,,,,,,,,,,,,,,,,,,,,,,,,,,,,,,,,,,,,,,,,,,,,,,,,,,,,,,,,,,,,
,,,,,,,,,,00001537187,2020-10-17_14h18.36.855,swahili,2020.2.4,MacIntel,60,,,0,14,14,14,1,WAKILI,AGENT,,,,,,,,,,,,,,,,,,,,,,,,,,,,,,,,,,,,,,,,,,,,,,,,,,,,,,,,,,,,,,,,,,,,,,,,,,,,,,,,,,,,,,,,,,,,,
,,,,,,,,,,00001537187,2020-10-17_14h18.36.855,swahili,2020.2.4,MacIntel,60,,,0,15,15,15,1,RUSHWA,BRIBE,,,,,,,,,,,,,,,,,,,,,,,,,,,,,,,,,,,,,,,,,,,,,,,,,,,,,,,,,,,,,,,,,,,,,,,,,,,,,,,,,,,,,,,,,,,,,
,,,,,,,,,,00001537187,2020-10-17_14h18.36.855,swahili,2020.2.4,MacIntel,60,,,0,16,16,16,1,YATIMA,ORPHAN,,,,,,,,,,,,,,,,,,,,,,,,,,,,,,,,,,,,,,,,,,,,,,,,,,,,,,,,,,,,,,,,,,,,,,,,,,,,,,,,,,,,,,,,,,,,,
,,,,,,,,,,00001537187,2020-10-17_14h18.36.855,swahili,2020.2.4,MacIntel,60,,,0,17,17,17,1,TALAKA,DIVORCE,,,,,,,,,,,,,,,,,,,,,,,,,,,,,,,,,,,,,,,,,,,,,,,,,,,,,,,,,,,,,,,,,,,,,,,,,,,,,,,,,,,,,,,,,,,,,
,,,,,,,,,,00001537187,2020-10-17_14h18.36.855,swahili,2020.2.4,MacIntel,60,,,0,18,18,18,1,MASHUA,BOAT,,,,,,,,,,,,,,,,,,,,,,,,,,,,,,,,,,,,,,,,,,,,,,,,,,,,,,,,,,,,,,,,,,,,,,,,,,,,,,,,,,,,,,,,,,,,,
,,,,,,,,,,00001537187,2020-10-17_14h18.36.855,swahili,2020.2.4,MacIntel,60,,,0,19,19,19,1,DAFINA,TREASURE,,,,,,,,,,,,,,,,,,,,,,,,,,,,,,,,,,,,,,,,,,,,,,,,,,,,,,,,,,,,,,,,,,,,,,,,,,,,,,,,,,,,,,,,,,,,,
,,,,,,,,,,00001537187,2020-10-17_14h18.36.855,swahili,2020.2.4,MacIntel,60,,,,,,,,,,-0.407318793,0.118003472,1,0,0,15.671545,unsorted_card,0,0,0,0,1,,,,,,,,,,,,,,,,,,,,,,,,,,,,,,,,,,,,,,,,,,,,,,,,,,,,,,,,,,,,,,,,,,,,,,,,,,,,,,,,,
,,,,,,,,,,00001537187,2020-10-17_14h18.36.855,swahili,2020.2.4,MacIntel,60,,,,,,,,,,-0.445355903,-0.045859375,1,0,0,3.228285,unsorted_card,1,0,1,0,1,MERCHANT - TAJIRI,,,,,,,,,,,,,,,,,,,,,,,,,,,,,,,,,,,,,,,,,,,,,,,,,,,,,,,,,,,,,,,,,,,,,,,,,,,,,,,,
,,,,,,,,,,00001537187,2020-10-17_14h18.36.855,swahili,2020.2.4,MacIntel,60,,,,,,,,,,0.367458767,0.494652778,1,0,0,3.74896,study_pile,2,0,2,0,1,MERCHANT - TAJIRI,,,,,,,,,,,,,,,,,,,,,,,,,,,,,,,,,,,,,,,,,,,,,,,,,,,,,,,,,,,,,,,,,,,,,,,,,,,,,,,,
,,,,,,,,,,00001537187,2020-10-17_14h18.36.855,swahili,2020.2.4,MacIntel,60,,,,,,,,,,-0.238183594,-0.011970486,1,0,0,0.9132,unsorted_card,3,0,3,0,1,,,,,,,,,,,,,,,,,,,,,,,,,,,,,,,,,,,,,,,,,,,,,,,,,,,,,,,,,,,,,,,,,,,,,,,,,,,,,,,,,
,,,,,,,,,,00001537187,2020-10-17_14h18.36.855,swahili,2020.2.4,MacIntel,60,,,,,,,,,,0.363905165,0.468046875,1,0,0,7.5995,study_pile,4,0,4,0,1,PARROT - KASUKU,,,,,,,,,,,,,,,,,,,,,,,,,,,,,,,,,,,,,,,,,,,,,,,,,,,,,,,,,,,,,,,,,,,,,,,,,,,,,,,,
,,,,,,,,,,00001537187,2020-10-17_14h18.36.855,swahili,2020.2.4,MacIntel,60,,,,,,,,,,-0.213123915,0.020868056,1,0,0,0.746735,unsorted_card,5,0,5,0,1,,,,,,,,,,,,,,,,,,,,,,,,,,,,,,,,,,,,,,,,,,,,,,,,,,,,,,,,,,,,,,,,,,,,,,,,,,,,,,,,,
,,,,,,,,,,00001537187,2020-10-17_14h18.36.855,swahili,2020.2.4,MacIntel,60,,,,,,,,,,0.328965929,0.437022569,1,0,0,1.96664,study_pile,6,0,6,0,1,BULL - FAHILI,,,,,,,,,,,,,,,,,,,,,,,,,,,,,,,,,,,,,,,,,,,,,,,,,,,,,,,,,,,,,,,,,,,,,,,,,,,,,,,,
,,,,,,,,,,00001537187,2020-10-17_14h18.36.855,swahili,2020.2.4,MacIntel,60,,,,,,,,,,-0.209282769,0.154045139,1,0,0,0.63289,unsorted_card,7,0,7,0,1,,,,,,,,,,,,,,,,,,,,,,,,,,,,,,,,,,,,,,,,,,,,,,,,,,,,,,,,,,,,,,,,,,,,,,,,,,,,,,,,,
,,,,,,,,,,00001537187,2020-10-17_14h18.36.855,swahili,2020.2.4,MacIntel,60,,,,,,,,,,0.405040148,0.484678819,1,0,0,1.5804,study_pile,8,0,8,0,1,PLATE - SAHANI,,,,,,,,,,,,,,,,,,,,,,,,,,,,,,,,,,,,,,,,,,,,,,,,,,,,,,,,,,,,,,,,,,,,,,,,,,,,,,,,
,,,,,,,,,,00001537187,2020-10-17_14h18.36.855,swahili,2020.2.4,MacIntel,60,,,,,,,,,,-0.149419488,0.007135417,1,0,0,0.64938,unsorted_card,9,0,9,0,1,,,,,,,,,,,,,,,,,,,,,,,,,,,,,,,,,,,,,,,,,,,,,,,,,,,,,,,,,,,,,,,,,,,,,,,,,,,,,,,,,
,,,,,,,,,,00001537187,2020-10-17_14h18.36.855,swahili,2020.2.4,MacIntel,60,,,,,,,,,,0.408930122,0.526961806,1,0,0,2.399495,study_pile,10,0,10,0,1,YEAST - HAMIRA,,,,,,,,,,,,,,,,,,,,,,,,,,,,,,,,,,,,,,,,,,,,,,,,,,,,,,,,,,,,,,,,,,,,,,,,,,,,,,,,
,,,,,,,,,,00001537187,2020-10-17_14h18.36.855,swahili,2020.2.4,MacIntel,60,,,,,,,,,,-0.164621311,-0.099800347,1,0,0,1.082325,unsorted_card,11,0,11,0,1,,,,,,,,,,,,,,,,,,,,,,,,,,,,,,,,,,,,,,,,,,,,,,,,,,,,,,,,,,,,,,,,,,,,,,,,,,,,,,,,,
,,,,,,,,,,00001537187,2020-10-17_14h18.36.855,swahili,2020.2.4,MacIntel,60,,,,,,,,,,0.383767361,0.519340278,1,0,0,1.781765,study_pile,12,0,12,0,1,BLAME - LAWAMA,,,,,,,,,,,,,,,,,,,,,,,,,,,,,,,,,,,,,,,,,,,,,,,,,,,,,,,,,,,,,,,,,,,,,,,,,,,,,,,,
,,,,,,,,,,00001537187,2020-10-17_14h18.36.855,swahili,2020.2.4,MacIntel,60,,,,,,,,,,-0.41226671,-0.105763889,1,0,0,0.916865,unsorted_card,13,0,13,0,1,,,,,,,,,,,,,,,,,,,,,,,,,,,,,,,,,,,,,,,,,,,,,,,,,,,,,,,,,,,,,,,,,,,,,,,,,,,,,,,,,
,,,,,,,,,,00001537187,2020-10-17_14h18.36.855,swahili,2020.2.4,MacIntel,60,,,,,,,,,,0.405609809,0.479644097,1,0,0,1.515195,study_pile,14,0,14,0,1,OATH - YAMINI,,,,,,,,,,,,,,,,,,,,,,,,,,,,,,,,,,,,,,,,,,,,,,,,,,,,,,,,,,,,,,,,,,,,,,,,,,,,,,,,
,,,,,,,,,,00001537187,2020-10-17_14h18.36.855,swahili,2020.2.4,MacIntel,60,,,,,,,,,,-0.28922526,0.156197917,1,0,0,0.713995,unsorted_card,15,0,15,0,1,,,,,,,,,,,,,,,,,,,,,,,,,,,,,,,,,,,,,,,,,,,,,,,,,,,,,,,,,,,,,,,,,,,,,,,,,,,,,,,,,
,,,,,,,,,,00001537187,2020-10-17_14h18.36.855,swahili,2020.2.4,MacIntel,60,,,,,,,,,,0.376085069,0.551840278,1,0,0,1.49894,study_pile,16,0,16,0,1,CORN - NAFAKA,,,,,,,,,,,,,,,,,,,,,,,,,,,,,,,,,,,,,,,,,,,,,,,,,,,,,,,,,,,,,,,,,,,,,,,,,,,,,,,,
,,,,,,,,,,00001537187,2020-10-17_14h18.36.855,swahili,2020.2.4,MacIntel,60,,,,,,,,,,-0.284450955,0.067326389,1,0,0,0.66745,unsorted_card,17,0,17,0,1,,,,,,,,,,,,,,,,,,,,,,,,,,,,,,,,,,,,,,,,,,,,,,,,,,,,,,,,,,,,,,,,,,,,,,,,,,,,,,,,,
,,,,,,,,,,00001537187,2020-10-17_14h18.36.855,swahili,2020.2.4,MacIntel,60,,,,,,,,,,0.344303385,0.478298611,1,0,0,1.465725,study_pile,18,0,18,0,1,POEM - UTENZI,,,,,,,,,,,,,,,,,,,,,,,,,,,,,,,,,,,,,,,,,,,,,,,,,,,,,,,,,,,,,,,,,,,,,,,,,,,,,,,,
,,,,,,,,,,00001537187,2020-10-17_14h18.36.855,swahili,2020.2.4,MacIntel,60,,,,,,,,,,-0.200010851,0.119140625,1,0,0,0.63171,unsorted_card,19,0,19,0,1,,,,,,,,,,,,,,,,,,,,,,,,,,,,,,,,,,,,,,,,,,,,,,,,,,,,,,,,,,,,,,,,,,,,,,,,,,,,,,,,,
,,,,,,,,,,00001537187,2020-10-17_14h18.36.855,swahili,2020.2.4,MacIntel,60,,,,,,,,,,0.406239149,0.518020833,1,0,0,1.497865,study_pile,20,0,20,0,1,TAILOR - MSHONI,,,,,,,,,,,,,,,,,,,,,,,,,,,,,,,,,,,,,,,,,,,,,,,,,,,,,,,,,,,,,,,,,,,,,,,,,,,,,,,,
,,,,,,,,,,00001537187,2020-10-17_14h18.36.855,swahili,2020.2.4,MacIntel,60,,,,,,,,,,-0.277631293,-0.00515625,1,0,0,0.63292,unsorted_card,21,0,21,0,1,,,,,,,,,,,,,,,,,,,,,,,,,,,,,,,,,,,,,,,,,,,,,,,,,,,,,,,,,,,,,,,,,,,,,,,,,,,,,,,,,
,,,,,,,,,,00001537187,2020-10-17_14h18.36.855,swahili,2020.2.4,MacIntel,60,,,,,,,,,,0.371251085,0.523923611,1,0,0,1.098845,study_pile,22,0,22,0,1,CHEESE - JIBINI,,,,,,,,,,,,,,,,,,,,,,,,,,,,,,,,,,,,,,,,,,,,,,,,,,,,,,,,,,,,,,,,,,,,,,,,,,,,,,,,
,,,,,,,,,,00001537187,2020-10-17_14h18.36.855,swahili,2020.2.4,MacIntel,60,,,,,,,,,,-0.233322483,-0.065243056,1,0,0,0.59937,unsorted_card,23,0,23,0,1,,,,,,,,,,,,,,,,,,,,,,,,,,,,,,,,,,,,,,,,,,,,,,,,,,,,,,,,,,,,,,,,,,,,,,,,,,,,,,,,,
,,,,,,,,,,00001537187,2020-10-17_14h18.36.855,swahili,2020.2.4,MacIntel,60,,,,,,,,,,0.353938802,0.557387153,1,0,0,0.89972,study_pile,24,0,24,0,1,GRAPES - ZABIBU,,,,,,,,,,,,,,,,,,,,,,,,,,,,,,,,,,,,,,,,,,,,,,,,,,,,,,,,,,,,,,,,,,,,,,,,,,,,,,,,
,,,,,,,,,,00001537187,2020-10-17_14h18.36.855,swahili,2020.2.4,MacIntel,60,,,,,,,,,,-0.304513889,-0.060755208,1,0,0,0.580265,unsorted_card,25,0,25,0,1,,,,,,,,,,,,,,,,,,,,,,,,,,,,,,,,,,,,,,,,,,,,,,,,,,,,,,,,,,,,,,,,,,,,,,,,,,,,,,,,,
,,,,,,,,,,00001537187,2020-10-17_14h18.36.855,swahili,2020.2.4,MacIntel,60,,,,,,,,,,0.344514974,0.525234375,1,0,0,0.949065,study_pile,26,0,26,0,1,GRAVE - KABURI,,,,,,,,,,,,,,,,,,,,,,,,,,,,,,,,,,,,,,,,,,,,,,,,,,,,,,,,,,,,,,,,,,,,,,,,,,,,,,,,
,,,,,,,,,,00001537187,2020-10-17_14h18.36.855,swahili,2020.2.4,MacIntel,60,,,,,,,,,,-0.274424913,-0.029618056,1,0,0,0.56528,unsorted_card,27,0,27,0,1,,,,,,,,,,,,,,,,,,,,,,,,,,,,,,,,,,,,,,,,,,,,,,,,,,,,,,,,,,,,,,,,,,,,,,,,,,,,,,,,,
,,,,,,,,,,00001537187,2020-10-17_14h18.36.855,swahili,2020.2.4,MacIntel,60,,,,,,,,,,0.358789062,0.471918403,1,0,0,1.231845,study_pile,28,0,28,0,1,MANURE - SAMADI,,,,,,,,,,,,,,,,,,,,,,,,,,,,,,,,,,,,,,,,,,,,,,,,,,,,,,,,,,,,,,,,,,,,,,,,,,,,,,,,
,,,,,,,,,,00001537187,2020-10-17_14h18.36.855,swahili,2020.2.4,MacIntel,60,,,,,,,,,,-0.233327908,0.060173611,1,0,0,0.54974,unsorted_card,29,0,29,0,1,,,,,,,,,,,,,,,,,,,,,,,,,,,,,,,,,,,,,,,,,,,,,,,,,,,,,,,,,,,,,,,,,,,,,,,,,,,,,,,,,
,,,,,,,,,,00001537187,2020-10-17_14h18.36.855,swahili,2020.2.4,MacIntel,60,,,,,,,,,,0.313178168,0.466067708,1,0,0,1.24863,study_pile,30,0,30,0,1,AGENT - WAKILI,,,,,,,,,,,,,,,,,,,,,,,,,,,,,,,,,,,,,,,,,,,,,,,,,,,,,,,,,,,,,,,,,,,,,,,,,,,,,,,,
,,,,,,,,,,00001537187,2020-10-17_14h18.36.855,swahili,2020.2.4,MacIntel,60,,,,,,,,,,-0.17664388,0.060460069,1,0,0,0.6321,unsorted_card,31,0,31,0,1,,,,,,,,,,,,,,,,,,,,,,,,,,,,,,,,,,,,,,,,,,,,,,,,,,,,,,,,,,,,,,,,,,,,,,,,,,,,,,,,,
,,,,,,,,,,00001537187,2020-10-17_14h18.36.855,swahili,2020.2.4,MacIntel,60,,,,,,,,,,0.366031901,0.422421875,1,0,0,2.66671,study_pile,32,0,32,0,1,BRIBE - RUSHWA,,,,,,,,,,,,,,,,,,,,,,,,,,,,,,,,,,,,,,,,,,,,,,,,,,,,,,,,,,,,,,,,,,,,,,,,,,,,,,,,
,,,,,,,,,,00001537187,2020-10-17_14h18.36.855,swahili,2020.2.4,MacIntel,60,,,,,,,,,,-0.222715929,-0.028012153,1,0,0,0.565055,unsorted_card,33,0,33,0,1,,,,,,,,,,,,,,,,,,,,,,,,,,,,,,,,,,,,,,,,,,,,,,,,,,,,,,,,,,,,,,,,,,,,,,,,,,,,,,,,,
,,,,,,,,,,00001537187,2020-10-17_14h18.36.855,swahili,2020.2.4,MacIntel,60,,,,,,,,,,0.386539714,0.432569444,1,0,0,1.28247,study_pile,34,0,34,0,1,ORPHAN - YATIMA,,,,,,,,,,,,,,,,,,,,,,,,,,,,,,,,,,,,,,,,,,,,,,,,,,,,,,,,,,,,,,,,,,,,,,,,,,,,,,,,
,,,,,,,,,,00001537187,2020-10-17_14h18.36.855,swahili,2020.2.4,MacIntel,60,,,,,,,,,,-0.24524197,-0.054878472,1,0,0,0.628925,unsorted_card,35,0,35,0,1,,,,,,,,,,,,,,,,,,,,,,,,,,,,,,,,,,,,,,,,,,,,,,,,,,,,,,,,,,,,,,,,,,,,,,,,,,,,,,,,,
,,,,,,,,,,00001537187,2020-10-17_14h18.36.855,swahili,2020.2.4,MacIntel,60,,,,,,,,,,0.403846571,0.550677083,1,0,0,1.11502,study_pile,36,0,36,0,1,DIVORCE - TALAKA,,,,,,,,,,,,,,,,,,,,,,,,,,,,,,,,,,,,,,,,,,,,,,,,,,,,,,,,,,,,,,,,,,,,,,,,,,,,,,,,
,,,,,,,,,,00001537187,2020-10-17_14h18.36.855,swahili,2020.2.4,MacIntel,60,,,,,,,,,,-0.385091146,-0.028038194,1,0,0,0.699095,unsorted_card,37,0,37,0,1,,,,,,,,,,,,,,,,,,,,,,,,,,,,,,,,,,,,,,,,,,,,,,,,,,,,,,,,,,,,,,,,,,,,,,,,,,,,,,,,,
,,,,,,,,,,00001537187,2020-10-17_14h18.36.855,swahili,2020.2.4,MacIntel,60,,,,,,,,,,0.332807075,0.459184028,1,0,0,1.432705,study_pile,38,0,38,0,1,BOAT - MASHUA,,,,,,,,,,,,,,,,,,,,,,,,,,,,,,,,,,,,,,,,,,,,,,,,,,,,,,,,,,,,,,,,,,,,,,,,,,,,,,,,
,,,,,,,,,,00001537187,2020-10-17_14h18.36.855,swahili,2020.2.4,MacIntel,60,,,,,,,,,,-0.376551649,-0.137578125,1,0,0,0.648265,unsorted_card,39,0,39,0,1,,,,,,,,,,,,,,,,,,,,,,,,,,,,,,,,,,,,,,,,,,,,,,,,,,,,,,,,,,,,,,,,,,,,,,,,,,,,,,,,,
,,,,,,,,,,00001537187,2020-10-17_14h18.36.855,swahili,2020.2.4,MacIntel,60,,,,,,,,,,0.375515408,0.441909722,1,0,0,1.164855,study_pile,40,0,40,0,1,TREASURE - DAFINA,,,,,,,,,,,,,,,,,,,,,,,,,,,,,,,,,,,,,,,,,,,,,,,,,,,,,,,,,,,,,,,,,,,,,,,,,,,,,,,,
,,,,,,,,,,00001537187,2020-10-17_14h18.36.855,swahili,2020.2.4,MacIntel,60,,,,,,,,,,,,,,,,,,,,,,ORPHAN - YATIMA,,,,,,,,return,6.070555,return,5.77118,0,0,0,0,1,,,,,,,,,,,,,,,,,,,,,,,,,,,,,,,,,,,,,,,,,,,,,,,,,,,,,,,,,,,,,,,,
,,,,,,,,,,00001537187,2020-10-17_14h18.36.855,swahili,2020.2.4,MacIntel,60,,,,,,,,,,,,,,,,,,,,,,CORN - NAFAKA,,,,,,,,,,return,3.766175,1,0,1,0,1,,,,,,,,,,,,,,,,,,,,,,,,,,,,,,,,,,,,,,,,,,,,,,,,,,,,,,,,,,,,,,,,
,,,,,,,,,,00001537187,2020-10-17_14h18.36.855,swahili,2020.2.4,MacIntel,60,,,,,,,,,,,,,,,,,,,,,,MANURE - SAMADI,,,,,,,,,,return,6.533195,2,0,2,0,1,,,,,,,,,,,,,,,,,,,,,,,,,,,,,,,,,,,,,,,,,,,,,,,,,,,,,,,,,,,,,,,,
,,,,,,,,,,00001537187,2020-10-17_14h18.36.855,swahili,2020.2.4,MacIntel,60,,,,,,,,,,,,,,,,,,,,,,YEAST - HAMIRA,,,,,,,,,,return,3.303015,3,0,3,0,1,,,,,,,,,,,,,,,,,,,,,,,,,,,,,,,,,,,,,,,,,,,,,,,,,,,,,,,,,,,,,,,,
,,,,,,,,,,00001537187,2020-10-17_14h18.36.855,swahili,2020.2.4,MacIntel,60,,,,,,,,,,,,,,,,,,,,,,GRAPES - ZABIBU,,,,,,,,,,return,4.08258,4,0,4,0,1,,,,,,,,,,,,,,,,,,,,,,,,,,,,,,,,,,,,,,,,,,,,,,,,,,,,,,,,,,,,,,,,
,,,,,,,,,,00001537187,2020-10-17_14h18.36.855,swahili,2020.2.4,MacIntel,60,,,,,,,,,,,,,,,,,,,,,,BRIBE - RUSHWA,,,,,,,,,,return,10.904635,5,0,5,0,1,,,,,,,,,,,,,,,,,,,,,,,,,,,,,,,,,,,,,,,,,,,,,,,,,,,,,,,,,,,,,,,,
,,,,,,,,,,00001537187,2020-10-17_14h18.36.855,swahili,2020.2.4,MacIntel,60,,,,,,,,,,,,,,,,,,,,,,DIVORCE - TALAKA,,,,,,,,,,return,10.10019,6,0,6,0,1,,,,,,,,,,,,,,,,,,,,,,,,,,,,,,,,,,,,,,,,,,,,,,,,,,,,,,,,,,,,,,,,
,,,,,,,,,,00001537187,2020-10-17_14h18.36.855,swahili,2020.2.4,MacIntel,60,,,,,,,,,,,,,,,,,,,,,,GRAVE - KABURI,,,,,,,,,,return,5.367335,7,0,7,0,1,,,,,,,,,,,,,,,,,,,,,,,,,,,,,,,,,,,,,,,,,,,,,,,,,,,,,,,,,,,,,,,,
,,,,,,,,,,00001537187,2020-10-17_14h18.36.855,swahili,2020.2.4,MacIntel,60,,,,,,,,,,,,,,,,,,,,,,CHEESE - JIBINI,,,,,,,,,,return,3.867635,8,0,8,0,1,,,,,,,,,,,,,,,,,,,,,,,,,,,,,,,,,,,,,,,,,,,,,,,,,,,,,,,,,,,,,,,,
,,,,,,,,,,00001537187,2020-10-17_14h18.36.855,swahili,2020.2.4,MacIntel,60,,,,,,,,,,,,,,,,,,,,,,BOAT - MASHUA,,,,,,,,,,return,2.19998,9,0,9,0,1,,,,,,,,,,,,,,,,,,,,,,,,,,,,,,,,,,,,,,,,,,,,,,,,,,,,,,,,,,,,,,,,
,,,,,,,,,,00001537187,2020-10-17_14h18.36.855,swahili,2020.2.4,MacIntel,60,,,,,,,,,,,,,,,,,,,,,,OATH - YAMINI,,,,,,,,,,return,12.18857,10,0,10,0,1,,,,,,,,,,,,,,,,,,,,,,,,,,,,,,,,,,,,,,,,,,,,,,,,,,,,,,,,,,,,,,,,
,,,,,,,,,,00001537187,2020-10-17_14h18.36.855,swahili,2020.2.4,MacIntel,60,,,,,,,,,,,,,,,,,,,,,,POEM - UTENZI,,,,,,,,,,return,4.212885,11,0,11,0,1,,,,,,,,,,,,,,,,,,,,,,,,,,,,,,,,,,,,,,,,,,,,,,,,,,,,,,,,,,,,,,,,
,,,,,,,,,,00001537187,2020-10-17_14h18.36.855,swahili,2020.2.4,MacIntel,60,,,,,,,,,,,,,,,,,,,,,,PLATE - SAHANI,,,,,,,,,,return,4.5849,12,0,12,0,1,,,,,,,,,,,,,,,,,,,,,,,,,,,,,,,,,,,,,,,,,,,,,,,,,,,,,,,,,,,,,,,,
,,,,,,,,,,00001537187,2020-10-17_14h18.36.855,swahili,2020.2.4,MacIntel,60,,,,,,,,,,,,,,,,,,,,,,AGENT - WAKILI,,,,,,,,,,return,3.664415,13,0,13,0,1,,,,,,,,,,,,,,,,,,,,,,,,,,,,,,,,,,,,,,,,,,,,,,,,,,,,,,,,,,,,,,,,
,,,,,,,,,,00001537187,2020-10-17_14h18.36.855,swahili,2020.2.4,MacIntel,60,,,,,,,,,,,,,,,,,,,,,,BULL - FAHILI,,,,,,,,,,return,2.012495,14,0,14,0,1,,,,,,,,,,,,,,,,,,,,,,,,,,,,,,,,,,,,,,,,,,,,,,,,,,,,,,,,,,,,,,,,
,,,,,,,,,,00001537187,2020-10-17_14h18.36.855,swahili,2020.2.4,MacIntel,60,,,,,,,,,,,,,,,,,,,,,,TAILOR - MSHONI,,,,,,,,,,return,2.463275,15,0,15,0,1,,,,,,,,,,,,,,,,,,,,,,,,,,,,,,,,,,,,,,,,,,,,,,,,,,,,,,,,,,,,,,,,
,,,,,,,,,,00001537187,2020-10-17_14h18.36.855,swahili,2020.2.4,MacIntel,60,,,,,,,,,,,,,,,,,,,,,,MERCHANT - TAJIRI,,,,,,,,,,return,1.64983,16,0,16,0,1,,,,,,,,,,,,,,,,,,,,,,,,,,,,,,,,,,,,,,,,,,,,,,,,,,,,,,,,,,,,,,,,
,,,,,,,,,,00001537187,2020-10-17_14h18.36.855,swahili,2020.2.4,MacIntel,60,,,,,,,,,,,,,,,,,,,,,,PARROT - KASUKU,,,,,,,,,,return,27.01742,17,0,17,0,1,,,,,,,,,,,,,,,,,,,,,,,,,,,,,,,,,,,,,,,,,,,,,,,,,,,,,,,,,,,,,,,,
,,,,,,,,,,00001537187,2020-10-17_14h18.36.855,swahili,2020.2.4,MacIntel,60,,,,,,,,,,,,,,,,,,,,,,BLAME - LAWAMA,,,,,,,,,,return,108.976695,18,0,18,0,1,,,,,,,,,,,,,,,,,,,,,,,,,,,,,,,,,,,,,,,,,,,,,,,,,,,,,,,,,,,,,,,,
,,,,,,,,,,00001537187,2020-10-17_14h18.36.855,swahili,2020.2.4,MacIntel,60,,,,,,,,,,,,,,,,,,,,,,TREASURE - DAFINA,,,,,,,,,,return,11.2335,19,0,19,0,1,,,,,,,,,,,,,,,,,,,,,,,,,,,,,,,,,,,,,,,,,,,,,,,,,,,,,,,,,,,,,,,,
,,,,,,,,,,00001537187,2020-10-17_14h18.36.855,swahili,2020.2.4,MacIntel,60,,,,,,,,,,,,,,,,,,,,,,,,,,,,,,,,,,,,,,,,0,0,0,0,1,,,,,,,,,,,,,,,,,,,,,,,,,,,,,,,,,,,,,,,,,,,,,,,,,,,,,,,,,,
,,,,,,,,,,00001537187,2020-10-17_14h18.36.855,swahili,2020.2.4,MacIntel,60,,,,,,,,,,,,,,,,,,,,,,,,,,,,,,,,,,,,,,,,1,0,1,0,1,,,,,,,,,,,,,,,,,,,,,,,,,,,,,,,,,,,,,,,,,,,,,,,,,,,,,,,,,,
,,,,,,,,,,00001537187,2020-10-17_14h18.36.855,swahili,2020.2.4,MacIntel,60,,,,,,,,,,,,,,,,,,,,,,,,,,,,,,,,,,,,,,,,,,,,,0,0,0,0,1,,,,,,,,,,,,,,,,,,,,,,,,,,,,,,,,,,,,,,,,,,,,,,,,,,,,,
,,,,,,,,,,00001537187,2020-10-17_14h18.36.855,swahili,2020.2.4,MacIntel,60,,,,,,,,,,-0.130501302,-0.059236111,1,0,0,3.853195,unsorted_card,0,0,0,0,1,,,,,,,,,,,,,,,,,,,,,,,,,,,,,,,,,,,,,,,,,,,,,,,,,,,,,,,,,,,,,,,,,,,,,,,,,,,,,,,,,
,,,,,,,,,,00001537187,2020-10-17_14h18.36.855,swahili,2020.2.4,MacIntel,60,,,,,,,,,,0.510118273,0.532595486,1,0,0,44.41513,study_pile,1,0,1,0,1,MERCHANT - TAJIRI,,,,,,,,,,,,,,,,,,,,,,,,,,,,,,,,,,,,,,,,,,,,,,,,,,,,,,,,,,,,,,,,,,,,,,,,,,,,,,,,
,,,,,,,,,,00001537187,2020-10-17_14h18.36.855,swahili,2020.2.4,MacIntel,60,,,,,,,,,,-0.163172743,0.217673611,1,0,0,0.681855,unsorted_card,2,0,2,0,1,,,,,,,,,,,,,,,,,,,,,,,,,,,,,,,,,,,,,,,,,,,,,,,,,,,,,,,,,,,,,,,,,,,,,,,,,,,,,,,,,
,,,,,,,,,,00001537187,2020-10-17_14h18.36.855,swahili,2020.2.4,MacIntel,60,,,,,,,,,,0.516845703,0.550590278,1,0,0,10.9496,study_pile,3,0,3,0,1,PARROT - KASUKU,,,,,,,,,,,,,,,,,,,,,,,,,,,,,,,,,,,,,,,,,,,,,,,,,,,,,,,,,,,,,,,,,,,,,,,,,,,,,,,,
,,,,,,,,,,00001537187,2020-10-17_14h18.36.855,swahili,2020.2.4,MacIntel,60,,,,,,,,,,-0.165066189,-0.015503472,1,0,0,1.312455,unsorted_card,4,0,4,0,1,,,,,,,,,,,,,,,,,,,,,,,,,,,,,,,,,,,,,,,,,,,,,,,,,,,,,,,,,,,,,,,,,,,,,,,,,,,,,,,,,
,,,,,,,,,,00001537187,2020-10-17_14h18.36.855,swahili,2020.2.4,MacIntel,60,,,,,,,,,,0.391916233,0.419314236,1,0,0,9.94972,study_pile,5,0,5,0,1,BULL - FAHILI,,,,,,,,,,,,,,,,,,,,,,,,,,,,,,,,,,,,,,,,,,,,,,,,,,,,,,,,,,,,,,,,,,,,,,,,,,,,,,,,
,,,,,,,,,,00001537187,2020-10-17_14h18.36.855,swahili,2020.2.4,MacIntel,60,,,,,,,,,,-0.330859375,-0.242135417,1,0,0,0.58329,unsorted_card,6,0,6,0,1,,,,,,,,,,,,,,,,,,,,,,,,,,,,,,,,,,,,,,,,,,,,,,,,,,,,,,,,,,,,,,,,,,,,,,,,,,,,,,,,,
,,,,,,,,,,00001537187,2020-10-17_14h18.36.855,swahili,2020.2.4,MacIntel,60,,,,,,,,,,0.429410807,0.4696875,1,0,0,11.295675,study_pile,7,0,7,0,1,PLATE - SAHANI,,,,,,,,,,,,,,,,,,,,,,,,,,,,,,,,,,,,,,,,,,,,,,,,,,,,,,,,,,,,,,,,,,,,,,,,,,,,,,,,
,,,,,,,,,,00001537187,2020-10-17_14h18.36.855,swahili,2020.2.4,MacIntel,60,,,,,,,,,,-0.194650608,-0.026866319,1,0,0,0.814655,unsorted_card,8,0,8,0,1,,,,,,,,,,,,,,,,,,,,,,,,,,,,,,,,,,,,,,,,,,,,,,,,,,,,,,,,,,,,,,,,,,,,,,,,,,,,,,,,,
,,,,,,,,,,00001537187,2020-10-17_14h18.36.855,swahili,2020.2.4,MacIntel,60,,,,,,,,,,0.414827474,0.494314236,1,0,0,12.082575,study_pile,9,0,9,0,1,YEAST - HAMIRA,,,,,,,,,,,,,,,,,,,,,,,,,,,,,,,,,,,,,,,,,,,,,,,,,,,,,,,,,,,,,,,,,,,,,,,,,,,,,,,,
,,,,,,,,,,00001537187,2020-10-17_14h18.36.855,swahili,2020.2.4,MacIntel,60,,,,,,,,,,-0.136778429,-0.008958333,1,0,0,0.581045,unsorted_card,10,0,10,0,1,,,,,,,,,,,,,,,,,,,,,,,,,,,,,,,,,,,,,,,,,,,,,,,,,,,,,,,,,,,,,,,,,,,,,,,,,,,,,,,,,
,,,,,,,,,,00001537187,2020-10-17_14h18.36.855,swahili,2020.2.4,MacIntel,60,,,,,,,,,,0.514257813,-0.017326389,1,0,0,3.19782,test_pile,11,0,11,0,1,BLAME - LAWAMA,,,,,,,,,,,,,,,,,,,,,,,,,,,,,,,,,,,,,,,,,,,,,,,,,,,,,,,,,,,,,,,,,,,,,,,,,,,,,,,,
,,,,,,,,,,00001537187,2020-10-17_14h18.36.855,swahili,2020.2.4,MacIntel,60,,,,,,,,,,-0.198448351,-0.004895833,1,0,0,0.96683,unsorted_card,12,0,12,0,1,,,,,,,,,,,,,,,,,,,,,,,,,,,,,,,,,,,,,,,,,,,,,,,,,,,,,,,,,,,,,,,,,,,,,,,,,,,,,,,,,
,,,,,,,,,,00001537187,2020-10-17_14h18.36.855,swahili,2020.2.4,MacIntel,60,,,,,,,,,,0.363530816,0.040607639,1,0,0,1.83168,test_pile,13,0,13,0,1,OATH - YAMINI,,,,,,,,,,,,,,,,,,,,,,,,,,,,,,,,,,,,,,,,,,,,,,,,,,,,,,,,,,,,,,,,,,,,,,,,,,,,,,,,
,,,,,,,,,,00001537187,2020-10-17_14h18.36.855,swahili,2020.2.4,MacIntel,60,,,,,,,,,,-0.273323568,-0.012005208,1,0,0,0.632875,unsorted_card,14,0,14,0,1,,,,,,,,,,,,,,,,,,,,,,,,,,,,,,,,,,,,,,,,,,,,,,,,,,,,,,,,,,,,,,,,,,,,,,,,,,,,,,,,,
,,,,,,,,,,00001537187,2020-10-17_14h18.36.855,swahili,2020.2.4,MacIntel,60,,,,,,,,,,0.472043186,0.393758681,1,0,0,2.413715,study_pile,15,0,15,0,1,CORN - NAFAKA,,,,,,,,,,,,,,,,,,,,,,,,,,,,,,,,,,,,,,,,,,,,,,,,,,,,,,,,,,,,,,,,,,,,,,,,,,,,,,,,
,,,,,,,,,,00001537187,2020-10-17_14h18.36.855,swahili,2020.2.4,MacIntel,60,,,,,,,,,,-0.112424045,-0.134184028,1,0,0,0.900515,unsorted_card,16,0,16,0,1,,,,,,,,,,,,,,,,,,,,,,,,,,,,,,,,,,,,,,,,,,,,,,,,,,,,,,,,,,,,,,,,,,,,,,,,,,,,,,,,,
,,,,,,,,,,00001537187,2020-10-17_14h18.36.855,swahili,2020.2.4,MacIntel,60,,,,,,,,,,0.387223307,0.381996528,1,0,0,1.69971,study_pile,17,0,17,0,1,POEM - UTENZI,,,,,,,,,,,,,,,,,,,,,,,,,,,,,,,,,,,,,,,,,,,,,,,,,,,,,,,,,,,,,,,,,,,,,,,,,,,,,,,,
,,,,,,,,,,00001537187,2020-10-17_14h18.36.855,swahili,2020.2.4,MacIntel,60,,,,,,,,,,-0.144704861,-0.050260417,1,0,0,0.69942,unsorted_card,18,0,18,0,1,,,,,,,,,,,,,,,,,,,,,,,,,,,,,,,,,,,,,,,,,,,,,,,,,,,,,,,,,,,,,,,,,,,,,,,,,,,,,,,,,
,,,,,,,,,,00001537187,2020-10-17_14h18.36.855,swahili,2020.2.4,MacIntel,60,,,,,,,,,,0.497081163,0.470859375,1,0,0,2.08057,study_pile,19,0,19,0,1,TAILOR - MSHONI,,,,,,,,,,,,,,,,,,,,,,,,,,,,,,,,,,,,,,,,,,,,,,,,,,,,,,,,,,,,,,,,,,,,,,,,,,,,,,,,
,,,,,,,,,,00001537187,2020-10-17_14h18.36.855,swahili,2020.2.4,MacIntel,60,,,,,,,,,,-0.144780816,0.04703125,1,0,0,1.25037,unsorted_card,20,0,20,0,1,,,,,,,,,,,,,,,,,,,,,,,,,,,,,,,,,,,,,,,,,,,,,,,,,,,,,,,,,,,,,,,,,,,,,,,,,,,,,,,,,
,,,,,,,,,,00001537187,2020-10-17_14h18.36.855,swahili,2020.2.4,MacIntel,60,,,,,,,,,,0.516362847,0.497291667,1,0,0,1.014395,study_pile,21,0,21,0,1,CHEESE - JIBINI,,,,,,,,,,,,,,,,,,,,,,,,,,,,,,,,,,,,,,,,,,,,,,,,,,,,,,,,,,,,,,,,,,,,,,,,,,,,,,,,
,,,,,,,,,,00001537187,2020-10-17_14h18.36.855,swahili,2020.2.4,MacIntel,60,,,,,,,,,,-0.312494575,-0.053576389,1,0,0,0.649465,unsorted_card,22,0,22,0,1,,,,,,,,,,,,,,,,,,,,,,,,,,,,,,,,,,,,,,,,,,,,,,,,,,,,,,,,,,,,,,,,,,,,,,,,,,,,,,,,,
,,,,,,,,,,00001537187,2020-10-17_14h18.36.855,swahili,2020.2.4,MacIntel,60,,,,,,,,,,0.505490451,0.501493056,1,0,0,1.74968,study_pile,23,0,23,0,1,GRAPES - ZABIBU,,,,,,,,,,,,,,,,,,,,,,,,,,,,,,,,,,,,,,,,,,,,,,,,,,,,,,,,,,,,,,,,,,,,,,,,,,,,,,,,
,,,,,,,,,,00001537187,2020-10-17_14h18.36.855,swahili,2020.2.4,MacIntel,60,,,,,,,,,,-0.383843316,-0.077777778,1,0,0,0.81362,unsorted_card,24,0,24,0,1,,,,,,,,,,,,,,,,,,,,,,,,,,,,,,,,,,,,,,,,,,,,,,,,,,,,,,,,,,,,,,,,,,,,,,,,,,,,,,,,,
,,,,,,,,,,00001537187,2020-10-17_14h18.36.855,swahili,2020.2.4,MacIntel,60,,,,,,,,,,0.569243707,0.529800347,1,0,0,1.299965,study_pile,25,0,25,0,1,GRAVE - KABURI,,,,,,,,,,,,,,,,,,,,,,,,,,,,,,,,,,,,,,,,,,,,,,,,,,,,,,,,,,,,,,,,,,,,,,,,,,,,,,,,
,,,,,,,,,,00001537187,2020-10-17_14h18.36.855,swahili,2020.2.4,MacIntel,60,,,,,,,,,,-0.278217231,-0.010451389,1,0,0,0.79695,unsorted_card,26,0,26,0,1,,,,,,,,,,,,,,,,,,,,,,,,,,,,,,,,,,,,,,,,,,,,,,,,,,,,,,,,,,,,,,,,,,,,,,,,,,,,,,,,,
,,,,,,,,,,00001537187,2020-10-17_14h18.36.855,swahili,2020.2.4,MacIntel,60,,,,,,,,,,0.441134983,0.446961806,1,0,0,1.34823,study_pile,27,0,27,0,1,MANURE - SAMADI,,,,,,,,,,,,,,,,,,,,,,,,,,,,,,,,,,,,,,,,,,,,,,,,,,,,,,,,,,,,,,,,,,,,,,,,,,,,,,,,
,,,,,,,,,,00001537187,2020-10-17_14h18.36.855,swahili,2020.2.4,MacIntel,60,,,,,,,,,,-0.364599609,-0.173159722,1,0,0,0.664995,unsorted_card,28,0,28,0,1,,,,,,,,,,,,,,,,,,,,,,,,,,,,,,,,,,,,,,,,,,,,,,,,,,,,,,,,,,,,,,,,,,,,,,,,,,,,,,,,,
,,,,,,,,,,00001537187,2020-10-17_14h18.36.855,swahili,2020.2.4,MacIntel,60,,,,,,,,,,0.40804579,0.576519097,1,0,0,0.84869,study_pile,29,0,29,0,1,AGENT - WAKILI,,,,,,,,,,,,,,,,,,,,,,,,,,,,,,,,,,,,,,,,,,,,,,,,,,,,,,,,,,,,,,,,,,,,,,,,,,,,,,,,
,,,,,,,,,,00001537187,2020-10-17_14h18.36.855,swahili,2020.2.4,MacIntel,60,,,,,,,,,,-0.344542101,-0.007430556,1,0,0,0.700575,unsorted_card,30,0,30,0,1,,,,,,,,,,,,,,,,,,,,,,,,,,,,,,,,,,,,,,,,,,,,,,,,,,,,,,,,,,,,,,,,,,,,,,,,,,,,,,,,,
,,,,,,,,,,00001537187,2020-10-17_14h18.36.855,swahili,2020.2.4,MacIntel,60,,,,,,,,,,0.434830729,0.143246528,1,0,0,1.16503,test_pile,31,0,31,0,1,BRIBE - RUSHWA,,,,,,,,,,,,,,,,,,,,,,,,,,,,,,,,,,,,,,,,,,,,,,,,,,,,,,,,,,,,,,,,,,,,,,,,,,,,,,,,
,,,,,,,,,,00001537187,2020-10-17_14h18.36.855,swahili,2020.2.4,MacIntel,60,,,,,,,,,,-0.208083767,-0.057369792,1,0,0,0.81545,unsorted_card,32,0,32,0,1,,,,,,,,,,,,,,,,,,,,,,,,,,,,,,,,,,,,,,,,,,,,,,,,,,,,,,,,,,,,,,,,,,,,,,,,,,,,,,,,,
,,,,,,,,,,00001537187,2020-10-17_14h18.36.855,swahili,2020.2.4,MacIntel,60,,,,,,,,,,0.468207465,0.515737847,1,0,0,6.83245,study_pile,33,0,33,0,1,ORPHAN - YATIMA,,,,,,,,,,,,,,,,,,,,,,,,,,,,,,,,,,,,,,,,,,,,,,,,,,,,,,,,,,,,,,,,,,,,,,,,,,,,,,,,
,,,,,,,,,,00001537187,2020-10-17_14h18.36.855,swahili,2020.2.4,MacIntel,60,,,,,,,,,,-0.226692708,0.042881944,1,0,0,0.730585,unsorted_card,34,0,34,0,1,,,,,,,,,,,,,,,,,,,,,,,,,,,,,,,,,,,,,,,,,,,,,,,,,,,,,,,,,,,,,,,,,,,,,,,,,,,,,,,,,
,,,,,,,,,,00001537187,2020-10-17_14h18.36.855,swahili,2020.2.4,MacIntel,60,,,,,,,,,,0.511577691,-0.043480903,1,0,0,1.032785,test_pile,35,0,35,0,1,DIVORCE - TALAKA,,,,,,,,,,,,,,,,,,,,,,,,,,,,,,,,,,,,,,,,,,,,,,,,,,,,,,,,,,,,,,,,,,,,,,,,,,,,,,,,
,,,,,,,,,,00001537187,2020-10-17_14h18.36.855,swahili,2020.2.4,MacIntel,60,,,,,,,,,,-0.207280816,-0.067708333,1,0,0,1.566355,unsorted_card,36,0,36,0,1,,,,,,,,,,,,,,,,,,,,,,,,,,,,,,,,,,,,,,,,,,,,,,,,,,,,,,,,,,,,,,,,,,,,,,,,,,,,,,,,,
,,,,,,,,,,00001537187,2020-10-17_14h18.36.855,swahili,2020.2.4,MacIntel,60,,,,,,,,,,0.51007487,0.496918403,1,0,0,1.932815,study_pile,37,0,37,0,1,BOAT - MASHUA,,,,,,,,,,,,,,,,,,,,,,,,,,,,,,,,,,,,,,,,,,,,,,,,,,,,,,,,,,,,,,,,,,,,,,,,,,,,,,,,
,,,,,,,,,,00001537187,2020-10-17_14h18.36.855,swahili,2020.2.4,MacIntel,60,,,,,,,,,,-0.269200304,-0.132352431,1,0,0,0.664635,unsorted_card,38,0,38,0,1,,,,,,,,,,,,,,,,,,,,,,,,,,,,,,,,,,,,,,,,,,,,,,,,,,,,,,,,,,,,,,,,,,,,,,,,,,,,,,,,,
,,,,,,,,,,00001537187,2020-10-17_14h18.36.855,swahili,2020.2.4,MacIntel,60,,,,,,,,,,0.549793837,0.489817708,1,0,0,4.816985,study_pile,39,0,39,0,1,TREASURE - DAFINA,,,,,,,,,,,,,,,,,,,,,,,,,,,,,,,,,,,,,,,,,,,,,,,,,,,,,,,,,,,,,,,,,,,,,,,,,,,,,,,,
,,,,,,,,,,00001537187,2020-10-17_14h18.36.855,swahili,2020.2.4,MacIntel,60,,,,,,,,,,,,,,,,,,,,,,,0.393733724,-0.018029514,1,0,0,31.53175,test_first,,,,,0,0,0,0,1,,,,,,,,,,,,,,,,,,,,,,,,,,,,,,,,,,,,,,,,,,,,,,,,,,,,,,,,,,,,,,,,
,,,,,,,,,,00001537187,2020-10-17_14h18.36.855,swahili,2020.2.4,MacIntel,60,,,,,,,,,,,,,,,,,,,,,,,,,,,,,,,,,,,,,,,return,,,,,,,,,,,5.663375,6.06567,0.277164714,-0.095364583,1,0,0,2.998245,yes,BRIBE,RUSHWU,incorrect,0,0,0,0,1,,,,,,,,,,,,,,,,,,,,,,,,,,,,,,,,,,,,
,,,,,,,,,,00001537187,2020-10-17_14h18.36.855,swahili,2020.2.4,MacIntel,60,,,,,,,,,,,,,,,,,,,,,,,,,,,,,,,,,,,,,,,,,,,,,,,,,,,3.649015,0.323562283,-0.098784722,1,0,0,1.083885,yes,DIVORCE,TALAKA,incorrect,1,0,1,0,1,,,,,,,,,,,,,,,,,,,,,,,,,,,,,,,,,,,,
,,,,,,,,,,00001537187,2020-10-17_14h18.36.855,swahili,2020.2.4,MacIntel,60,,,,,,,,,,,,,,,,,,,,,,,,,,,,,,,,,,,,,,,,,,,,,,,,,,,24.765485,0.418918186,-0.084036458,1,0,0,0.916805,yes,BLAME,LAWAMA,incorrect,2,0,2,0,1,,,,,,,,,,,,,,,,,,,,,,,,,,,,,,,,,,,,
,,,,,,,,,,00001537187,2020-10-17_14h18.36.855,swahili,2020.2.4,MacIntel,60,,,,,,,,,,,,,,,,,,,,,,,,,,,,,,,,,,,,,,,,,,,,,,,,,,,4.7986,0.410948351,-0.014652778,1,0,0,0.71576,yes,OATH,YAMINI,incorrect,3,0,3,0,1,,,,,,,,,,,,,,,,,,,,,,,,,,,,,,,,,,,,
,,,,,,,,,,00001537187,2020-10-17_14h18.36.855,swahili,2020.2.4,MacIntel,60,,,,,,,,,,,,,,,,,,,,,,,,,,,,,,,,,,,,,,,,0,0,0,0,1,,,,,,,,,,,,,,,,,,,,,,,,,,,,,,,,,,,,,,,,,,,,,,,,,,,,,,,,,,
,,,,,,,,,,00001537187,2020-10-17_14h18.36.855,swahili,2020.2.4,MacIntel,60,,,,,,,,,,,,,,,,,,,,,,CHEESE - JIBINI,,,,,,,,return,1.850145,return,3.75077,0,0,0,0,1,,,,,,,,,,,,,,,,,,,,,,,,,,,,,,,,,,,,,,,,,,,,,,,,,,,,,,,,,,,,,,,,
,,,,,,,,,,00001537187,2020-10-17_14h18.36.855,swahili,2020.2.4,MacIntel,60,,,,,,,,,,,,,,,,,,,,,,POEM - UTENZI,,,,,,,,,,return,7.68317,1,0,1,0,1,,,,,,,,,,,,,,,,,,,,,,,,,,,,,,,,,,,,,,,,,,,,,,,,,,,,,,,,,,,,,,,,
,,,,,,,,,,00001537187,2020-10-17_14h18.36.855,swahili,2020.2.4,MacIntel,60,,,,,,,,,,,,,,,,,,,,,,AGENT - WAKILI,,,,,,,,,,return,7.66636,2,0,2,0,1,,,,,,,,,,,,,,,,,,,,,,,,,,,,,,,,,,,,,,,,,,,,,,,,,,,,,,,,,,,,,,,,
,,,,,,,,,,00001537187,2020-10-17_14h18.36.855,swahili,2020.2.4,MacIntel,60,,,,,,,,,,,,,,,,,,,,,,GRAPES - ZABIBU,,,,,,,,,,return,6.235535,3,0,3,0,1,,,,,,,,,,,,,,,,,,,,,,,,,,,,,,,,,,,,,,,,,,,,,,,,,,,,,,,,,,,,,,,,
,,,,,,,,,,00001537187,2020-10-17_14h18.36.855,swahili,2020.2.4,MacIntel,60,,,,,,,,,,,,,,,,,,,,,,TREASURE - DAFINA,,,,,,,,,,return,124.048945,4,0,4,0,1,,,,,,,,,,,,,,,,,,,,,,,,,,,,,,,,,,,,,,,,,,,,,,,,,,,,,,,,,,,,,,,,
,,,,,,,,,,00001537187,2020-10-17_14h18.36.855,swahili,2020.2.4,MacIntel,60,,,,,,,,,,,,,,,,,,,,,,PARROT - KASUKU,,,,,,,,,,return,12.136135,5,0,5,0,1,,,,,,,,,,,,,,,,,,,,,,,,,,,,,,,,,,,,,,,,,,,,,,,,,,,,,,,,,,,,,,,,
,,,,,,,,,,00001537187,2020-10-17_14h18.36.855,swahili,2020.2.4,MacIntel,60,,,,,,,,,,,,,,,,,,,,,,PLATE - SAHANI,,,,,,,,,,return,25.850955,6,0,6,0,1,,,,,,,,,,,,,,,,,,,,,,,,,,,,,,,,,,,,,,,,,,,,,,,,,,,,,,,,,,,,,,,,
,,,,,,,,,,00001537187,2020-10-17_14h18.36.855,swahili,2020.2.4,MacIntel,60,,,,,,,,,,,,,,,,,,,,,,MERCHANT - TAJIRI,,,,,,,,,,return,7.100875,7,0,7,0,1,,,,,,,,,,,,,,,,,,,,,,,,,,,,,,,,,,,,,,,,,,,,,,,,,,,,,,,,,,,,,,,,
,,,,,,,,,,00001537187,2020-10-17_14h18.36.855,swahili,2020.2.4,MacIntel,60,,,,,,,,,,,,,,,,,,,,,,ORPHAN - YATIMA,,,,,,,,,,return,35.95137,8,0,8,0,1,,,,,,,,,,,,,,,,,,,,,,,,,,,,,,,,,,,,,,,,,,,,,,,,,,,,,,,,,,,,,,,,
,,,,,,,,,,00001537187,2020-10-17_14h18.36.855,swahili,2020.2.4,MacIntel,60,,,,,,,,,,,,,,,,,,,,,,TAILOR - MSHONI,,,,,,,,,,return,1.43385,9,0,9,0,1,,,,,,,,,,,,,,,,,,,,,,,,,,,,,,,,,,,,,,,,,,,,,,,,,,,,,,,,,,,,,,,,
,,,,,,,,,,00001537187,2020-10-17_14h18.36.855,swahili,2020.2.4,MacIntel,60,,,,,,,,,,,,,,,,,,,,,,YEAST - HAMIRA,,,,,,,,,,return,1.347395,10,0,10,0,1,,,,,,,,,,,,,,,,,,,,,,,,,,,,,,,,,,,,,,,,,,,,,,,,,,,,,,,,,,,,,,,,
,,,,,,,,,,00001537187,2020-10-17_14h18.36.855,swahili,2020.2.4,MacIntel,60,,,,,,,,,,,,,,,,,,,,,,BOAT - MASHUA,,,,,,,,,,return,0.695775,11,0,11,0,1,,,,,,,,,,,,,,,,,,,,,,,,,,,,,,,,,,,,,,,,,,,,,,,,,,,,,,,,,,,,,,,,
,,,,,,,,,,00001537187,2020-10-17_14h18.36.855,swahili,2020.2.4,MacIntel,60,,,,,,,,,,,,,,,,,,,,,,GRAVE - KABURI,,,,,,,,,,return,1.55085,12,0,12,0,1,,,,,,,,,,,,,,,,,,,,,,,,,,,,,,,,,,,,,,,,,,,,,,,,,,,,,,,,,,,,,,,,
,,,,,,,,,,00001537187,2020-10-17_14h18.36.855,swahili,2020.2.4,MacIntel,60,,,,,,,,,,,,,,,,,,,,,,BULL - FAHILI,,,,,,,,,,return,0.78558,13,0,13,0,1,,,,,,,,,,,,,,,,,,,,,,,,,,,,,,,,,,,,,,,,,,,,,,,,,,,,,,,,,,,,,,,,
,,,,,,,,,,00001537187,2020-10-17_14h18.36.855,swahili,2020.2.4,MacIntel,60,,,,,,,,,,,,,,,,,,,,,,MANURE - SAMADI,,,,,,,,,,return,0.731695,14,0,14,0,1,,,,,,,,,,,,,,,,,,,,,,,,,,,,,,,,,,,,,,,,,,,,,,,,,,,,,,,,,,,,,,,,
,,,,,,,,,,00001537187,2020-10-17_14h18.36.855,swahili,2020.2.4,MacIntel,60,,,,,,,,,,,,,,,,,,,,,,CORN - NAFAKA,,,,,,,,,,return,0.566765,15,0,15,0,1,,,,,,,,,,,,,,,,,,,,,,,,,,,,,,,,,,,,,,,,,,,,,,,,,,,,,,,,,,,,,,,,
,,,,,,,,,,00001537187,2020-10-17_14h18.36.855,swahili,2020.2.4,MacIntel,60,,,,,,,,,,,,,,,,,,,,,,,,,,,,,,,,,,,,,,,,1,0,1,0,1,,,,,,,,,,,,,,,,,,,,,,,,,,,,,,,,,,,,,,,,,,,,,,,,,,,,,,,,,,
,,,,,,,,,,00001537187,2020-10-17_14h18.36.855,swahili,2020.2.4,MacIntel,60,,,,,,,,,,,,,,,,,,,,,,,,,,,,,,,,,,,,,,,,,,,,,1,0,1,0,1,,,,,,,,,,,,,,,,,,,,,,,,,,,,,,,,,,,,,,,,,,,,,,,,,,,,,
,,,,,,,,,,00001537187,2020-10-17_14h18.36.855,swahili,2020.2.4,MacIntel,60,,,,,,,,,,-0.137489149,-0.073151042,1,0,0,2.056405,unsorted_card,0,0,0,0,1,,,,,,,,,,,,,,,,,,,,,,,,,,,,,,,,,,,,,,,,,,,,,,,,,,,,,,,,,,,,,,,,,,,,,,,,,,,,,,,,,
,,,,,,,,,,00001537187,2020-10-17_14h18.36.855,swahili,2020.2.4,MacIntel,60,,,,,,,,,,0.384955512,-0.037274306,1,0,0,3.095205,test_pile,1,0,1,0,1,MERCHANT - TAJIRI,,,,,,,,,,,,,,,,,,,,,,,,,,,,,,,,,,,,,,,,,,,,,,,,,,,,,,,,,,,,,,,,,,,,,,,,,,,,,,,,
,,,,,,,,,,00001537187,2020-10-17_14h18.36.855,swahili,2020.2.4,MacIntel,60,,,,,,,,,,-0.228059896,0.022465278,1,0,0,0.682,unsorted_card,2,0,2,0,1,,,,,,,,,,,,,,,,,,,,,,,,,,,,,,,,,,,,,,,,,,,,,,,,,,,,,,,,,,,,,,,,,,,,,,,,,,,,,,,,,
,,,,,,,,,,00001537187,2020-10-17_14h18.36.855,swahili,2020.2.4,MacIntel,60,,,,,,,,,,0.456711155,-0.026961806,1,0,0,1.6004,test_pile,3,0,3,0,1,PARROT - KASUKU,,,,,,,,,,,,,,,,,,,,,,,,,,,,,,,,,,,,,,,,,,,,,,,,,,,,,,,,,,,,,,,,,,,,,,,,,,,,,,,,
,,,,,,,,,,00001537187,2020-10-17_14h18.36.855,swahili,2020.2.4,MacIntel,60,,,,,,,,,,-0.448583984,0.004157986,1,0,0,0.61509,unsorted_card,4,0,4,0,1,,,,,,,,,,,,,,,,,,,,,,,,,,,,,,,,,,,,,,,,,,,,,,,,,,,,,,,,,,,,,,,,,,,,,,,,,,,,,,,,,
,,,,,,,,,,00001537187,2020-10-17_14h18.36.855,swahili,2020.2.4,MacIntel,60,,,,,,,,,,0.381754557,0.425243056,1,0,0,1.765595,study_pile,5,0,5,0,1,BULL - FAHILI,,,,,,,,,,,,,,,,,,,,,,,,,,,,,,,,,,,,,,,,,,,,,,,,,,,,,,,,,,,,,,,,,,,,,,,,,,,,,,,,
,,,,,,,,,,00001537187,2020-10-17_14h18.36.855,swahili,2020.2.4,MacIntel,60,,,,,,,,,,-0.198871528,0.084522569,1,0,0,0.58245,unsorted_card,6,0,6,0,1,,,,,,,,,,,,,,,,,,,,,,,,,,,,,,,,,,,,,,,,,,,,,,,,,,,,,,,,,,,,,,,,,,,,,,,,,,,,,,,,,
,,,,,,,,,,00001537187,2020-10-17_14h18.36.855,swahili,2020.2.4,MacIntel,60,,,,,,,,,,0.500716146,0.452708333,1,0,0,2.06604,study_pile,7,0,7,0,1,PLATE - SAHANI,,,,,,,,,,,,,,,,,,,,,,,,,,,,,,,,,,,,,,,,,,,,,,,,,,,,,,,,,,,,,,,,,,,,,,,,,,,,,,,,
,,,,,,,,,,00001537187,2020-10-17_14h18.36.855,swahili,2020.2.4,MacIntel,60,,,,,,,,,,-0.193641493,-0.065329861,1,0,0,0.58181,unsorted_card,8,0,8,0,1,,,,,,,,,,,,,,,,,,,,,,,,,,,,,,,,,,,,,,,,,,,,,,,,,,,,,,,,,,,,,,,,,,,,,,,,,,,,,,,,,
,,,,,,,,,,00001537187,2020-10-17_14h18.36.855,swahili,2020.2.4,MacIntel,60,,,,,,,,,,0.44632704,0.387404514,1,0,0,1.567265,study_pile,9,0,9,0,1,YEAST - HAMIRA,,,,,,,,,,,,,,,,,,,,,,,,,,,,,,,,,,,,,,,,,,,,,,,,,,,,,,,,,,,,,,,,,,,,,,,,,,,,,,,,
,,,,,,,,,,00001537187,2020-10-17_14h18.36.855,swahili,2020.2.4,MacIntel,60,,,,,,,,,,-0.245757378,0.094869792,1,0,0,0.54591,unsorted_card,10,0,10,0,1,,,,,,,,,,,,,,,,,,,,,,,,,,,,,,,,,,,,,,,,,,,,,,,,,,,,,,,,,,,,,,,,,,,,,,,,,,,,,,,,,
,,,,,,,,,,00001537187,2020-10-17_14h18.36.855,swahili,2020.2.4,MacIntel,60,,,,,,,,,,0.506114366,-0.005625,1,0,0,2.117955,test_pile,11,0,11,0,1,BLAME - LAWAMA,,,,,,,,,,,,,,,,,,,,,,,,,,,,,,,,,,,,,,,,,,,,,,,,,,,,,,,,,,,,,,,,,,,,,,,,,,,,,,,,
,,,,,,,,,,00001537187,2020-10-17_14h18.36.855,swahili,2020.2.4,MacIntel,60,,,,,,,,,,-0.244932726,-0.003541667,1,0,0,0.52888,unsorted_card,12,0,12,0,1,,,,,,,,,,,,,,,,,,,,,,,,,,,,,,,,,,,,,,,,,,,,,,,,,,,,,,,,,,,,,,,,,,,,,,,,,,,,,,,,,
,,,,,,,,,,00001537187,2020-10-17_14h18.36.855,swahili,2020.2.4,MacIntel,60,,,,,,,,,,0.401312934,-0.019869792,1,0,0,1.14878,test_pile,13,0,13,0,1,OATH - YAMINI,,,,,,,,,,,,,,,,,,,,,,,,,,,,,,,,,,,,,,,,,,,,,,,,,,,,,,,,,,,,,,,,,,,,,,,,,,,,,,,,
,,,,,,,,,,00001537187,2020-10-17_14h18.36.855,swahili,2020.2.4,MacIntel,60,,,,,,,,,,-0.254389106,0.003072917,1,0,0,0.61606,unsorted_card,14,0,14,0,1,,,,,,,,,,,,,,,,,,,,,,,,,,,,,,,,,,,,,,,,,,,,,,,,,,,,,,,,,,,,,,,,,,,,,,,,,,,,,,,,,
,,,,,,,,,,00001537187,2020-10-17_14h18.36.855,swahili,2020.2.4,MacIntel,60,,,,,,,,,,0.442171224,0.430659722,1,0,0,4.581905,study_pile,15,0,15,0,1,CORN - NAFAKA,,,,,,,,,,,,,,,,,,,,,,,,,,,,,,,,,,,,,,,,,,,,,,,,,,,,,,,,,,,,,,,,,,,,,,,,,,,,,,,,
,,,,,,,,,,00001537187,2020-10-17_14h18.36.855,swahili,2020.2.4,MacIntel,60,,,,,,,,,,-0.286990017,0.058697917,1,0,0,0.596795,unsorted_card,16,0,16,0,1,,,,,,,,,,,,,,,,,,,,,,,,,,,,,,,,,,,,,,,,,,,,,,,,,,,,,,,,,,,,,,,,,,,,,,,,,,,,,,,,,
,,,,,,,,,,00001537187,2020-10-17_14h18.36.855,swahili,2020.2.4,MacIntel,60,,,,,,,,,,0.371202257,0.368463542,1,0,0,2.68311,study_pile,17,0,17,0,1,POEM - UTENZI,,,,,,,,,,,,,,,,,,,,,,,,,,,,,,,,,,,,,,,,,,,,,,,,,,,,,,,,,,,,,,,,,,,,,,,,,,,,,,,,
,,,,,,,,,,00001537187,2020-10-17_14h18.36.855,swahili,2020.2.4,MacIntel,60,,,,,,,,,,-0.308626302,-0.102300347,1,0,0,0.582565,unsorted_card,18,0,18,0,1,,,,,,,,,,,,,,,,,,,,,,,,,,,,,,,,,,,,,,,,,,,,,,,,,,,,,,,,,,,,,,,,,,,,,,,,,,,,,,,,,
,,,,,,,,,,00001537187,2020-10-17_14h18.36.855,swahili,2020.2.4,MacIntel,60,,,,,,,,,,0.443071832,0.427743056,1,0,0,2.681515,study_pile,19,0,19,0,1,TAILOR - MSHONI,,,,,,,,,,,,,,,,,,,,,,,,,,,,,,,,,,,,,,,,,,,,,,,,,,,,,,,,,,,,,,,,,,,,,,,,,,,,,,,,
,,,,,,,,,,00001537187,2020-10-17_14h18.36.855,swahili,2020.2.4,MacIntel,60,,,,,,,,,,-0.357367622,0.148828125,1,0,0,0.547225,unsorted_card,20,0,20,0,1,,,,,,,,,,,,,,,,,,,,,,,,,,,,,,,,,,,,,,,,,,,,,,,,,,,,,,,,,,,,,,,,,,,,,,,,,,,,,,,,,
,,,,,,,,,,00001537187,2020-10-17_14h18.36.855,swahili,2020.2.4,MacIntel,60,,,,,,,,,,0.421690538,0.458645833,1,0,0,4.01652,study_pile,21,0,21,0,1,CHEESE - JIBINI,,,,,,,,,,,,,,,,,,,,,,,,,,,,,,,,,,,,,,,,,,,,,,,,,,,,,,,,,,,,,,,,,,,,,,,,,,,,,,,,
,,,,,,,,,,00001537187,2020-10-17_14h18.36.855,swahili,2020.2.4,MacIntel,60,,,,,,,,,,-0.243223741,0.094331597,1,0,0,0.630835,unsorted_card,22,0,22,0,1,,,,,,,,,,,,,,,,,,,,,,,,,,,,,,,,,,,,,,,,,,,,,,,,,,,,,,,,,,,,,,,,,,,,,,,,,,,,,,,,,
,,,,,,,,,,00001537187,2020-10-17_14h18.36.855,swahili,2020.2.4,MacIntel,60,,,,,,,,,,0.523741319,0.015321181,1,0,0,3.86613,test_pile,23,0,23,0,1,GRAPES - ZABIBU,,,,,,,,,,,,,,,,,,,,,,,,,,,,,,,,,,,,,,,,,,,,,,,,,,,,,,,,,,,,,,,,,,,,,,,,,,,,,,,,
,,,,,,,,,,00001537187,2020-10-17_14h18.36.855,swahili,2020.2.4,MacIntel,60,,,,,,,,,,-0.213742405,-0.060425347,1,0,0,0.648285,unsorted_card,24,0,24,0,1,,,,,,,,,,,,,,,,,,,,,,,,,,,,,,,,,,,,,,,,,,,,,,,,,,,,,,,,,,,,,,,,,,,,,,,,,,,,,,,,,
,,,,,,,,,,00001537187,2020-10-17_14h18.36.855,swahili,2020.2.4,MacIntel,60,,,,,,,,,,0.480902778,0.405407986,1,0,0,1.415775,study_pile,25,0,25,0,1,GRAVE - KABURI,,,,,,,,,,,,,,,,,,,,,,,,,,,,,,,,,,,,,,,,,,,,,,,,,,,,,,,,,,,,,,,,,,,,,,,,,,,,,,,,
,,,,,,,,,,00001537187,2020-10-17_14h18.36.855,swahili,2020.2.4,MacIntel,60,,,,,,,,,,-0.229698351,0.135598958,1,0,0,0.614705,unsorted_card,26,0,26,0,1,,,,,,,,,,,,,,,,,,,,,,,,,,,,,,,,,,,,,,,,,,,,,,,,,,,,,,,,,,,,,,,,,,,,,,,,,,,,,,,,,
,,,,,,,,,,00001537187,2020-10-17_14h18.36.855,swahili,2020.2.4,MacIntel,60,,,,,,,,,,0.369759115,0.398411458,1,0,0,1.39995,study_pile,27,0,27,0,1,MANURE - SAMADI,,,,,,,,,,,,,,,,,,,,,,,,,,,,,,,,,,,,,,,,,,,,,,,,,,,,,,,,,,,,,,,,,,,,,,,,,,,,,,,,
,,,,,,,,,,00001537187,2020-10-17_14h18.36.855,swahili,2020.2.4,MacIntel,60,,,,,,,,,,-0.268500434,0.094800347,1,0,0,0.49757,unsorted_card,28,0,28,0,1,,,,,,,,,,,,,,,,,,,,,,,,,,,,,,,,,,,,,,,,,,,,,,,,,,,,,,,,,,,,,,,,,,,,,,,,,,,,,,,,,
,,,,,,,,,,00001537187,2020-10-17_14h18.36.855,swahili,2020.2.4,MacIntel,60,,,,,,,,,,0.456678602,0.379045139,1,0,0,1.182225,study_pile,29,0,29,0,1,AGENT - WAKILI,,,,,,,,,,,,,,,,,,,,,,,,,,,,,,,,,,,,,,,,,,,,,,,,,,,,,,,,,,,,,,,,,,,,,,,,,,,,,,,,
,,,,,,,,,,00001537187,2020-10-17_14h18.36.855,swahili,2020.2.4,MacIntel,60,,,,,,,,,,-0.17985026,0.067092014,1,0,0,0.547455,unsorted_card,30,0,30,0,1,,,,,,,,,,,,,,,,,,,,,,,,,,,,,,,,,,,,,,,,,,,,,,,,,,,,,,,,,,,,,,,,,,,,,,,,,,,,,,,,,
,,,,,,,,,,00001537187,2020-10-17_14h18.36.855,swahili,2020.2.4,MacIntel,60,,,,,,,,,,0.328819444,-0.016588542,1,0,0,0.96546,test_pile,31,0,31,0,1,BRIBE - RUSHWA,,,,,,,,,,,,,,,,,,,,,,,,,,,,,,,,,,,,,,,,,,,,,,,,,,,,,,,,,,,,,,,,,,,,,,,,,,,,,,,,
,,,,,,,,,,00001537187,2020-10-17_14h18.36.855,swahili,2020.2.4,MacIntel,60,,,,,,,,,,-0.32194553,-0.015503472,1,0,0,0.481855,unsorted_card,32,0,32,0,1,,,,,,,,,,,,,,,,,,,,,,,,,,,,,,,,,,,,,,,,,,,,,,,,,,,,,,,,,,,,,,,,,,,,,,,,,,,,,,,,,
,,,,,,,,,,00001537187,2020-10-17_14h18.36.855,swahili,2020.2.4,MacIntel,60,,,,,,,,,,0.386957465,-0.002065972,1,0,0,1.047655,test_pile,33,0,33,0,1,ORPHAN - YATIMA,,,,,,,,,,,,,,,,,,,,,,,,,,,,,,,,,,,,,,,,,,,,,,,,,,,,,,,,,,,,,,,,,,,,,,,,,,,,,,,,
,,,,,,,,,,00001537187,2020-10-17_14h18.36.855,swahili,2020.2.4,MacIntel,60,,,,,,,,,,-0.279828559,0.020763889,1,0,0,0.499275,unsorted_card,34,0,34,0,1,,,,,,,,,,,,,,,,,,,,,,,,,,,,,,,,,,,,,,,,,,,,,,,,,,,,,,,,,,,,,,,,,,,,,,,,,,,,,,,,,
,,,,,,,,,,00001537187,2020-10-17_14h18.36.855,swahili,2020.2.4,MacIntel,60,,,,,,,,,,0.43444553,-0.065234375,1,0,0,0.799935,test_pile,35,0,35,0,1,DIVORCE - TALAKA,,,,,,,,,,,,,,,,,,,,,,,,,,,,,,,,,,,,,,,,,,,,,,,,,,,,,,,,,,,,,,,,,,,,,,,,,,,,,,,,
,,,,,,,,,,00001537187,2020-10-17_14h18.36.855,swahili,2020.2.4,MacIntel,60,,,,,,,,,,-0.391308594,-0.014140625,1,0,0,0.448745,unsorted_card,36,0,36,0,1,,,,,,,,,,,,,,,,,,,,,,,,,,,,,,,,,,,,,,,,,,,,,,,,,,,,,,,,,,,,,,,,,,,,,,,,,,,,,,,,,
,,,,,,,,,,00001537187,2020-10-17_14h18.36.855,swahili,2020.2.4,MacIntel,60,,,,,,,,,,0.486360677,0.385451389,1,0,0,1.182115,study_pile,37,0,37,0,1,BOAT - MASHUA,,,,,,,,,,,,,,,,,,,,,,,,,,,,,,,,,,,,,,,,,,,,,,,,,,,,,,,,,,,,,,,,,,,,,,,,,,,,,,,,
,,,,,,,,,,00001537187,2020-10-17_14h18.36.855,swahili,2020.2.4,MacIntel,60,,,,,,,,,,-0.120166016,0.227899306,1,0,0,0.432815,unsorted_card,38,0,38,0,1,,,,,,,,,,,,,,,,,,,,,,,,,,,,,,,,,,,,,,,,,,,,,,,,,,,,,,,,,,,,,,,,,,,,,,,,,,,,,,,,,
,,,,,,,,,,00001537187,2020-10-17_14h18.36.855,swahili,2020.2.4,MacIntel,60,,,,,,,,,,0.412076823,0.034105903,1,0,0,1.014885,test_pile,39,0,39,0,1,TREASURE - DAFINA,,,,,,,,,,,,,,,,,,,,,,,,,,,,,,,,,,,,,,,,,,,,,,,,,,,,,,,,,,,,,,,,,,,,,,,,,,,,,,,,
,,,,,,,,,,00001537187,2020-10-17_14h18.36.855,swahili,2020.2.4,MacIntel,60,,,,,,,,,,,,,,,,,,,,,,,0.40977105,-0.070251736,1,0,0,1.4659,test_first,,,,,0,0,0,0,1,,,,,,,,,,,,,,,,,,,,,,,,,,,,,,,,,,,,,,,,,,,,,,,,,,,,,,,,,,,,,,,,
,,,,,,,,,,00001537187,2020-10-17_14h18.36.855,swahili,2020.2.4,MacIntel,60,,,,,,,,,,,,,,,,,,,,,,,,,,,,,,,,,,,,,,,return,,,,,,,,,,,1.617645,7.631415,0.332530382,-0.083654514,1,0,0,0.66605,yes,PARROT,KASUKU,incorrect,0,0,0,0,1,,,,,,,,,,,,,,,,,,,,,,,,,,,,,,,,,,,,
,,,,,,,,,,00001537187,2020-10-17_14h18.36.855,swahili,2020.2.4,MacIntel,60,,,,,,,,,,,,,,,,,,,,,,,,,,,,,,,,,,,,,,,,,,,,,,,,,,,3.4986,0.331873915,-0.062508681,1,0,0,0.699355,yes,BLAME,LAWAMA,incorrect,1,0,1,0,1,,,,,,,,,,,,,,,,,,,,,,,,,,,,,,,,,,,,
,,,,,,,,,,00001537187,2020-10-17_14h18.36.855,swahili,2020.2.4,MacIntel,60,,,,,,,,,,,,,,,,,,,,,,,,,,,,,,,,,,,,,,,,,,,,,,,,,,,4.063645,0.42203776,0.017248264,1,0,0,0.91801,yes,MERCHANT,TAJIRI,incorrect,2,0,2,0,1,,,,,,,,,,,,,,,,,,,,,,,,,,,,,,,,,,,,
,,,,,,,,,,00001537187,2020-10-17_14h18.36.855,swahili,2020.2.4,MacIntel,60,,,,,,,,,,,,,,,,,,,,,,,,,,,,,,,,,,,,,,,,,,,,,,,,,,,5.66505,0.437196181,-0.075850694,1,0,0,0.81658,yes,ORPHAN,YATIMA,incorrect,3,0,3,0,1,,,,,,,,,,,,,,,,,,,,,,,,,,,,,,,,,,,,
,,,,,,,,,,00001537187,2020-10-17_14h18.36.855,swahili,2020.2.4,MacIntel,60,,,,,,,,,,,,,,,,,,,,,,,,,,,,,,,,,,,,,,,,,,,,,,,,,,,8.01552,0.322173394,-0.11453125,1,0,0,0.89958,yes,TREASURE,DAFINA,incorrect,4,0,4,0,1,,,,,,,,,,,,,,,,,,,,,,,,,,,,,,,,,,,,
,,,,,,,,,,00001537187,2020-10-17_14h18.36.855,swahili,2020.2.4,MacIntel,60,,,,,,,,,,,,,,,,,,,,,,,,,,,,,,,,,,,,,,,,,,,,,,,,,,,10.264695,0.336621094,-0.043836806,1,0,0,0.751285,yes,OATH,YAMINI,incorrect,5,0,5,0,1,,,,,,,,,,,,,,,,,,,,,,,,,,,,,,,,,,,,
,,,,,,,,,,00001537187,2020-10-17_14h18.36.855,swahili,2020.2.4,MacIntel,60,,,,,,,,,,,,,,,,,,,,,,,,,,,,,,,,,,,,,,,,,,,,,,,,,,,4.613905,0.333566623,-0.109565972,1,0,0,0.73307,yes,GRAPES,ZABIBU,incorrect,6,0,6,0,1,,,,,,,,,,,,,,,,,,,,,,,,,,,,,,,,,,,,
,,,,,,,,,,00001537187,2020-10-17_14h18.36.855,swahili,2020.2.4,MacIntel,60,,,,,,,,,,,,,,,,,,,,,,,,,,,,,,,,,,,,,,,,,,,,,,,,,,,10.66567,0.392312283,-0.052309028,1,0,0,0.715755,yes,DIVORCE,TALAKA,incorrect,7,0,7,0,1,,,,,,,,,,,,,,,,,,,,,,,,,,,,,,,,,,,,
,,,,,,,,,,00001537187,2020-10-17_14h18.36.855,swahili,2020.2.4,MacIntel,60,,,,,,,,,,,,,,,,,,,,,,,,,,,,,,,,,,,,,,,,,,,,,,,,,,,8.0482,0.349012587,-0.104661458,1,0,0,1.284025,yes,BRIBE,RASHWA,incorrect,8,0,8,0,1,,,,,,,,,,,,,,,,,,,,,,,,,,,,,,,,,,,,
,,,,,,,,,,00001537187,2020-10-17_14h18.36.855,swahili,2020.2.4,MacIntel,60,,,,,,,,,,,,,,,,,,,,,,,,,,,,,,,,,,,,,,,,0,0,0,0,1,,,,,,,,,,,,,,,,,,,,,,,,,,,,,,,,,,,,,,,,,,,,,,,,,,,,,,,,,,
,,,,,,,,,,00001537187,2020-10-17_14h18.36.855,swahili,2020.2.4,MacIntel,60,,,,,,,,,,,,,,,,,,,,,,POEM - UTENZI,,,,,,,,return,4.449705,return,12.11673,0,0,0,0,1,,,,,,,,,,,,,,,,,,,,,,,,,,,,,,,,,,,,,,,,,,,,,,,,,,,,,,,,,,,,,,,,
,,,,,,,,,,00001537187,2020-10-17_14h18.36.855,swahili,2020.2.4,MacIntel,60,,,,,,,,,,,,,,,,,,,,,,YEAST - HAMIRA,,,,,,,,,,return,3.750735,1,0,1,0,1,,,,,,,,,,,,,,,,,,,,,,,,,,,,,,,,,,,,,,,,,,,,,,,,,,,,,,,,,,,,,,,,
,,,,,,,,,,00001537187,2020-10-17_14h18.36.855,swahili,2020.2.4,MacIntel,60,,,,,,,,,,,,,,,,,,,,,,PLATE - SAHANI,,,,,,,,,,return,4.149765,2,0,2,0,1,,,,,,,,,,,,,,,,,,,,,,,,,,,,,,,,,,,,,,,,,,,,,,,,,,,,,,,,,,,,,,,,
,,,,,,,,,,00001537187,2020-10-17_14h18.36.855,swahili,2020.2.4,MacIntel,60,,,,,,,,,,,,,,,,,,,,,,GRAVE - KABURI,,,,,,,,,,return,2.883445,3,0,3,0,1,,,,,,,,,,,,,,,,,,,,,,,,,,,,,,,,,,,,,,,,,,,,,,,,,,,,,,,,,,,,,,,,
,,,,,,,,,,00001537187,2020-10-17_14h18.36.855,swahili,2020.2.4,MacIntel,60,,,,,,,,,,,,,,,,,,,,,,CHEESE - JIBINI,,,,,,,,,,return,17.907465,4,0,4,0,1,,,,,,,,,,,,,,,,,,,,,,,,,,,,,,,,,,,,,,,,,,,,,,,,,,,,,,,,,,,,,,,,
,,,,,,,,,,00001537187,2020-10-17_14h18.36.855,swahili,2020.2.4,MacIntel,60,,,,,,,,,,,,,,,,,,,,,,CORN - NAFAKA,,,,,,,,,,return,2.36573,5,0,5,0,1,,,,,,,,,,,,,,,,,,,,,,,,,,,,,,,,,,,,,,,,,,,,,,,,,,,,,,,,,,,,,,,,
,,,,,,,,,,00001537187,2020-10-17_14h18.36.855,swahili,2020.2.4,MacIntel,60,,,,,,,,,,,,,,,,,,,,,,TAILOR - MSHONI,,,,,,,,,,return,2.718655,6,0,6,0,1,,,,,,,,,,,,,,,,,,,,,,,,,,,,,,,,,,,,,,,,,,,,,,,,,,,,,,,,,,,,,,,,
,,,,,,,,,,00001537187,2020-10-17_14h18.36.855,swahili,2020.2.4,MacIntel,60,,,,,,,,,,,,,,,,,,,,,,BULL - FAHILI,,,,,,,,,,return,1.244525,7,0,7,0,1,,,,,,,,,,,,,,,,,,,,,,,,,,,,,,,,,,,,,,,,,,,,,,,,,,,,,,,,,,,,,,,,
,,,,,,,,,,00001537187,2020-10-17_14h18.36.855,swahili,2020.2.4,MacIntel,60,,,,,,,,,,,,,,,,,,,,,,MANURE - SAMADI,,,,,,,,,,return,2.21721,8,0,8,0,1,,,,,,,,,,,,,,,,,,,,,,,,,,,,,,,,,,,,,,,,,,,,,,,,,,,,,,,,,,,,,,,,
,,,,,,,,,,00001537187,2020-10-17_14h18.36.855,swahili,2020.2.4,MacIntel,60,,,,,,,,,,,,,,,,,,,,,,AGENT - WAKILI,,,,,,,,,,return,1.283205,9,0,9,0,1,,,,,,,,,,,,,,,,,,,,,,,,,,,,,,,,,,,,,,,,,,,,,,,,,,,,,,,,,,,,,,,,
,,,,,,,,,,00001537187,2020-10-17_14h18.36.855,swahili,2020.2.4,MacIntel,60,,,,,,,,,,,,,,,,,,,,,,BOAT - MASHUA,,,,,,,,,,return,2.396385,10,0,10,0,1,,,,,,,,,,,,,,,,,,,,,,,,,,,,,,,,,,,,,,,,,,,,,,,,,,,,,,,,,,,,,,,,
,,,,,,,,,,00001537187,2020-10-17_14h18.36.855,swahili,2020.2.4,MacIntel,60,,,,,,,,,,,,,,,,,,,,,,,,,,,,,,,,,,,,,,,,1,0,1,0,1,,,,,,,,,,,,,,,,,,,,,,,,,,,,,,,,,,,,,,,,,,,,,,,,,,,,,,,,,,
,,,,,,,,,,00001537187,2020-10-17_14h18.36.855,swahili,2020.2.4,MacIntel,60,,,,,,,,,,,,,,,,,,,,,,,,,,,,,,,,,,,,,,,,,,,,,2,0,2,0,1,,,,,,,,,,,,,,,,,,,,,,,,,,,,,,,,,,,,,,,,,,,,,,,,,,,,,
,,,,,,,,,,00001537187,2020-10-17_14h18.36.855,swahili,2020.2.4,MacIntel,60,,,,,,,,,,-0.291585286,-0.171388889,1,0,0,0.92244,unsorted_card,0,0,0,0,1,,,,,,,,,,,,,,,,,,,,,,,,,,,,,,,,,,,,,,,,,,,,,,,,,,,,,,,,,,,,,,,,,,,,,,,,,,,,,,,,,
,,,,,,,,,,00001537187,2020-10-17_14h18.36.855,swahili,2020.2.4,MacIntel,60,,,,,,,,,,0.395469835,-0.011727431,1,0,0,1.1468,test_pile,1,0,1,0,1,MERCHANT - TAJIRI,,,,,,,,,,,,,,,,,,,,,,,,,,,,,,,,,,,,,,,,,,,,,,,,,,,,,,,,,,,,,,,,,,,,,,,,,,,,,,,,
,,,,,,,,,,00001537187,2020-10-17_14h18.36.855,swahili,2020.2.4,MacIntel,60,,,,,,,,,,-0.366867405,0.038420139,1,0,0,0.51505,unsorted_card,2,0,2,0,1,,,,,,,,,,,,,,,,,,,,,,,,,,,,,,,,,,,,,,,,,,,,,,,,,,,,,,,,,,,,,,,,,,,,,,,,,,,,,,,,,
,,,,,,,,,,00001537187,2020-10-17_14h18.36.855,swahili,2020.2.4,MacIntel,60,,,,,,,,,,0.392713759,-0.056536458,1,0,0,1.51698,test_pile,3,0,3,0,1,PARROT - KASUKU,,,,,,,,,,,,,,,,,,,,,,,,,,,,,,,,,,,,,,,,,,,,,,,,,,,,,,,,,,,,,,,,,,,,,,,,,,,,,,,,
,,,,,,,,,,00001537187,2020-10-17_14h18.36.855,swahili,2020.2.4,MacIntel,60,,,,,,,,,,-0.402582465,0.023524306,1,0,0,0.514395,unsorted_card,4,0,4,0,1,,,,,,,,,,,,,,,,,,,,,,,,,,,,,,,,,,,,,,,,,,,,,,,,,,,,,,,,,,,,,,,,,,,,,,,,,,,,,,,,,
,,,,,,,,,,00001537187,2020-10-17_14h18.36.855,swahili,2020.2.4,MacIntel,60,,,,,,,,,,0.445968967,0.407873264,1,0,0,2.083365,study_pile,5,0,5,0,1,BULL - FAHILI,,,,,,,,,,,,,,,,,,,,,,,,,,,,,,,,,,,,,,,,,,,,,,,,,,,,,,,,,,,,,,,,,,,,,,,,,,,,,,,,
,,,,,,,,,,00001537187,2020-10-17_14h18.36.855,swahili,2020.2.4,MacIntel,60,,,,,,,,,,-0.307823351,-0.113359375,1,0,0,0.465365,unsorted_card,6,0,6,0,1,,,,,,,,,,,,,,,,,,,,,,,,,,,,,,,,,,,,,,,,,,,,,,,,,,,,,,,,,,,,,,,,,,,,,,,,,,,,,,,,,
,,,,,,,,,,00001537187,2020-10-17_14h18.36.855,swahili,2020.2.4,MacIntel,60,,,,,,,,,,0.392171224,0.465842014,1,0,0,1.799395,study_pile,7,0,7,0,1,PLATE - SAHANI,,,,,,,,,,,,,,,,,,,,,,,,,,,,,,,,,,,,,,,,,,,,,,,,,,,,,,,,,,,,,,,,,,,,,,,,,,,,,,,,
,,,,,,,,,,00001537187,2020-10-17_14h18.36.855,swahili,2020.2.4,MacIntel,60,,,,,,,,,,-0.350472005,-0.212552083,1,0,0,0.431195,unsorted_card,8,0,8,0,1,,,,,,,,,,,,,,,,,,,,,,,,,,,,,,,,,,,,,,,,,,,,,,,,,,,,,,,,,,,,,,,,,,,,,,,,,,,,,,,,,
,,,,,,,,,,00001537187,2020-10-17_14h18.36.855,swahili,2020.2.4,MacIntel,60,,,,,,,,,,0.385742188,0.404652778,1,0,0,2.01661,study_pile,9,0,9,0,1,YEAST - HAMIRA,,,,,,,,,,,,,,,,,,,,,,,,,,,,,,,,,,,,,,,,,,,,,,,,,,,,,,,,,,,,,,,,,,,,,,,,,,,,,,,,
,,,,,,,,,,00001537187,2020-10-17_14h18.36.855,swahili,2020.2.4,MacIntel,60,,,,,,,,,,-0.220567491,0.047248264,1,0,0,0.465675,unsorted_card,10,0,10,0,1,,,,,,,,,,,,,,,,,,,,,,,,,,,,,,,,,,,,,,,,,,,,,,,,,,,,,,,,,,,,,,,,,,,,,,,,,,,,,,,,,
,,,,,,,,,,00001537187,2020-10-17_14h18.36.855,swahili,2020.2.4,MacIntel,60,,,,,,,,,,0.396310764,0.038298611,1,0,0,0.915665,test_pile,11,0,11,0,1,BLAME - LAWAMA,,,,,,,,,,,,,,,,,,,,,,,,,,,,,,,,,,,,,,,,,,,,,,,,,,,,,,,,,,,,,,,,,,,,,,,,,,,,,,,,
,,,,,,,,,,00001537187,2020-10-17_14h18.36.855,swahili,2020.2.4,MacIntel,60,,,,,,,,,,-0.364746094,-0.011397569,1,0,0,0.432505,unsorted_card,12,0,12,0,1,,,,,,,,,,,,,,,,,,,,,,,,,,,,,,,,,,,,,,,,,,,,,,,,,,,,,,,,,,,,,,,,,,,,,,,,,,,,,,,,,
,,,,,,,,,,00001537187,2020-10-17_14h18.36.855,swahili,2020.2.4,MacIntel,60,,,,,,,,,,0.484673394,-0.004678819,1,0,0,1.730605,test_pile,13,0,13,0,1,OATH - YAMINI,,,,,,,,,,,,,,,,,,,,,,,,,,,,,,,,,,,,,,,,,,,,,,,,,,,,,,,,,,,,,,,,,,,,,,,,,,,,,,,,
,,,,,,,,,,00001537187,2020-10-17_14h18.36.855,swahili,2020.2.4,MacIntel,60,,,,,,,,,,-0.345345052,-0.024470486,1,0,0,0.482325,unsorted_card,14,0,14,0,1,,,,,,,,,,,,,,,,,,,,,,,,,,,,,,,,,,,,,,,,,,,,,,,,,,,,,,,,,,,,,,,,,,,,,,,,,,,,,,,,,
,,,,,,,,,,00001537187,2020-10-17_14h18.36.855,swahili,2020.2.4,MacIntel,60,,,,,,,,,,0.451925998,0.026944444,1,0,0,22.148795,test_pile,15,0,15,0,1,CORN - NAFAKA,,,,,,,,,,,,,,,,,,,,,,,,,,,,,,,,,,,,,,,,,,,,,,,,,,,,,,,,,,,,,,,,,,,,,,,,,,,,,,,,
,,,,,,,,,,00001537187,2020-10-17_14h18.36.855,swahili,2020.2.4,MacIntel,60,,,,,,,,,,-0.265152995,-0.097769097,1,0,0,0.66617,unsorted_card,16,0,16,0,1,,,,,,,,,,,,,,,,,,,,,,,,,,,,,,,,,,,,,,,,,,,,,,,,,,,,,,,,,,,,,,,,,,,,,,,,,,,,,,,,,
,,,,,,,,,,00001537187,2020-10-17_14h18.36.855,swahili,2020.2.4,MacIntel,60,,,,,,,,,,0.484369575,0.432161458,1,0,0,1.132,study_pile,17,0,17,0,1,POEM - UTENZI,,,,,,,,,,,,,,,,,,,,,,,,,,,,,,,,,,,,,,,,,,,,,,,,,,,,,,,,,,,,,,,,,,,,,,,,,,,,,,,,
,,,,,,,,,,00001537187,2020-10-17_14h18.36.855,swahili,2020.2.4,MacIntel,60,,,,,,,,,,-0.185584852,0.006006944,1,0,0,0.51511,unsorted_card,18,0,18,0,1,,,,,,,,,,,,,,,,,,,,,,,,,,,,,,,,,,,,,,,,,,,,,,,,,,,,,,,,,,,,,,,,,,,,,,,,,,,,,,,,,
,,,,,,,,,,00001537187,2020-10-17_14h18.36.855,swahili,2020.2.4,MacIntel,60,,,,,,,,,,0.519395616,0.026597222,1,0,0,1.28206,test_pile,19,0,19,0,1,TAILOR - MSHONI,,,,,,,,,,,,,,,,,,,,,,,,,,,,,,,,,,,,,,,,,,,,,,,,,,,,,,,,,,,,,,,,,,,,,,,,,,,,,,,,
,,,,,,,,,,00001537187,2020-10-17_14h18.36.855,swahili,2020.2.4,MacIntel,60,,,,,,,,,,-0.263780382,0.085920139,1,0,0,0.598755,unsorted_card,20,0,20,0,1,,,,,,,,,,,,,,,,,,,,,,,,,,,,,,,,,,,,,,,,,,,,,,,,,,,,,,,,,,,,,,,,,,,,,,,,,,,,,,,,,
,,,,,,,,,,00001537187,2020-10-17_14h18.36.855,swahili,2020.2.4,MacIntel,60,,,,,,,,,,0.439317491,-0.053350694,1,0,0,9.73215,test_pile,21,0,21,0,1,CHEESE - JIBINI,,,,,,,,,,,,,,,,,,,,,,,,,,,,,,,,,,,,,,,,,,,,,,,,,,,,,,,,,,,,,,,,,,,,,,,,,,,,,,,,
,,,,,,,,,,00001537187,2020-10-17_14h18.36.855,swahili,2020.2.4,MacIntel,60,,,,,,,,,,-0.114246962,0.032925347,1,0,0,0.514915,unsorted_card,22,0,22,0,1,,,,,,,,,,,,,,,,,,,,,,,,,,,,,,,,,,,,,,,,,,,,,,,,,,,,,,,,,,,,,,,,,,,,,,,,,,,,,,,,,
,,,,,,,,,,00001537187,2020-10-17_14h18.36.855,swahili,2020.2.4,MacIntel,60,,,,,,,,,,0.408148872,-0.023810764,1,0,0,3.699105,test_pile,23,0,23,0,1,GRAPES - ZABIBU,,,,,,,,,,,,,,,,,,,,,,,,,,,,,,,,,,,,,,,,,,,,,,,,,,,,,,,,,,,,,,,,,,,,,,,,,,,,,,,,
,,,,,,,,,,00001537187,2020-10-17_14h18.36.855,swahili,2020.2.4,MacIntel,60,,,,,,,,,,-0.435259332,-0.0159375,1,0,0,0.597625,unsorted_card,24,0,24,0,1,,,,,,,,,,,,,,,,,,,,,,,,,,,,,,,,,,,,,,,,,,,,,,,,,,,,,,,,,,,,,,,,,,,,,,,,,,,,,,,,,
,,,,,,,,,,00001537187,2020-10-17_14h18.36.855,swahili,2020.2.4,MacIntel,60,,,,,,,,,,0.493657769,0.413324653,1,0,0,2.066885,study_pile,25,0,25,0,1,GRAVE - KABURI,,,,,,,,,,,,,,,,,,,,,,,,,,,,,,,,,,,,,,,,,,,,,,,,,,,,,,,,,,,,,,,,,,,,,,,,,,,,,,,,
,,,,,,,,,,00001537187,2020-10-17_14h18.36.855,swahili,2020.2.4,MacIntel,60,,,,,,,,,,-0.210031467,-0.092473958,1,0,0,0.53214,unsorted_card,26,0,26,0,1,,,,,,,,,,,,,,,,,,,,,,,,,,,,,,,,,,,,,,,,,,,,,,,,,,,,,,,,,,,,,,,,,,,,,,,,,,,,,,,,,
,,,,,,,,,,00001537187,2020-10-17_14h18.36.855,swahili,2020.2.4,MacIntel,60,,,,,,,,,,0.393299696,0.434565972,1,0,0,1.3484,study_pile,27,0,27,0,1,MANURE - SAMADI,,,,,,,,,,,,,,,,,,,,,,,,,,,,,,,,,,,,,,,,,,,,,,,,,,,,,,,,,,,,,,,,,,,,,,,,,,,,,,,,
,,,,,,,,,,00001537187,2020-10-17_14h18.36.855,swahili,2020.2.4,MacIntel,60,,,,,,,,,,-0.25492079,-0.039678819,1,0,0,0.499215,unsorted_card,28,0,28,0,1,,,,,,,,,,,,,,,,,,,,,,,,,,,,,,,,,,,,,,,,,,,,,,,,,,,,,,,,,,,,,,,,,,,,,,,,,,,,,,,,,
,,,,,,,,,,00001537187,2020-10-17_14h18.36.855,swahili,2020.2.4,MacIntel,60,,,,,,,,,,0.536838108,0.495520833,1,0,0,3.649455,study_pile,29,0,29,0,1,AGENT - WAKILI,,,,,,,,,,,,,,,,,,,,,,,,,,,,,,,,,,,,,,,,,,,,,,,,,,,,,,,,,,,,,,,,,,,,,,,,,,,,,,,,
,,,,,,,,,,00001537187,2020-10-17_14h18.36.855,swahili,2020.2.4,MacIntel,60,,,,,,,,,,-0.265901693,-0.000112847,1,0,0,0.54766,unsorted_card,30,0,30,0,1,,,,,,,,,,,,,,,,,,,,,,,,,,,,,,,,,,,,,,,,,,,,,,,,,,,,,,,,,,,,,,,,,,,,,,,,,,,,,,,,,
,,,,,,,,,,00001537187,2020-10-17_14h18.36.855,swahili,2020.2.4,MacIntel,60,,,,,,,,,,0.664849175,-0.050321181,1,0,0,4.20021,test_pile,31,0,31,0,1,BRIBE - RUSHWA,,,,,,,,,,,,,,,,,,,,,,,,,,,,,,,,,,,,,,,,,,,,,,,,,,,,,,,,,,,,,,,,,,,,,,,,,,,,,,,,
,,,,,,,,,,00001537187,2020-10-17_14h18.36.855,swahili,2020.2.4,MacIntel,60,,,,,,,,,,-0.188151042,-0.046736111,1,0,0,0.66188,unsorted_card,32,0,32,0,1,,,,,,,,,,,,,,,,,,,,,,,,,,,,,,,,,,,,,,,,,,,,,,,,,,,,,,,,,,,,,,,,,,,,,,,,,,,,,,,,,
,,,,,,,,,,00001537187,2020-10-17_14h18.36.855,swahili,2020.2.4,MacIntel,60,,,,,,,,,,0.43359375,-0.005008681,1,0,0,1.9492,test_pile,33,0,33,0,1,ORPHAN - YATIMA,,,,,,,,,,,,,,,,,,,,,,,,,,,,,,,,,,,,,,,,,,,,,,,,,,,,,,,,,,,,,,,,,,,,,,,,,,,,,,,,
,,,,,,,,,,00001537187,2020-10-17_14h18.36.855,swahili,2020.2.4,MacIntel,60,,,,,,,,,,-0.173019748,0.027118056,1,0,0,0.549015,unsorted_card,34,0,34,0,1,,,,,,,,,,,,,,,,,,,,,,,,,,,,,,,,,,,,,,,,,,,,,,,,,,,,,,,,,,,,,,,,,,,,,,,,,,,,,,,,,
,,,,,,,,,,00001537187,2020-10-17_14h18.36.855,swahili,2020.2.4,MacIntel,60,,,,,,,,,,0.505208333,-0.065694444,1,0,0,1.034305,test_pile,35,0,35,0,1,DIVORCE - TALAKA,,,,,,,,,,,,,,,,,,,,,,,,,,,,,,,,,,,,,,,,,,,,,,,,,,,,,,,,,,,,,,,,,,,,,,,,,,,,,,,,
,,,,,,,,,,00001537187,2020-10-17_14h18.36.855,swahili,2020.2.4,MacIntel,60,,,,,,,,,,-0.208056641,0.059453125,1,0,0,0.564385,unsorted_card,36,0,36,0,1,,,,,,,,,,,,,,,,,,,,,,,,,,,,,,,,,,,,,,,,,,,,,,,,,,,,,,,,,,,,,,,,,,,,,,,,,,,,,,,,,
,,,,,,,,,,00001537187,2020-10-17_14h18.36.855,swahili,2020.2.4,MacIntel,60,,,,,,,,,,0.561680773,0.518871528,1,0,0,1.66671,study_pile,37,0,37,0,1,BOAT - MASHUA,,,,,,,,,,,,,,,,,,,,,,,,,,,,,,,,,,,,,,,,,,,,,,,,,,,,,,,,,,,,,,,,,,,,,,,,,,,,,,,,
,,,,,,,,,,00001537187,2020-10-17_14h18.36.855,swahili,2020.2.4,MacIntel,60,,,,,,,,,,-0.17789171,0.075442708,1,0,0,0.49894,unsorted_card,38,0,38,0,1,,,,,,,,,,,,,,,,,,,,,,,,,,,,,,,,,,,,,,,,,,,,,,,,,,,,,,,,,,,,,,,,,,,,,,,,,,,,,,,,,
,,,,,,,,,,00001537187,2020-10-17_14h18.36.855,swahili,2020.2.4,MacIntel,60,,,,,,,,,,0.326985677,0.023237847,1,0,0,1.2329,test_pile,39,0,39,0,1,TREASURE - DAFINA,,,,,,,,,,,,,,,,,,,,,,,,,,,,,,,,,,,,,,,,,,,,,,,,,,,,,,,,,,,,,,,,,,,,,,,,,,,,,,,,
,,,,,,,,,,00001537187,2020-10-17_14h18.36.855,swahili,2020.2.4,MacIntel,60,,,,,,,,,,,,,,,,,,,,,,,0.410845269,-0.200607639,1,0,0,0.965575,test_first,,,,,0,0,0,0,1,,,,,,,,,,,,,,,,,,,,,,,,,,,,,,,,,,,,,,,,,,,,,,,,,,,,,,,,,,,,,,,,
,,,,,,,,,,00001537187,2020-10-17_14h18.36.855,swahili,2020.2.4,MacIntel,60,,,,,,,,,,,,,,,,,,,,,,,,,,,,,,,,,,,,,,,return,,,,,,,,,,,2.150345,5.414125,0.326280382,-0.145416667,1,0,0,0.68197,yes,TAILOR,MSHONI,incorrect,0,0,0,0,1,,,,,,,,,,,,,,,,,,,,,,,,,,,,,,,,,,,,
,,,,,,,,,,00001537187,2020-10-17_14h18.36.855,swahili,2020.2.4,MacIntel,60,,,,,,,,,,,,,,,,,,,,,,,,,,,,,,,,,,,,,,,,,,,,,,,,,,,4.28163,0.29938151,-0.174626736,1,0,0,0.648935,yes,MERCHANT,TAJIRI,incorrect,1,0,1,0,1,,,,,,,,,,,,,,,,,,,,,,,,,,,,,,,,,,,,
,,,,,,,,,,00001537187,2020-10-17_14h18.36.855,swahili,2020.2.4,MacIntel,60,,,,,,,,,,,,,,,,,,,,,,,,,,,,,,,,,,,,,,,,,,,,,,,,,,,14.73333,0.408767361,-0.028394097,1,0,0,0.715725,yes,BRIBE,LAWAMA,incorrect,2,0,2,0,1,,,,,,,,,,,,,,,,,,,,,,,,,,,,,,,,,,,,
,,,,,,,,,,00001537187,2020-10-17_14h18.36.855,swahili,2020.2.4,MacIntel,60,,,,,,,,,,,,,,,,,,,,,,,,,,,,,,,,,,,,,,,,,,,,,,,,,,,6.179825,0.357080078,-0.031701389,1,0,0,1.18322,yes,CORN,NAFAKA,incorrect,3,0,3,0,1,,,,,,,,,,,,,,,,,,,,,,,,,,,,,,,,,,,,
,,,,,,,,,,00001537187,2020-10-17_14h18.36.855,swahili,2020.2.4,MacIntel,60,,,,,,,,,,,,,,,,,,,,,,,,,,,,,,,,,,,,,,,,,,,,,,,,,,,4.38021,0.369059245,-0.131822917,1,0,0,0.85108,yes,TREASURE,DAFINA,incorrect,4,0,4,0,1,,,,,,,,,,,,,,,,,,,,,,,,,,,,,,,,,,,,
,,,,,,,,,,00001537187,2020-10-17_14h18.36.855,swahili,2020.2.4,MacIntel,60,,,,,,,,,,,,,,,,,,,,,,,,,,,,,,,,,,,,,,,,,,,,,,,,,,,5.74835,0.355729167,0.057274306,1,0,0,0.64866,yes,PARROT,KASUKU,incorrect,5,0,5,0,1,,,,,,,,,,,,,,,,,,,,,,,,,,,,,,,,,,,,
,,,,,,,,,,00001537187,2020-10-17_14h18.36.855,swahili,2020.2.4,MacIntel,60,,,,,,,,,,,,,,,,,,,,,,,,,,,,,,,,,,,,,,,,,,,,,,,,,,,4.2145,0.350808377,-0.098680556,1,0,0,0.749,yes,GRAPES,ZABIBU,incorrect,6,0,6,0,1,,,,,,,,,,,,,,,,,,,,,,,,,,,,,,,,,,,,
,,,,,,,,,,00001537187,2020-10-17_14h18.36.855,swahili,2020.2.4,MacIntel,60,,,,,,,,,,,,,,,,,,,,,,,,,,,,,,,,,,,,,,,,,,,,,,,,,,,5.565025,0.400103082,0.051310764,1,0,0,0.867605,yes,BLAME,LAWAMA,incorrect,7,0,7,0,1,,,,,,,,,,,,,,,,,,,,,,,,,,,,,,,,,,,,
,,,,,,,,,,00001537187,2020-10-17_14h18.36.855,swahili,2020.2.4,MacIntel,60,,,,,,,,,,,,,,,,,,,,,,,,,,,,,,,,,,,,,,,,,,,,,,,,,,,5.815595,0.37671441,0.059244792,1,0,0,0.533205,yes,OATH,YAMINI,incorrect,8,0,8,0,1,,,,,,,,,,,,,,,,,,,,,,,,,,,,,,,,,,,,
,,,,,,,,,,00001537187,2020-10-17_14h18.36.855,swahili,2020.2.4,MacIntel,60,,,,,,,,,,,,,,,,,,,,,,,,,,,,,,,,,,,,,,,,,,,,,,,,,,,3.9326,0.33219401,0.087751736,1,0,0,0.516065,yes,DIVORCE,TALAKA,incorrect,9,0,9,0,1,,,,,,,,,,,,,,,,,,,,,,,,,,,,,,,,,,,,
,,,,,,,,,,00001537187,2020-10-17_14h18.36.855,swahili,2020.2.4,MacIntel,60,,,,,,,,,,,,,,,,,,,,,,,,,,,,,,,,,,,,,,,,,,,,,,,,,,,2.798705,0.402685547,-0.039800347,1,0,0,0.60126,yes,ORPHAN,YATIMA,incorrect,10,0,10,0,1,,,,,,,,,,,,,,,,,,,,,,,,,,,,,,,,,,,,
,,,,,,,,,,00001537187,2020-10-17_14h18.36.855,swahili,2020.2.4,MacIntel,60,,,,,,,,,,,,,,,,,,,,,,,,,,,,,,,,,,,,,,,,,,,,,,,,,,,5.664645,0.334727648,-0.1390625,1,0,0,0.69995,yes,CHEESE,JIBIBI,incorrect,11,0,11,0,1,,,,,,,,,,,,,,,,,,,,,,,,,,,,,,,,,,,,
,,,,,,,,,,00001537187,2020-10-17_14h18.36.855,swahili,2020.2.4,MacIntel,60,,,,,,,,,,,,,,,,,,,,,,,,,,,,,,,,,,,,,,,,0,0,0,0,1,,,,,,,,,,,,,,,,,,,,,,,,,,,,,,,,,,,,,,,,,,,,,,,,,,,,,,,,,,
,,,,,,,,,,00001537187,2020-10-17_14h18.36.855,swahili,2020.2.4,MacIntel,60,,,,,,,,,,,,,,,,,,,,,,BULL - FAHILI,,,,,,,,return,0.649735,return,30.2986,0,0,0,0,1,,,,,,,,,,,,,,,,,,,,,,,,,,,,,,,,,,,,,,,,,,,,,,,,,,,,,,,,,,,,,,,,
,,,,,,,,,,00001537187,2020-10-17_14h18.36.855,swahili,2020.2.4,MacIntel,60,,,,,,,,,,,,,,,,,,,,,,BOAT - MASHUA,,,,,,,,,,return,2.867945,1,0,1,0,1,,,,,,,,,,,,,,,,,,,,,,,,,,,,,,,,,,,,,,,,,,,,,,,,,,,,,,,,,,,,,,,,
,,,,,,,,,,00001537187,2020-10-17_14h18.36.855,swahili,2020.2.4,MacIntel,60,,,,,,,,,,,,,,,,,,,,,,YEAST - HAMIRA,,,,,,,,,,return,4.21738,2,0,2,0,1,,,,,,,,,,,,,,,,,,,,,,,,,,,,,,,,,,,,,,,,,,,,,,,,,,,,,,,,,,,,,,,,
,,,,,,,,,,00001537187,2020-10-17_14h18.36.855,swahili,2020.2.4,MacIntel,60,,,,,,,,,,,,,,,,,,,,,,POEM - UTENZI,,,,,,,,,,return,2.115795,3,0,3,0,1,,,,,,,,,,,,,,,,,,,,,,,,,,,,,,,,,,,,,,,,,,,,,,,,,,,,,,,,,,,,,,,,
,,,,,,,,,,00001537187,2020-10-17_14h18.36.855,swahili,2020.2.4,MacIntel,60,,,,,,,,,,,,,,,,,,,,,,MANURE - SAMADI,,,,,,,,,,return,31.86493,4,0,4,0,1,,,,,,,,,,,,,,,,,,,,,,,,,,,,,,,,,,,,,,,,,,,,,,,,,,,,,,,,,,,,,,,,
,,,,,,,,,,00001537187,2020-10-17_14h18.36.855,swahili,2020.2.4,MacIntel,60,,,,,,,,,,,,,,,,,,,,,,PLATE - SAHANI,,,,,,,,,,return,2.800095,5,0,5,0,1,,,,,,,,,,,,,,,,,,,,,,,,,,,,,,,,,,,,,,,,,,,,,,,,,,,,,,,,,,,,,,,,
,,,,,,,,,,00001537187,2020-10-17_14h18.36.855,swahili,2020.2.4,MacIntel,60,,,,,,,,,,,,,,,,,,,,,,AGENT - WAKILI,,,,,,,,,,return,4.766015,6,0,6,0,1,,,,,,,,,,,,,,,,,,,,,,,,,,,,,,,,,,,,,,,,,,,,,,,,,,,,,,,,,,,,,,,,
,,,,,,,,,,00001537187,2020-10-17_14h18.36.855,swahili,2020.2.4,MacIntel,60,,,,,,,,,,,,,,,,,,,,,,GRAVE - KABURI,,,,,,,,,,return,18.468625,7,0,7,0,1,,,,,,,,,,,,,,,,,,,,,,,,,,,,,,,,,,,,,,,,,,,,,,,,,,,,,,,,,,,,,,,,
,,,,,,,,,,00001537187,2020-10-17_14h18.36.855,swahili,2020.2.4,MacIntel,60,,,,,,,,,,,,,,,,,,,,,,,,,,,,,,,,,,,,,,,,1,0,1,0,1,,,,,,,,,,,,,,,,,,,,,,,,,,,,,,,,,,,,,,,,,,,,,,,,,,,,,,,,,,
,,,,,,,,,,00001537187,2020-10-17_14h18.36.855,swahili,2020.2.4,MacIntel,60,,,,,,,,,,,,,,,,,,,,,,,,,,,,,,,,,,,,,,,,,,,,,3,0,3,0,1,,,,,,,,,,,,,,,,,,,,,,,,,,,,,,,,,,,,,,,,,,,,,,,,,,,,,
,,,,,,,,,,00001537187,2020-10-17_14h18.36.855,swahili,2020.2.4,MacIntel,60,,,,,,,,,,-0.233761936,-0.100069444,1,0,0,0.905705,unsorted_card,0,0,0,0,1,,,,,,,,,,,,,,,,,,,,,,,,,,,,,,,,,,,,,,,,,,,,,,,,,,,,,,,,,,,,,,,,,,,,,,,,,,,,,,,,,
,,,,,,,,,,00001537187,2020-10-17_14h18.36.855,swahili,2020.2.4,MacIntel,60,,,,,,,,,,0.440011936,0.054713542,1,0,0,0.86623,test_pile,1,0,1,0,1,MERCHANT - TAJIRI,,,,,,,,,,,,,,,,,,,,,,,,,,,,,,,,,,,,,,,,,,,,,,,,,,,,,,,,,,,,,,,,,,,,,,,,,,,,,,,,
,,,,,,,,,,00001537187,2020-10-17_14h18.36.855,swahili,2020.2.4,MacIntel,60,,,,,,,,,,-0.286257595,0.014184028,1,0,0,0.662935,unsorted_card,2,0,2,0,1,,,,,,,,,,,,,,,,,,,,,,,,,,,,,,,,,,,,,,,,,,,,,,,,,,,,,,,,,,,,,,,,,,,,,,,,,,,,,,,,,
,,,,,,,,,,00001537187,2020-10-17_14h18.36.855,swahili,2020.2.4,MacIntel,60,,,,,,,,,,0.415044488,-0.025104167,1,0,0,1.215775,test_pile,3,0,3,0,1,PARROT - KASUKU,,,,,,,,,,,,,,,,,,,,,,,,,,,,,,,,,,,,,,,,,,,,,,,,,,,,,,,,,,,,,,,,,,,,,,,,,,,,,,,,
,,,,,,,,,,00001537187,2020-10-17_14h18.36.855,swahili,2020.2.4,MacIntel,60,,,,,,,,,,-0.256255425,-0.143828125,1,0,0,0.7322,unsorted_card,4,0,4,0,1,,,,,,,,,,,,,,,,,,,,,,,,,,,,,,,,,,,,,,,,,,,,,,,,,,,,,,,,,,,,,,,,,,,,,,,,,,,,,,,,,
,,,,,,,,,,00001537187,2020-10-17_14h18.36.855,swahili,2020.2.4,MacIntel,60,,,,,,,,,,0.450097656,0.399409722,1,0,0,3.399145,study_pile,5,0,5,0,1,BULL - FAHILI,,,,,,,,,,,,,,,,,,,,,,,,,,,,,,,,,,,,,,,,,,,,,,,,,,,,,,,,,,,,,,,,,,,,,,,,,,,,,,,,
,,,,,,,,,,00001537187,2020-10-17_14h18.36.855,swahili,2020.2.4,MacIntel,60,,,,,,,,,,-0.117306858,0.075199653,1,0,0,0.548535,unsorted_card,6,0,6,0,1,,,,,,,,,,,,,,,,,,,,,,,,,,,,,,,,,,,,,,,,,,,,,,,,,,,,,,,,,,,,,,,,,,,,,,,,,,,,,,,,,
,,,,,,,,,,00001537187,2020-10-17_14h18.36.855,swahili,2020.2.4,MacIntel,60,,,,,,,,,,0.507991536,0.482161458,1,0,0,2.85069,study_pile,7,0,7,0,1,PLATE - SAHANI,,,,,,,,,,,,,,,,,,,,,,,,,,,,,,,,,,,,,,,,,,,,,,,,,,,,,,,,,,,,,,,,,,,,,,,,,,,,,,,,
,,,,,,,,,,00001537187,2020-10-17_14h18.36.855,swahili,2020.2.4,MacIntel,60,,,,,,,,,,-0.382085503,0.012118056,1,0,0,0.481325,unsorted_card,8,0,8,0,1,,,,,,,,,,,,,,,,,,,,,,,,,,,,,,,,,,,,,,,,,,,,,,,,,,,,,,,,,,,,,,,,,,,,,,,,,,,,,,,,,
,,,,,,,,,,00001537187,2020-10-17_14h18.36.855,swahili,2020.2.4,MacIntel,60,,,,,,,,,,0.363758681,-0.016232639,1,0,0,3.382165,test_pile,9,0,9,0,1,YEAST - HAMIRA,,,,,,,,,,,,,,,,,,,,,,,,,,,,,,,,,,,,,,,,,,,,,,,,,,,,,,,,,,,,,,,,,,,,,,,,,,,,,,,,
,,,,,,,,,,00001537187,2020-10-17_14h18.36.855,swahili,2020.2.4,MacIntel,60,,,,,,,,,,-0.566026476,-0.028168403,1,0,0,0.66543,unsorted_card,10,0,10,0,1,,,,,,,,,,,,,,,,,,,,,,,,,,,,,,,,,,,,,,,,,,,,,,,,,,,,,,,,,,,,,,,,,,,,,,,,,,,,,,,,,
,,,,,,,,,,00001537187,2020-10-17_14h18.36.855,swahili,2020.2.4,MacIntel,60,,,,,,,,,,0.348003472,-0.097664931,1,0,0,1.13146,test_pile,11,0,11,0,1,BLAME - LAWAMA,,,,,,,,,,,,,,,,,,,,,,,,,,,,,,,,,,,,,,,,,,,,,,,,,,,,,,,,,,,,,,,,,,,,,,,,,,,,,,,,
,,,,,,,,,,00001537187,2020-10-17_14h18.36.855,swahili,2020.2.4,MacIntel,60,,,,,,,,,,-0.212277561,-0.069557292,1,0,0,0.46546,unsorted_card,12,0,12,0,1,,,,,,,,,,,,,,,,,,,,,,,,,,,,,,,,,,,,,,,,,,,,,,,,,,,,,,,,,,,,,,,,,,,,,,,,,,,,,,,,,
,,,,,,,,,,00001537187,2020-10-17_14h18.36.855,swahili,2020.2.4,MacIntel,60,,,,,,,,,,0.331863064,0.023307292,1,0,0,3.983085,test_pile,13,0,13,0,1,OATH - YAMINI,,,,,,,,,,,,,,,,,,,,,,,,,,,,,,,,,,,,,,,,,,,,,,,,,,,,,,,,,,,,,,,,,,,,,,,,,,,,,,,,
,,,,,,,,,,00001537187,2020-10-17_14h18.36.855,swahili,2020.2.4,MacIntel,60,,,,,,,,,,-0.424544271,-0.034557292,1,0,0,0.51334,unsorted_card,14,0,14,0,1,,,,,,,,,,,,,,,,,,,,,,,,,,,,,,,,,,,,,,,,,,,,,,,,,,,,,,,,,,,,,,,,,,,,,,,,,,,,,,,,,
,,,,,,,,,,00001537187,2020-10-17_14h18.36.855,swahili,2020.2.4,MacIntel,60,,,,,,,,,,0.387027995,0.017595486,1,0,0,3.331985,test_pile,15,0,15,0,1,CORN - NAFAKA,,,,,,,,,,,,,,,,,,,,,,,,,,,,,,,,,,,,,,,,,,,,,,,,,,,,,,,,,,,,,,,,,,,,,,,,,,,,,,,,
,,,,,,,,,,00001537187,2020-10-17_14h18.36.855,swahili,2020.2.4,MacIntel,60,,,,,,,,,,-0.394080946,-0.155381944,1,0,0,0.664105,unsorted_card,16,0,16,0,1,,,,,,,,,,,,,,,,,,,,,,,,,,,,,,,,,,,,,,,,,,,,,,,,,,,,,,,,,,,,,,,,,,,,,,,,,,,,,,,,,
,,,,,,,,,,00001537187,2020-10-17_14h18.36.855,swahili,2020.2.4,MacIntel,60,,,,,,,,,,0.339756944,-0.110789931,1,0,0,2.09815,test_pile,17,0,17,0,1,POEM - UTENZI,,,,,,,,,,,,,,,,,,,,,,,,,,,,,,,,,,,,,,,,,,,,,,,,,,,,,,,,,,,,,,,,,,,,,,,,,,,,,,,,
,,,,,,,,,,00001537187,2020-10-17_14h18.36.855,swahili,2020.2.4,MacIntel,60,,,,,,,,,,-0.296620009,-0.067413194,1,0,0,0.51556,unsorted_card,18,0,18,0,1,,,,,,,,,,,,,,,,,,,,,,,,,,,,,,,,,,,,,,,,,,,,,,,,,,,,,,,,,,,,,,,,,,,,,,,,,,,,,,,,,
,,,,,,,,,,00001537187,2020-10-17_14h18.36.855,swahili,2020.2.4,MacIntel,60,,,,,,,,,,0.39921875,0.033993056,1,0,0,2.65002,test_pile,19,0,19,0,1,TAILOR - MSHONI,,,,,,,,,,,,,,,,,,,,,,,,,,,,,,,,,,,,,,,,,,,,,,,,,,,,,,,,,,,,,,,,,,,,,,,,,,,,,,,,
,,,,,,,,,,00001537187,2020-10-17_14h18.36.855,swahili,2020.2.4,MacIntel,60,,,,,,,,,,-0.224896918,-0.027335069,1,0,0,0.84869,unsorted_card,20,0,20,0,1,,,,,,,,,,,,,,,,,,,,,,,,,,,,,,,,,,,,,,,,,,,,,,,,,,,,,,,,,,,,,,,,,,,,,,,,,,,,,,,,,
,,,,,,,,,,00001537187,2020-10-17_14h18.36.855,swahili,2020.2.4,MacIntel,60,,,,,,,,,,0.51398112,-0.093758681,1,0,0,1.16562,test_pile,21,0,21,0,1,CHEESE - JIBINI,,,,,,,,,,,,,,,,,,,,,,,,,,,,,,,,,,,,,,,,,,,,,,,,,,,,,,,,,,,,,,,,,,,,,,,,,,,,,,,,
,,,,,,,,,,00001537187,2020-10-17_14h18.36.855,swahili,2020.2.4,MacIntel,60,,,,,,,,,,-0.335454644,-0.120060764,1,0,0,0.46541,unsorted_card,22,0,22,0,1,,,,,,,,,,,,,,,,,,,,,,,,,,,,,,,,,,,,,,,,,,,,,,,,,,,,,,,,,,,,,,,,,,,,,,,,,,,,,,,,,
,,,,,,,,,,00001537187,2020-10-17_14h18.36.855,swahili,2020.2.4,MacIntel,60,,,,,,,,,,0.389474826,-0.017578125,1,0,0,0.99991,test_pile,23,0,23,0,1,GRAPES - ZABIBU,,,,,,,,,,,,,,,,,,,,,,,,,,,,,,,,,,,,,,,,,,,,,,,,,,,,,,,,,,,,,,,,,,,,,,,,,,,,,,,,
,,,,,,,,,,00001537187,2020-10-17_14h18.36.855,swahili,2020.2.4,MacIntel,60,,,,,,,,,,-0.354101563,-0.006284722,1,0,0,0.448835,unsorted_card,24,0,24,0,1,,,,,,,,,,,,,,,,,,,,,,,,,,,,,,,,,,,,,,,,,,,,,,,,,,,,,,,,,,,,,,,,,,,,,,,,,,,,,,,,,
,,,,,,,,,,00001537187,2020-10-17_14h18.36.855,swahili,2020.2.4,MacIntel,60,,,,,,,,,,0.42172309,0.481328125,1,0,0,2.415095,study_pile,25,0,25,0,1,GRAVE - KABURI,,,,,,,,,,,,,,,,,,,,,,,,,,,,,,,,,,,,,,,,,,,,,,,,,,,,,,,,,,,,,,,,,,,,,,,,,,,,,,,,
,,,,,,,,,,00001537187,2020-10-17_14h18.36.855,swahili,2020.2.4,MacIntel,60,,,,,,,,,,-0.182449002,-0.104592014,1,0,0,0.49918,unsorted_card,26,0,26,0,1,,,,,,,,,,,,,,,,,,,,,,,,,,,,,,,,,,,,,,,,,,,,,,,,,,,,,,,,,,,,,,,,,,,,,,,,,,,,,,,,,
,,,,,,,,,,00001537187,2020-10-17_14h18.36.855,swahili,2020.2.4,MacIntel,60,,,,,,,,,,0.459619141,0.492265625,1,0,0,2.11669,study_pile,27,0,27,0,1,MANURE - SAMADI,,,,,,,,,,,,,,,,,,,,,,,,,,,,,,,,,,,,,,,,,,,,,,,,,,,,,,,,,,,,,,,,,,,,,,,,,,,,,,,,
,,,,,,,,,,00001537187,2020-10-17_14h18.36.855,swahili,2020.2.4,MacIntel,60,,,,,,,,,,-0.159624566,-0.068472222,1,0,0,0.445975,unsorted_card,28,0,28,0,1,,,,,,,,,,,,,,,,,,,,,,,,,,,,,,,,,,,,,,,,,,,,,,,,,,,,,,,,,,,,,,,,,,,,,,,,,,,,,,,,,
,,,,,,,,,,00001537187,2020-10-17_14h18.36.855,swahili,2020.2.4,MacIntel,60,,,,,,,,,,0.42038303,0.013420139,1,0,0,4.532555,test_pile,29,0,29,0,1,AGENT - WAKILI,,,,,,,,,,,,,,,,,,,,,,,,,,,,,,,,,,,,,,,,,,,,,,,,,,,,,,,,,,,,,,,,,,,,,,,,,,,,,,,,
,,,,,,,,,,00001537187,2020-10-17_14h18.36.855,swahili,2020.2.4,MacIntel,60,,,,,,,,,,-0.254747179,-0.044678819,1,0,0,0.49898,unsorted_card,30,0,30,0,1,,,,,,,,,,,,,,,,,,,,,,,,,,,,,,,,,,,,,,,,,,,,,,,,,,,,,,,,,,,,,,,,,,,,,,,,,,,,,,,,,
,,,,,,,,,,00001537187,2020-10-17_14h18.36.855,swahili,2020.2.4,MacIntel,60,,,,,,,,,,0.363232422,-0.016727431,1,0,0,3.082115,test_pile,31,0,31,0,1,BRIBE - RUSHWA,,,,,,,,,,,,,,,,,,,,,,,,,,,,,,,,,,,,,,,,,,,,,,,,,,,,,,,,,,,,,,,,,,,,,,,,,,,,,,,,
,,,,,,,,,,00001537187,2020-10-17_14h18.36.855,swahili,2020.2.4,MacIntel,60,,,,,,,,,,-0.161458333,-0.075338542,1,0,0,3.84964,unsorted_card,32,0,32,0,1,,,,,,,,,,,,,,,,,,,,,,,,,,,,,,,,,,,,,,,,,,,,,,,,,,,,,,,,,,,,,,,,,,,,,,,,,,,,,,,,,
,,,,,,,,,,00001537187,2020-10-17_14h18.36.855,swahili,2020.2.4,MacIntel,60,,,,,,,,,,0.443853082,0.009340278,1,0,0,0.897415,test_pile,33,0,33,0,1,ORPHAN - YATIMA,,,,,,,,,,,,,,,,,,,,,,,,,,,,,,,,,,,,,,,,,,,,,,,,,,,,,,,,,,,,,,,,,,,,,,,,,,,,,,,,
,,,,,,,,,,00001537187,2020-10-17_14h18.36.855,swahili,2020.2.4,MacIntel,60,,,,,,,,,,-0.403320313,0.058932292,1,0,0,0.499395,unsorted_card,34,0,34,0,1,,,,,,,,,,,,,,,,,,,,,,,,,,,,,,,,,,,,,,,,,,,,,,,,,,,,,,,,,,,,,,,,,,,,,,,,,,,,,,,,,
,,,,,,,,,,00001537187,2020-10-17_14h18.36.855,swahili,2020.2.4,MacIntel,60,,,,,,,,,,0.423567708,0.015052083,1,0,0,11.266225,test_pile,35,0,35,0,1,DIVORCE - TALAKA,,,,,,,,,,,,,,,,,,,,,,,,,,,,,,,,,,,,,,,,,,,,,,,,,,,,,,,,,,,,,,,,,,,,,,,,,,,,,,,,
,,,,,,,,,,00001537187,2020-10-17_14h18.36.855,swahili,2020.2.4,MacIntel,60,,,,,,,,,,-0.225840929,-0.077447917,1,0,0,0.547075,unsorted_card,36,0,36,0,1,,,,,,,,,,,,,,,,,,,,,,,,,,,,,,,,,,,,,,,,,,,,,,,,,,,,,,,,,,,,,,,,,,,,,,,,,,,,,,,,,
,,,,,,,,,,00001537187,2020-10-17_14h18.36.855,swahili,2020.2.4,MacIntel,60,,,,,,,,,,0.506841363,0.421788194,1,0,0,1.40021,study_pile,37,0,37,0,1,BOAT - MASHUA,,,,,,,,,,,,,,,,,,,,,,,,,,,,,,,,,,,,,,,,,,,,,,,,,,,,,,,,,,,,,,,,,,,,,,,,,,,,,,,,
,,,,,,,,,,00001537187,2020-10-17_14h18.36.855,swahili,2020.2.4,MacIntel,60,,,,,,,,,,-0.143945313,-0.091927083,1,0,0,0.462555,unsorted_card,38,0,38,0,1,,,,,,,,,,,,,,,,,,,,,,,,,,,,,,,,,,,,,,,,,,,,,,,,,,,,,,,,,,,,,,,,,,,,,,,,,,,,,,,,,
,,,,,,,,,,00001537187,2020-10-17_14h18.36.855,swahili,2020.2.4,MacIntel,60,,,,,,,,,,0.489523655,0.001901042,1,0,0,0.749675,test_pile,39,0,39,0,1,TREASURE - DAFINA,,,,,,,,,,,,,,,,,,,,,,,,,,,,,,,,,,,,,,,,,,,,,,,,,,,,,,,,,,,,,,,,,,,,,,,,,,,,,,,,
,,,,,,,,,,00001537187,2020-10-17_14h18.36.855,swahili,2020.2.4,MacIntel,60,,,,,,,,,,,,,,,,,,,,,,,0.457752821,-0.168211806,1,0,0,0.947725,test_first,,,,,0,0,0,0,1,,,,,,,,,,,,,,,,,,,,,,,,,,,,,,,,,,,,,,,,,,,,,,,,,,,,,,,,,,,,,,,,
,,,,,,,,,,00001537187,2020-10-17_14h18.36.855,swahili,2020.2.4,MacIntel,60,,,,,,,,,,,,,,,,,,,,,,,,,,,,,,,,,,,,,,,return,,,,,,,,,,,0.95318,4.680755,0.357644314,0.000868056,1,0,0,0.74949,yes,BRIBE,RUSHWA,incorrect,0,0,0,0,1,,,,,,,,,,,,,,,,,,,,,,,,,,,,,,,,,,,,
,,,,,,,,,,00001537187,2020-10-17_14h18.36.855,swahili,2020.2.4,MacIntel,60,,,,,,,,,,,,,,,,,,,,,,,,,,,,,,,,,,,,,,,,,,,,,,,,,,,3.664605,0.348014323,-0.15453125,1,0,0,0.66677,yes,POEM,UTENZI,incorrect,1,0,1,0,1,,,,,,,,,,,,,,,,,,,,,,,,,,,,,,,,,,,,
,,,,,,,,,,00001537187,2020-10-17_14h18.36.855,swahili,2020.2.4,MacIntel,60,,,,,,,,,,,,,,,,,,,,,,,,,,,,,,,,,,,,,,,,,,,,,,,,,,,11.246355,0.294878472,-0.115746528,1,0,0,0.766865,yes,YEAST,HAMIRA,incorrect,2,0,2,0,1,,,,,,,,,,,,,,,,,,,,,,,,,,,,,,,,,,,,
,,,,,,,,,,00001537187,2020-10-17_14h18.36.855,swahili,2020.2.4,MacIntel,60,,,,,,,,,,,,,,,,,,,,,,,,,,,,,,,,,,,,,,,,,,,,,,,,,,,3.19911,0.363123915,-0.051597222,1,0,0,1.848695,yes,BLAME,LAWAMA,incorrect,3,0,3,0,1,,,,,,,,,,,,,,,,,,,,,,,,,,,,,,,,,,,,
,,,,,,,,,,00001537187,2020-10-17_14h18.36.855,swahili,2020.2.4,MacIntel,60,,,,,,,,,,,,,,,,,,,,,,,,,,,,,,,,,,,,,,,,,,,,,,,,,,,5.65163,0.356863064,-0.069036458,1,0,0,0.765085,yes,GRAPES,ZABIBU,incorrect,4,0,4,0,1,,,,,,,,,,,,,,,,,,,,,,,,,,,,,,,,,,,,
,,,,,,,,,,00001537187,2020-10-17_14h18.36.855,swahili,2020.2.4,MacIntel,60,,,,,,,,,,,,,,,,,,,,,,,,,,,,,,,,,,,,,,,,,,,,,,,,,,,6.014095,0.354964193,-0.050060764,1,0,0,0.71744,yes,TREASURE,DAFINA,incorrect,5,0,5,0,1,,,,,,,,,,,,,,,,,,,,,,,,,,,,,,,,,,,,
,,,,,,,,,,00001537187,2020-10-17_14h18.36.855,swahili,2020.2.4,MacIntel,60,,,,,,,,,,,,,,,,,,,,,,,,,,,,,,,,,,,,,,,,,,,,,,,,,,,4.162225,0.36382921,-0.014296875,1,0,0,0.61645,yes,CORN,NAFAKA,incorrect,6,0,6,0,1,,,,,,,,,,,,,,,,,,,,,,,,,,,,,,,,,,,,
,,,,,,,,,,00001537187,2020-10-17_14h18.36.855,swahili,2020.2.4,MacIntel,60,,,,,,,,,,,,,,,,,,,,,,,,,,,,,,,,,,,,,,,,,,,,,,,,,,,8.74685,0.32280816,-0.133055556,1,0,0,0.617585,yes,OATH,YAMINI,incorrect,7,0,7,0,1,,,,,,,,,,,,,,,,,,,,,,,,,,,,,,,,,,,,
,,,,,,,,,,00001537187,2020-10-17_14h18.36.855,swahili,2020.2.4,MacIntel,60,,,,,,,,,,,,,,,,,,,,,,,,,,,,,,,,,,,,,,,,,,,,,,,,,,,2.57991,0.393234592,-0.069427083,1,0,0,0.86742,yes,DIVORCE,TALAKA,incorrect,8,0,8,0,1,,,,,,,,,,,,,,,,,,,,,,,,,,,,,,,,,,,,
,,,,,,,,,,00001537187,2020-10-17_14h18.36.855,swahili,2020.2.4,MacIntel,60,,,,,,,,,,,,,,,,,,,,,,,,,,,,,,,,,,,,,,,,,,,,,,,,,,,5.998545,0.30530599,-0.211545139,1,0,0,0.68364,yes,ORPHAN,YATIMA,incorrect,9,0,9,0,1,,,,,,,,,,,,,,,,,,,,,,,,,,,,,,,,,,,,
,,,,,,,,,,00001537187,2020-10-17_14h18.36.855,swahili,2020.2.4,MacIntel,60,,,,,,,,,,,,,,,,,,,,,,,,,,,,,,,,,,,,,,,,,,,,,,,,,,,2.815975,0.394639757,-0.039027778,1,0,0,0.664885,yes,MERCHANT,TAJIRI,incorrect,10,0,10,0,1,,,,,,,,,,,,,,,,,,,,,,,,,,,,,,,,,,,,
,,,,,,,,,,00001537187,2020-10-17_14h18.36.855,swahili,2020.2.4,MacIntel,60,,,,,,,,,,,,,,,,,,,,,,,,,,,,,,,,,,,,,,,,,,,,,,,,,,,16.33017,0.365684679,-0.143550347,1,0,0,0.766935,yes,AGENT,WAKILI,incorrect,11,0,11,0,1,,,,,,,,,,,,,,,,,,,,,,,,,,,,,,,,,,,,
,,,,,,,,,,00001537187,2020-10-17_14h18.36.855,swahili,2020.2.4,MacIntel,60,,,,,,,,,,,,,,,,,,,,,,,,,,,,,,,,,,,,,,,,,,,,,,,,,,,7.79826,0.371647135,-0.158020833,1,0,0,0.61678,yes,CHEESE,JABINI,incorrect,12,0,12,0,1,,,,,,,,,,,,,,,,,,,,,,,,,,,,,,,,,,,,
,,,,,,,,,,00001537187,2020-10-17_14h18.36.855,swahili,2020.2.4,MacIntel,60,,,,,,,,,,,,,,,,,,,,,,,,,,,,,,,,,,,,,,,,,,,,,,,,,,,3.88339,0.394645182,-0.106414931,1,0,0,0.63366,yes,PARROT,KASUKU,incorrect,13,0,13,0,1,,,,,,,,,,,,,,,,,,,,,,,,,,,,,,,,,,,,
,,,,,,,,,,00001537187,2020-10-17_14h18.36.855,swahili,2020.2.4,MacIntel,60,,,,,,,,,,,,,,,,,,,,,,,,,,,,,,,,,,,,,,,,,,,,,,,,,,,2.782555,0.361083984,-0.176475694,1,0,0,0.597865,yes,TAILOR,MSHONI,incorrect,14,0,14,0,1,,,,,,,,,,,,,,,,,,,,,,,,,,,,,,,,,,,,
,,,,,,,,,,00001537187,2020-10-17_14h18.36.855,swahili,2020.2.4,MacIntel,60,,,,,,,,,,,,,,,,,,,,,,,,,,,,,,,,,,,,,,,,0,0,0,0,1,,,,,,,,,,,,,,,,,,,,,,,,,,,,,,,,,,,,,,,,,,,,,,,,,,,,,,,,,,
,,,,,,,,,,00001537187,2020-10-17_14h18.36.855,swahili,2020.2.4,MacIntel,60,,,,,,,,,,,,,,,,,,,,,,BOAT - MASHUA,,,,,,,,return,1.40407,return,3.66454,0,0,0,0,1,,,,,,,,,,,,,,,,,,,,,,,,,,,,,,,,,,,,,,,,,,,,,,,,,,,,,,,,,,,,,,,,
,,,,,,,,,,00001537187,2020-10-17_14h18.36.855,swahili,2020.2.4,MacIntel,60,,,,,,,,,,,,,,,,,,,,,,GRAVE - KABURI,,,,,,,,,,return,26.11946,1,0,1,0,1,,,,,,,,,,,,,,,,,,,,,,,,,,,,,,,,,,,,,,,,,,,,,,,,,,,,,,,,,,,,,,,,
,,,,,,,,,,00001537187,2020-10-17_14h18.36.855,swahili,2020.2.4,MacIntel,60,,,,,,,,,,,,,,,,,,,,,,BULL - FAHILI,,,,,,,,,,return,2.81752,2,0,2,0,1,,,,,,,,,,,,,,,,,,,,,,,,,,,,,,,,,,,,,,,,,,,,,,,,,,,,,,,,,,,,,,,,
,,,,,,,,,,00001537187,2020-10-17_14h18.36.855,swahili,2020.2.4,MacIntel,60,,,,,,,,,,,,,,,,,,,,,,MANURE - SAMADI,,,,,,,,,,return,1.13626,3,0,3,0,1,,,,,,,,,,,,,,,,,,,,,,,,,,,,,,,,,,,,,,,,,,,,,,,,,,,,,,,,,,,,,,,,
,,,,,,,,,,00001537187,2020-10-17_14h18.36.855,swahili,2020.2.4,MacIntel,60,,,,,,,,,,,,,,,,,,,,,,PLATE - SAHANI,,,,,,,,,,return,15.067945,4,0,4,0,1,,,,,,,,,,,,,,,,,,,,,,,,,,,,,,,,,,,,,,,,,,,,,,,,,,,,,,,,,,,,,,,,
,,,,,,,,,,00001537187,2020-10-17_14h18.36.855,swahili,2020.2.4,MacIntel,60,,,,,,,,,,,,,,,,,,,,,,,,,,,,,,,,,,,,,,,,1,0,1,0,1,,,,,,,,,,,,,,,,,,,,,,,,,,,,,,,,,,,,,,,,,,,,,,,,,,,,,,,,,,
,,,,,,,,,,00001537187,2020-10-17_14h18.36.855,swahili,2020.2.4,MacIntel,60,,,,,,,,,,,,,,,,,,,,,,,,,,,,,,,,,,,,,,,,,,,,,4,0,4,0,1,,,,,,,,,,,,,,,,,,,,,,,,,,,,,,,,,,,,,,,,,,,,,,,,,,,,,
,,,,,,,,,,00001537187,2020-10-17_14h18.36.855,swahili,2020.2.4,MacIntel,60,,,,,,,,,,-0.229909939,-0.113967014,1,0,0,1.03996,unsorted_card,0,0,0,0,1,,,,,,,,,,,,,,,,,,,,,,,,,,,,,,,,,,,,,,,,,,,,,,,,,,,,,,,,,,,,,,,,,,,,,,,,,,,,,,,,,
,,,,,,,,,,00001537187,2020-10-17_14h18.36.855,swahili,2020.2.4,MacIntel,60,,,,,,,,,,0.530300564,-0.464175347,1,0,0,1.498905,done_pile,1,0,1,0,1,MERCHANT - TAJIRI,,,,,,,,,,,,,,,,,,,,,,,,,,,,,,,,,,,,,,,,,,,,,,,,,,,,,,,,,,,,,,,,,,,,,,,,,,,,,,,,
,,,,,,,,,,00001537187,2020-10-17_14h18.36.855,swahili,2020.2.4,MacIntel,60,,,,,,,,,,-0.116932509,0.016328125,1,0,0,0.6667,unsorted_card,2,0,2,0,1,,,,,,,,,,,,,,,,,,,,,,,,,,,,,,,,,,,,,,,,,,,,,,,,,,,,,,,,,,,,,,,,,,,,,,,,,,,,,,,,,
,,,,,,,,,,00001537187,2020-10-17_14h18.36.855,swahili,2020.2.4,MacIntel,60,,,,,,,,,,0.346853299,-0.452361111,1,0,0,1.56445,done_pile,3,0,3,0,1,PARROT - KASUKU,,,,,,,,,,,,,,,,,,,,,,,,,,,,,,,,,,,,,,,,,,,,,,,,,,,,,,,,,,,,,,,,,,,,,,,,,,,,,,,,
,,,,,,,,,,00001537187,2020-10-17_14h18.36.855,swahili,2020.2.4,MacIntel,60,,,,,,,,,,-0.196636285,-0.03578125,1,0,0,0.565645,unsorted_card,4,0,4,0,1,,,,,,,,,,,,,,,,,,,,,,,,,,,,,,,,,,,,,,,,,,,,,,,,,,,,,,,,,,,,,,,,,,,,,,,,,,,,,,,,,
,,,,,,,,,,00001537187,2020-10-17_14h18.36.855,swahili,2020.2.4,MacIntel,60,,,,,,,,,,0.460346137,0.378125,1,0,0,2.800925,study_pile,5,0,5,0,1,BULL - FAHILI,,,,,,,,,,,,,,,,,,,,,,,,,,,,,,,,,,,,,,,,,,,,,,,,,,,,,,,,,,,,,,,,,,,,,,,,,,,,,,,,
,,,,,,,,,,00001537187,2020-10-17_14h18.36.855,swahili,2020.2.4,MacIntel,60,,,,,,,,,,-0.263823785,-0.133862847,1,0,0,0.5816,unsorted_card,6,0,6,0,1,,,,,,,,,,,,,,,,,,,,,,,,,,,,,,,,,,,,,,,,,,,,,,,,,,,,,,,,,,,,,,,,,,,,,,,,,,,,,,,,,
,,,,,,,,,,00001537187,2020-10-17_14h18.36.855,swahili,2020.2.4,MacIntel,60,,,,,,,,,,0.424338108,-0.044670139,1,0,0,1.665455,test_pile,7,0,7,0,1,PLATE - SAHANI,,,,,,,,,,,,,,,,,,,,,,,,,,,,,,,,,,,,,,,,,,,,,,,,,,,,,,,,,,,,,,,,,,,,,,,,,,,,,,,,
,,,,,,,,,,00001537187,2020-10-17_14h18.36.855,swahili,2020.2.4,MacIntel,60,,,,,,,,,,-0.215711806,0.058958333,1,0,0,0.66574,unsorted_card,8,0,8,0,1,,,,,,,,,,,,,,,,,,,,,,,,,,,,,,,,,,,,,,,,,,,,,,,,,,,,,,,,,,,,,,,,,,,,,,,,,,,,,,,,,
,,,,,,,,,,00001537187,2020-10-17_14h18.36.855,swahili,2020.2.4,MacIntel,60,,,,,,,,,,0.363178168,0.012074653,1,0,0,4.165,test_pile,9,0,9,0,1,YEAST - HAMIRA,,,,,,,,,,,,,,,,,,,,,,,,,,,,,,,,,,,,,,,,,,,,,,,,,,,,,,,,,,,,,,,,,,,,,,,,,,,,,,,,
,,,,,,,,,,00001537187,2020-10-17_14h18.36.855,swahili,2020.2.4,MacIntel,60,,,,,,,,,,-0.177897135,0.001128472,1,0,0,0.615625,unsorted_card,10,0,10,0,1,,,,,,,,,,,,,,,,,,,,,,,,,,,,,,,,,,,,,,,,,,,,,,,,,,,,,,,,,,,,,,,,,,,,,,,,,,,,,,,,,
,,,,,,,,,,00001537187,2020-10-17_14h18.36.855,swahili,2020.2.4,MacIntel,60,,,,,,,,,,0.465945095,-0.531215278,1,0,0,0.848665,done_pile,11,0,11,0,1,BLAME - LAWAMA,,,,,,,,,,,,,,,,,,,,,,,,,,,,,,,,,,,,,,,,,,,,,,,,,,,,,,,,,,,,,,,,,,,,,,,,,,,,,,,,
,,,,,,,,,,00001537187,2020-10-17_14h18.36.855,swahili,2020.2.4,MacIntel,60,,,,,,,,,,-0.083344184,-0.028411458,1,0,0,0.732795,unsorted_card,12,0,12,0,1,,,,,,,,,,,,,,,,,,,,,,,,,,,,,,,,,,,,,,,,,,,,,,,,,,,,,,,,,,,,,,,,,,,,,,,,,,,,,,,,,
,,,,,,,,,,00001537187,2020-10-17_14h18.36.855,swahili,2020.2.4,MacIntel,60,,,,,,,,,,0.32702908,-0.394184028,1,0,0,1.34702,done_pile,13,0,13,0,1,OATH - YAMINI,,,,,,,,,,,,,,,,,,,,,,,,,,,,,,,,,,,,,,,,,,,,,,,,,,,,,,,,,,,,,,,,,,,,,,,,,,,,,,,,
,,,,,,,,,,00001537187,2020-10-17_14h18.36.855,swahili,2020.2.4,MacIntel,60,,,,,,,,,,-0.25352105,-0.045538194,1,0,0,0.515735,unsorted_card,14,0,14,0,1,,,,,,,,,,,,,,,,,,,,,,,,,,,,,,,,,,,,,,,,,,,,,,,,,,,,,,,,,,,,,,,,,,,,,,,,,,,,,,,,,
,,,,,,,,,,00001537187,2020-10-17_14h18.36.855,swahili,2020.2.4,MacIntel,60,,,,,,,,,,0.391807726,-0.461779514,1,0,0,1.747455,done_pile,15,0,15,0,1,CORN - NAFAKA,,,,,,,,,,,,,,,,,,,,,,,,,,,,,,,,,,,,,,,,,,,,,,,,,,,,,,,,,,,,,,,,,,,,,,,,,,,,,,,,
,,,,,,,,,,00001537187,2020-10-17_14h18.36.855,swahili,2020.2.4,MacIntel,60,,,,,,,,,,-0.214984809,0.039409722,1,0,0,0.549325,unsorted_card,16,0,16,0,1,,,,,,,,,,,,,,,,,,,,,,,,,,,,,,,,,,,,,,,,,,,,,,,,,,,,,,,,,,,,,,,,,,,,,,,,,,,,,,,,,
,,,,,,,,,,00001537187,2020-10-17_14h18.36.855,swahili,2020.2.4,MacIntel,60,,,,,,,,,,0.470675998,-0.047638889,1,0,0,1.98241,test_pile,17,0,17,0,1,POEM - UTENZI,,,,,,,,,,,,,,,,,,,,,,,,,,,,,,,,,,,,,,,,,,,,,,,,,,,,,,,,,,,,,,,,,,,,,,,,,,,,,,,,
,,,,,,,,,,00001537187,2020-10-17_14h18.36.855,swahili,2020.2.4,MacIntel,60,,,,,,,,,,-0.319704861,-0.011111111,1,0,0,0.483135,unsorted_card,18,0,18,0,1,,,,,,,,,,,,,,,,,,,,,,,,,,,,,,,,,,,,,,,,,,,,,,,,,,,,,,,,,,,,,,,,,,,,,,,,,,,,,,,,,
,,,,,,,,,,00001537187,2020-10-17_14h18.36.855,swahili,2020.2.4,MacIntel,60,,,,,,,,,,0.444276259,-0.065694444,1,0,0,1.399225,test_pile,19,0,19,0,1,TAILOR - MSHONI,,,,,,,,,,,,,,,,,,,,,,,,,,,,,,,,,,,,,,,,,,,,,,,,,,,,,,,,,,,,,,,,,,,,,,,,,,,,,,,,
,,,,,,,,,,00001537187,2020-10-17_14h18.36.855,swahili,2020.2.4,MacIntel,60,,,,,,,,,,-0.204638672,-0.061961806,1,0,0,0.59732,unsorted_card,20,0,20,0,1,,,,,,,,,,,,,,,,,,,,,,,,,,,,,,,,,,,,,,,,,,,,,,,,,,,,,,,,,,,,,,,,,,,,,,,,,,,,,,,,,
,,,,,,,,,,00001537187,2020-10-17_14h18.36.855,swahili,2020.2.4,MacIntel,60,,,,,,,,,,0.422705078,-0.098793403,1,0,0,1.149835,test_pile,21,0,21,0,1,CHEESE - JIBINI,,,,,,,,,,,,,,,,,,,,,,,,,,,,,,,,,,,,,,,,,,,,,,,,,,,,,,,,,,,,,,,,,,,,,,,,,,,,,,,,
,,,,,,,,,,00001537187,2020-10-17_14h18.36.855,swahili,2020.2.4,MacIntel,60,,,,,,,,,,-0.278450521,-0.075277778,1,0,0,0.44639,unsorted_card,22,0,22,0,1,,,,,,,,,,,,,,,,,,,,,,,,,,,,,,,,,,,,,,,,,,,,,,,,,,,,,,,,,,,,,,,,,,,,,,,,,,,,,,,,,
,,,,,,,,,,00001537187,2020-10-17_14h18.36.855,swahili,2020.2.4,MacIntel,60,,,,,,,,,,0.454899089,-0.4478125,1,0,0,1.36571,done_pile,23,0,23,0,1,GRAPES - ZABIBU,,,,,,,,,,,,,,,,,,,,,,,,,,,,,,,,,,,,,,,,,,,,,,,,,,,,,,,,,,,,,,,,,,,,,,,,,,,,,,,,
,,,,,,,,,,00001537187,2020-10-17_14h18.36.855,swahili,2020.2.4,MacIntel,60,,,,,,,,,,-0.197715929,0.113237847,1,0,0,0.76503,unsorted_card,24,0,24,0,1,,,,,,,,,,,,,,,,,,,,,,,,,,,,,,,,,,,,,,,,,,,,,,,,,,,,,,,,,,,,,,,,,,,,,,,,,,,,,,,,,
,,,,,,,,,,00001537187,2020-10-17_14h18.36.855,swahili,2020.2.4,MacIntel,60,,,,,,,,,,0.524446615,-0.001397569,1,0,0,1.91701,test_pile,25,0,25,0,1,GRAVE - KABURI,,,,,,,,,,,,,,,,,,,,,,,,,,,,,,,,,,,,,,,,,,,,,,,,,,,,,,,,,,,,,,,,,,,,,,,,,,,,,,,,
,,,,,,,,,,00001537187,2020-10-17_14h18.36.855,swahili,2020.2.4,MacIntel,60,,,,,,,,,,-0.238872613,-0.022612847,1,0,0,0.51488,unsorted_card,26,0,26,0,1,,,,,,,,,,,,,,,,,,,,,,,,,,,,,,,,,,,,,,,,,,,,,,,,,,,,,,,,,,,,,,,,,,,,,,,,,,,,,,,,,
,,,,,,,,,,00001537187,2020-10-17_14h18.36.855,swahili,2020.2.4,MacIntel,60,,,,,,,,,,0.423513455,0.540043403,1,0,0,2.733415,study_pile,27,0,27,0,1,MANURE - SAMADI,,,,,,,,,,,,,,,,,,,,,,,,,,,,,,,,,,,,,,,,,,,,,,,,,,,,,,,,,,,,,,,,,,,,,,,,,,,,,,,,
,,,,,,,,,,00001537187,2020-10-17_14h18.36.855,swahili,2020.2.4,MacIntel,60,,,,,,,,,,-0.272916667,0.032361111,1,0,0,0.49744,unsorted_card,28,0,28,0,1,,,,,,,,,,,,,,,,,,,,,,,,,,,,,,,,,,,,,,,,,,,,,,,,,,,,,,,,,,,,,,,,,,,,,,,,,,,,,,,,,
,,,,,,,,,,00001537187,2020-10-17_14h18.36.855,swahili,2020.2.4,MacIntel,60,,,,,,,,,,0.411973741,-0.417039931,1,0,0,3.950235,done_pile,29,0,29,0,1,AGENT - WAKILI,,,,,,,,,,,,,,,,,,,,,,,,,,,,,,,,,,,,,,,,,,,,,,,,,,,,,,,,,,,,,,,,,,,,,,,,,,,,,,,,
,,,,,,,,,,00001537187,2020-10-17_14h18.36.855,swahili,2020.2.4,MacIntel,60,,,,,,,,,,-0.167909071,-0.119027778,1,0,0,2.114385,unsorted_card,30,0,30,0,1,,,,,,,,,,,,,,,,,,,,,,,,,,,,,,,,,,,,,,,,,,,,,,,,,,,,,,,,,,,,,,,,,,,,,,,,,,,,,,,,,
,,,,,,,,,,00001537187,2020-10-17_14h18.36.855,swahili,2020.2.4,MacIntel,60,,,,,,,,,,0.405224609,-0.440425347,1,0,0,3.281175,done_pile,31,0,31,0,1,BRIBE - RUSHWA,,,,,,,,,,,,,,,,,,,,,,,,,,,,,,,,,,,,,,,,,,,,,,,,,,,,,,,,,,,,,,,,,,,,,,,,,,,,,,,,
,,,,,,,,,,00001537187,2020-10-17_14h18.36.855,swahili,2020.2.4,MacIntel,60,,,,,,,,,,-0.303141276,0.070182292,1,0,0,0.731375,unsorted_card,32,0,32,0,1,,,,,,,,,,,,,,,,,,,,,,,,,,,,,,,,,,,,,,,,,,,,,,,,,,,,,,,,,,,,,,,,,,,,,,,,,,,,,,,,,
,,,,,,,,,,00001537187,2020-10-17_14h18.36.855,swahili,2020.2.4,MacIntel,60,,,,,,,,,,0.311187066,-0.430086806,1,0,0,1.114735,done_pile,33,0,33,0,1,ORPHAN - YATIMA,,,,,,,,,,,,,,,,,,,,,,,,,,,,,,,,,,,,,,,,,,,,,,,,,,,,,,,,,,,,,,,,,,,,,,,,,,,,,,,,
,,,,,,,,,,00001537187,2020-10-17_14h18.36.855,swahili,2020.2.4,MacIntel,60,,,,,,,,,,-0.256000434,0.014939236,1,0,0,0.50074,unsorted_card,34,0,34,0,1,,,,,,,,,,,,,,,,,,,,,,,,,,,,,,,,,,,,,,,,,,,,,,,,,,,,,,,,,,,,,,,,,,,,,,,,,,,,,,,,,
,,,,,,,,,,00001537187,2020-10-17_14h18.36.855,swahili,2020.2.4,MacIntel,60,,,,,,,,,,0.384695095,-0.468802083,1,0,0,1.11596,done_pile,35,0,35,0,1,DIVORCE - TALAKA,,,,,,,,,,,,,,,,,,,,,,,,,,,,,,,,,,,,,,,,,,,,,,,,,,,,,,,,,,,,,,,,,,,,,,,,,,,,,,,,
,,,,,,,,,,00001537187,2020-10-17_14h18.36.855,swahili,2020.2.4,MacIntel,60,,,,,,,,,,-0.22835829,-0.065529514,1,0,0,0.63215,unsorted_card,36,0,36,0,1,,,,,,,,,,,,,,,,,,,,,,,,,,,,,,,,,,,,,,,,,,,,,,,,,,,,,,,,,,,,,,,,,,,,,,,,,,,,,,,,,
,,,,,,,,,,00001537187,2020-10-17_14h18.36.855,swahili,2020.2.4,MacIntel,60,,,,,,,,,,0.487489149,0.563862847,1,0,0,1.76611,study_pile,37,0,37,0,1,BOAT - MASHUA,,,,,,,,,,,,,,,,,,,,,,,,,,,,,,,,,,,,,,,,,,,,,,,,,,,,,,,,,,,,,,,,,,,,,,,,,,,,,,,,
,,,,,,,,,,00001537187,2020-10-17_14h18.36.855,swahili,2020.2.4,MacIntel,60,,,,,,,,,,-0.192247179,0.116345486,1,0,0,0.597975,unsorted_card,38,0,38,0,1,,,,,,,,,,,,,,,,,,,,,,,,,,,,,,,,,,,,,,,,,,,,,,,,,,,,,,,,,,,,,,,,,,,,,,,,,,,,,,,,,
,,,,,,,,,,00001537187,2020-10-17_14h18.36.855,swahili,2020.2.4,MacIntel,60,,,,,,,,,,0.572862413,-0.550598958,1,0,0,1.51663,done_pile,39,0,39,0,1,TREASURE - DAFINA,,,,,,,,,,,,,,,,,,,,,,,,,,,,,,,,,,,,,,,,,,,,,,,,,,,,,,,,,,,,,,,,,,,,,,,,,,,,,,,,
,,,,,,,,,,00001537187,2020-10-17_14h18.36.855,swahili,2020.2.4,MacIntel,60,,,,,,,,,,,,,,,,,,,,,,,0.571207682,-0.047022569,1,0,0,1.165905,test_first,,,,,0,0,0,0,1,,,,,,,,,,,,,,,,,,,,,,,,,,,,,,,,,,,,,,,,,,,,,,,,,,,,,,,,,,,,,,,,
,,,,,,,,,,00001537187,2020-10-17_14h18.36.855,swahili,2020.2.4,MacIntel,60,,,,,,,,,,,,,,,,,,,,,,,,,,,,,,,,,,,,,,,return,,,,,,,,,,,9.5136,4.297115,0.3296875,4.3428E-05,1,0,0,0.9,yes,GRAVE,KABURI,incorrect,0,0,0,0,1,,,,,,,,,,,,,,,,,,,,,,,,,,,,,,,,,,,,
,,,,,,,,,,00001537187,2020-10-17_14h18.36.855,swahili,2020.2.4,MacIntel,60,,,,,,,,,,,,,,,,,,,,,,,,,,,,,,,,,,,,,,,,,,,,,,,,,,,3.14862,0.324869792,-0.12734375,1,0,0,0.648655,yes,CHEESE,JIBINI,incorrect,1,0,1,0,1,,,,,,,,,,,,,,,,,,,,,,,,,,,,,,,,,,,,
,,,,,,,,,,00001537187,2020-10-17_14h18.36.855,swahili,2020.2.4,MacIntel,60,,,,,,,,,,,,,,,,,,,,,,,,,,,,,,,,,,,,,,,,,,,,,,,,,,,3.08117,0.342567274,-0.114973958,1,0,0,0.549455,yes,POEM,UTENZI,incorrect,2,0,2,0,1,,,,,,,,,,,,,,,,,,,,,,,,,,,,,,,,,,,,
,,,,,,,,,,00001537187,2020-10-17_14h18.36.855,swahili,2020.2.4,MacIntel,60,,,,,,,,,,,,,,,,,,,,,,,,,,,,,,,,,,,,,,,,,,,,,,,,,,,2.531585,0.426226128,-0.060703125,1,0,0,0.600645,yes,TAILOR,MSHONI,incorrect,3,0,3,0,1,,,,,,,,,,,,,,,,,,,,,,,,,,,,,,,,,,,,
,,,,,,,,,,00001537187,2020-10-17_14h18.36.855,swahili,2020.2.4,MacIntel,60,,,,,,,,,,,,,,,,,,,,,,,,,,,,,,,,,,,,,,,,,,,,,,,,,,,11.597745,0.33304579,-0.037413194,1,0,0,0.49862,yes,PLATE,SAHANI,incorrect,4,0,4,0,1,,,,,,,,,,,,,,,,,,,,,,,,,,,,,,,,,,,,
,,,,,,,,,,00001537187,2020-10-17_14h18.36.855,swahili,2020.2.4,MacIntel,60,,,,,,,,,,,,,,,,,,,,,,,,,,,,,,,,,,,,,,,,,,,,,,,,,,,14.74668,0.352197266,0.058984375,1,0,0,0.666845,yes,YEAST,HASHIRA,incorrect,5,0,5,0,1,,,,,,,,,,,,,,,,,,,,,,,,,,,,,,,,,,,,
,,,,,,,,,,00001537187,2020-10-17_14h18.36.855,swahili,2020.2.4,MacIntel,60,,,,,,,,,,,,,,,,,,,,,,,,,,,,,,,,,,,,,,,,0,0,0,0,1,,,,,,,,,,,,,,,,,,,,,,,,,,,,,,,,,,,,,,,,,,,,,,,,,,,,,,,,,,
,,,,,,,,,,00001537187,2020-10-17_14h18.36.855,swahili,2020.2.4,MacIntel,60,,,,,,,,,,,,,,,,,,,,,,BOAT - MASHUA,,,,,,,,return,0.016435,return,40.233,0,0,0,0,1,,,,,,,,,,,,,,,,,,,,,,,,,,,,,,,,,,,,,,,,,,,,,,,,,,,,,,,,,,,,,,,,
,,,,,,,,,,00001537187,2020-10-17_14h18.36.855,swahili,2020.2.4,MacIntel,60,,,,,,,,,,,,,,,,,,,,,,MANURE - SAMADI,,,,,,,,,,return,0.96583,1,0,1,0,1,,,,,,,,,,,,,,,,,,,,,,,,,,,,,,,,,,,,,,,,,,,,,,,,,,,,,,,,,,,,,,,,
,,,,,,,,,,00001537187,2020-10-17_14h18.36.855,swahili,2020.2.4,MacIntel,60,,,,,,,,,,,,,,,,,,,,,,BULL - FAHILI,,,,,,,,,,return,0.53634,2,0,2,0,1,,,,,,,,,,,,,,,,,,,,,,,,,,,,,,,,,,,,,,,,,,,,,,,,,,,,,,,,,,,,,,,,
,,,,,,,,,,00001537187,2020-10-17_14h18.36.855,swahili,2020.2.4,MacIntel,60,,,,,,,,,,,,,,,,,,,,,,,,,,,,,,,,,,,,,,,,1,0,1,0,1,,,,,,,,,,,,,,,,,,,,,,,,,,,,,,,,,,,,,,,,,,,,,,,,,,,,,,,,,,
,,,,,,,,,,00001537187,2020-10-17_14h18.36.855,swahili,2020.2.4,MacIntel,60,,,,,,,,,,,,,,,,,,,,,,,,,,,,,,,,,,,,,,,,,,,,,5,0,5,0,1,,,,,,,,,,,,,,,,,,,,,,,,,,,,,,,,,,,,,,,,,,,,,,,,,,,,,
,,,,,,,,,,00001537187,2020-10-17_14h18.36.855,swahili,2020.2.4,MacIntel,60,,,,,,,,,,-0.182628038,-0.028506944,1,0,0,1.6409,unsorted_card,0,0,0,0,1,,,,,,,,,,,,,,,,,,,,,,,,,,,,,,,,,,,,,,,,,,,,,,,,,,,,,,,,,,,,,,,,,,,,,,,,,,,,,,,,,
,,,,,,,,,,00001537187,2020-10-17_14h18.36.855,swahili,2020.2.4,MacIntel,60,,,,,,,,,,0.346310764,0.038967014,1,0,0,4.331085,test_pile,1,0,1,0,1,BULL - FAHILI,,,,,,,,,,,,,,,,,,,,,,,,,,,,,,,,,,,,,,,,,,,,,,,,,,,,,,,,,,,,,,,,,,,,,,,,,,,,,,,,
,,,,,,,,,,00001537187,2020-10-17_14h18.36.855,swahili,2020.2.4,MacIntel,60,,,,,,,,,,-0.141384549,0.008559028,1,0,0,0.59971,unsorted_card,2,0,2,0,1,,,,,,,,,,,,,,,,,,,,,,,,,,,,,,,,,,,,,,,,,,,,,,,,,,,,,,,,,,,,,,,,,,,,,,,,,,,,,,,,,
,,,,,,,,,,00001537187,2020-10-17_14h18.36.855,swahili,2020.2.4,MacIntel,60,,,,,,,,,,0.412787543,-0.013567708,1,0,0,2.265955,test_pile,3,0,3,0,1,PLATE - SAHANI,,,,,,,,,,,,,,,,,,,,,,,,,,,,,,,,,,,,,,,,,,,,,,,,,,,,,,,,,,,,,,,,,,,,,,,,,,,,,,,,
,,,,,,,,,,00001537187,2020-10-17_14h18.36.855,swahili,2020.2.4,MacIntel,60,,,,,,,,,,-0.240852865,0.019809028,1,0,0,0.497605,unsorted_card,4,0,4,0,1,,,,,,,,,,,,,,,,,,,,,,,,,,,,,,,,,,,,,,,,,,,,,,,,,,,,,,,,,,,,,,,,,,,,,,,,,,,,,,,,,
,,,,,,,,,,00001537187,2020-10-17_14h18.36.855,swahili,2020.2.4,MacIntel,60,,,,,,,,,,0.369026693,-0.022118056,1,0,0,1.79954,test_pile,5,0,5,0,1,YEAST - HAMIRA,,,,,,,,,,,,,,,,,,,,,,,,,,,,,,,,,,,,,,,,,,,,,,,,,,,,,,,,,,,,,,,,,,,,,,,,,,,,,,,,
,,,,,,,,,,00001537187,2020-10-17_14h18.36.855,swahili,2020.2.4,MacIntel,60,,,,,,,,,,-0.155973307,-0.011909722,1,0,0,0.683925,unsorted_card,6,0,6,0,1,,,,,,,,,,,,,,,,,,,,,,,,,,,,,,,,,,,,,,,,,,,,,,,,,,,,,,,,,,,,,,,,,,,,,,,,,,,,,,,,,
,,,,,,,,,,00001537187,2020-10-17_14h18.36.855,swahili,2020.2.4,MacIntel,60,,,,,,,,,,0.418294271,-0.594001736,1,0,0,1.349395,done_pile,7,0,7,0,1,POEM - UTENZI,,,,,,,,,,,,,,,,,,,,,,,,,,,,,,,,,,,,,,,,,,,,,,,,,,,,,,,,,,,,,,,,,,,,,,,,,,,,,,,,
,,,,,,,,,,00001537187,2020-10-17_14h18.36.855,swahili,2020.2.4,MacIntel,60,,,,,,,,,,-0.193956163,-0.012282986,1,0,0,0.66546,unsorted_card,8,0,8,0,1,,,,,,,,,,,,,,,,,,,,,,,,,,,,,,,,,,,,,,,,,,,,,,,,,,,,,,,,,,,,,,,,,,,,,,,,,,,,,,,,,
,,,,,,,,,,00001537187,2020-10-17_14h18.36.855,swahili,2020.2.4,MacIntel,60,,,,,,,,,,0.444704861,-0.415538194,1,0,0,1.21482,done_pile,9,0,9,0,1,TAILOR - MSHONI,,,,,,,,,,,,,,,,,,,,,,,,,,,,,,,,,,,,,,,,,,,,,,,,,,,,,,,,,,,,,,,,,,,,,,,,,,,,,,,,
,,,,,,,,,,00001537187,2020-10-17_14h18.36.855,swahili,2020.2.4,MacIntel,60,,,,,,,,,,-0.286827257,-0.054184028,1,0,0,0.60029,unsorted_card,10,0,10,0,1,,,,,,,,,,,,,,,,,,,,,,,,,,,,,,,,,,,,,,,,,,,,,,,,,,,,,,,,,,,,,,,,,,,,,,,,,,,,,,,,,
,,,,,,,,,,00001537187,2020-10-17_14h18.36.855,swahili,2020.2.4,MacIntel,60,,,,,,,,,,0.412684462,-0.466397569,1,0,0,2.215765,done_pile,11,0,11,0,1,CHEESE - JIBINI,,,,,,,,,,,,,,,,,,,,,,,,,,,,,,,,,,,,,,,,,,,,,,,,,,,,,,,,,,,,,,,,,,,,,,,,,,,,,,,,
,,,,,,,,,,00001537187,2020-10-17_14h18.36.855,swahili,2020.2.4,MacIntel,60,,,,,,,,,,-0.205333116,-0.049947917,1,0,0,0.63144,unsorted_card,12,0,12,0,1,,,,,,,,,,,,,,,,,,,,,,,,,,,,,,,,,,,,,,,,,,,,,,,,,,,,,,,,,,,,,,,,,,,,,,,,,,,,,,,,,
,,,,,,,,,,00001537187,2020-10-17_14h18.36.855,swahili,2020.2.4,MacIntel,60,,,,,,,,,,0.486810981,-0.078619792,1,0,0,7.4173,test_pile,13,0,13,0,1,GRAVE - KABURI,,,,,,,,,,,,,,,,,,,,,,,,,,,,,,,,,,,,,,,,,,,,,,,,,,,,,,,,,,,,,,,,,,,,,,,,,,,,,,,,
,,,,,,,,,,00001537187,2020-10-17_14h18.36.855,swahili,2020.2.4,MacIntel,60,,,,,,,,,,-0.024924045,-0.101692708,1,0,0,0.530355,unsorted_card,14,0,14,0,1,,,,,,,,,,,,,,,,,,,,,,,,,,,,,,,,,,,,,,,,,,,,,,,,,,,,,,,,,,,,,,,,,,,,,,,,,,,,,,,,,
,,,,,,,,,,00001537187,2020-10-17_14h18.36.855,swahili,2020.2.4,MacIntel,60,,,,,,,,,,0.433973524,-0.062630208,1,0,0,1.67965,test_pile,15,0,15,0,1,MANURE - SAMADI,,,,,,,,,,,,,,,,,,,,,,,,,,,,,,,,,,,,,,,,,,,,,,,,,,,,,,,,,,,,,,,,,,,,,,,,,,,,,,,,
,,,,,,,,,,00001537187,2020-10-17_14h18.36.855,swahili,2020.2.4,MacIntel,60,,,,,,,,,,-0.287087674,-0.101414931,1,0,0,0.849835,unsorted_card,16,0,16,0,1,,,,,,,,,,,,,,,,,,,,,,,,,,,,,,,,,,,,,,,,,,,,,,,,,,,,,,,,,,,,,,,,,,,,,,,,,,,,,,,,,
,,,,,,,,,,00001537187,2020-10-17_14h18.36.855,swahili,2020.2.4,MacIntel,60,,,,,,,,,,0.473866102,0.013428819,1,0,0,3.01552,test_pile,17,0,17,0,1,BOAT - MASHUA,,,,,,,,,,,,,,,,,,,,,,,,,,,,,,,,,,,,,,,,,,,,,,,,,,,,,,,,,,,,,,,,,,,,,,,,,,,,,,,,
,,,,,,,,,,00001537187,2020-10-17_14h18.36.855,swahili,2020.2.4,MacIntel,60,,,,,,,,,,,,,,,,,,,,,,,,,,,,,,,,,,0,0,0,0,1,,,,,,,,,,,,,,,,,,,,,,,,,,,,,,,,,,,,,,,,,,,,,,,,,,,,,,,,,,,,,,,,
,,,,,,,,,,00001537187,2020-10-17_14h18.36.855,swahili,2020.2.4,MacIntel,60,,,,,,,,,,,,,,,,,,,,,,,,,,,,,,,,,,,,,,,return,,,,,,,,,,,0.830305,2.530655,0.280946181,-0.146545139,1,0,0,0.633525,yes,YEAST,HAMIRA,incorrect,0,0,0,0,1,,,,,,,,,,,,,,,,,,,,,,,,,,,,,,,,,,,,
,,,,,,,,,,00001537187,2020-10-17_14h18.36.855,swahili,2020.2.4,MacIntel,60,,,,,,,,,,,,,,,,,,,,,,,,,,,,,,,,,,,,,,,,,,,,,,,,,,,6.179015,0.349490017,-0.114210069,1,0,0,0.750155,yes,PLATE,SAHAMI,incorrect,1,0,1,0,1,,,,,,,,,,,,,,,,,,,,,,,,,,,,,,,,,,,,
,,,,,,,,,,00001537187,2020-10-17_14h18.36.855,swahili,2020.2.4,MacIntel,60,,,,,,,,,,,,,,,,,,,,,,,,,,,,,,,,,,,,,,,,,,,,,,,,,,,3.99759,0.324359809,-0.119001736,1,0,0,0.698765,yes,BOAT,MASHUA,incorrect,2,0,2,0,1,,,,,,,,,,,,,,,,,,,,,,,,,,,,,,,,,,,,
,,,,,,,,,,00001537187,2020-10-17_14h18.36.855,swahili,2020.2.4,MacIntel,60,,,,,,,,,,,,,,,,,,,,,,,,,,,,,,,,,,,,,,,,,,,,,,,,,,,3.116025,0.329682075,-0.158871528,1,0,0,0.732125,yes,MANURE,SAMADI,incorrect,3,0,3,0,1,,,,,,,,,,,,,,,,,,,,,,,,,,,,,,,,,,,,
,,,,,,,,,,00001537187,2020-10-17_14h18.36.855,swahili,2020.2.4,MacIntel,60,,,,,,,,,,,,,,,,,,,,,,,,,,,,,,,,,,,,,,,,,,,,,,,,,,,7.89731,0.374777561,-0.119904514,1,0,0,0.583275,yes,GRAVE,KABURI,incorrect,4,0,4,0,1,,,,,,,,,,,,,,,,,,,,,,,,,,,,,,,,,,,,
,,,,,,,,,,00001537187,2020-10-17_14h18.36.855,swahili,2020.2.4,MacIntel,60,,,,,,,,,,,,,,,,,,,,,,,,,,,,,,,,,,,,,,,,,,,,,,,,,,,4.66406,0.38148329,-0.020954861,1,0,0,0.600725,yes,BULL,FAHILI,incorrect,5,0,5,0,1,,,,,,,,,,,,,,,,,,,,,,,,,,,,,,,,,,,,
,,,,,,,,,,00001537187,2020-10-17_14h18.36.855,swahili,2020.2.4,MacIntel,60,,,,,,,,,,,,,,,,,,,,,,,,,,,,,,,,,,,,,,,,0,0,0,0,1,,,,,,,,,,,,,,,,,,,,,,,,,,,,,,,,,,,,,,,,,,,,,,,,,,,,,,,,,,
,,,,,,,,,,00001537187,2020-10-17_14h18.36.855,swahili,2020.2.4,MacIntel,60,,,,,,,,,,,,,,,,,,,,,,,,,,,,,,,,,,,,,,,,1,0,1,0,1,,,,,,,,,,,,,,,,,,,,,,,,,,,,,,,,,,,,,,,,,,,,,,,,,,,,,,,,,,
,,,,,,,,,,00001537187,2020-10-17_14h18.36.855,swahili,2020.2.4,MacIntel,60,,,,,,,,,,,,,,,,,,,,,,,,,,,,,,,,,,,,,,,,,,,,,6,0,6,0,1,,,,,,,,,,,,,,,,,,,,,,,,,,,,,,,,,,,,,,,,,,,,,,,,,,,,,
,,,,,,,,,,00001537187,2020-10-17_14h18.36.855,swahili,2020.2.4,MacIntel,60,,,,,,,,,,-0.213237847,-0.182578125,1,0,0,1.239105,unsorted_card,0,0,0,0,1,,,,,,,,,,,,,,,,,,,,,,,,,,,,,,,,,,,,,,,,,,,,,,,,,,,,,,,,,,,,,,,,,,,,,,,,,,,,,,,,,
,,,,,,,,,,00001537187,2020-10-17_14h18.36.855,swahili,2020.2.4,MacIntel,60,,,,,,,,,,0.386865234,-0.098967014,1,0,0,1.234315,test_pile,1,0,1,0,1,BULL - FAHILI,,,,,,,,,,,,,,,,,,,,,,,,,,,,,,,,,,,,,,,,,,,,,,,,,,,,,,,,,,,,,,,,,,,,,,,,,,,,,,,,
,,,,,,,,,,00001537187,2020-10-17_14h18.36.855,swahili,2020.2.4,MacIntel,60,,,,,,,,,,-0.229741753,-0.096458333,1,0,0,0.44825,unsorted_card,2,0,2,0,1,,,,,,,,,,,,,,,,,,,,,,,,,,,,,,,,,,,,,,,,,,,,,,,,,,,,,,,,,,,,,,,,,,,,,,,,,,,,,,,,,
,,,,,,,,,,00001537187,2020-10-17_14h18.36.855,swahili,2020.2.4,MacIntel,60,,,,,,,,,,0.440370009,-0.041267361,1,0,0,1.73166,test_pile,3,0,3,0,1,PLATE - SAHANI,,,,,,,,,,,,,,,,,,,,,,,,,,,,,,,,,,,,,,,,,,,,,,,,,,,,,,,,,,,,,,,,,,,,,,,,,,,,,,,,
,,,,,,,,,,00001537187,2020-10-17_14h18.36.855,swahili,2020.2.4,MacIntel,60,,,,,,,,,,-0.234353299,-0.077994792,1,0,0,0.631675,unsorted_card,4,0,4,0,1,,,,,,,,,,,,,,,,,,,,,,,,,,,,,,,,,,,,,,,,,,,,,,,,,,,,,,,,,,,,,,,,,,,,,,,,,,,,,,,,,
,,,,,,,,,,00001537187,2020-10-17_14h18.36.855,swahili,2020.2.4,MacIntel,60,,,,,,,,,,0.438406033,-0.05015625,1,0,0,0.832405,test_pile,5,0,5,0,1,YEAST - HAMIRA,,,,,,,,,,,,,,,,,,,,,,,,,,,,,,,,,,,,,,,,,,,,,,,,,,,,,,,,,,,,,,,,,,,,,,,,,,,,,,,,
