condition,consent_key.keys,consent_key.rt,done_with_instructions.keys,done_with_instructions.rt,instr_loop.thisRepN,instr_loop.thisTrialN,instr_loop.thisN,instr_loop.thisIndex,instr_loop.ran,Student ID #,date,expName,psychopyVersion,OS,frameRate,instr_learning_key.keys,instr_learning_key.rt,card_gen_loop.thisRepN,card_gen_loop.thisTrialN,card_gen_loop.thisN,card_gen_loop.thisIndex,card_gen_loop.ran,swa,eng,choose_pile.x,choose_pile.y,choose_pile.leftButton,choose_pile.midButton,choose_pile.rightButton,choose_pile.time,choose_pile.clicked_name,choices.thisRepN,choices.thisTrialN,choices.thisN,choices.thisIndex,choices.ran,card_to_show,mouse_pick.x,mouse_pick.y,mouse_pick.leftButton,mouse_pick.midButton,mouse_pick.rightButton,mouse_pick.time,mouse_pick.clicked_name,key_instr_study.keys,key_instr_study.rt,next_study.keys,next_study.rt,study_loop.thisRepN,study_loop.thisTrialN,study_loop.thisN,study_loop.thisIndex,study_loop.ran,key_instr_test.keys,learn_loop.thisRepN,learn_loop.thisTrialN,learn_loop.thisN,learn_loop.thisIndex,learn_loop.ran,trials.thisRepN,trials.thisTrialN,trials.thisN,trials.thisIndex,trials.ran,key_instr_test.rt,duration,yes_or_no.x,yes_or_no.y,yes_or_no.leftButton,yes_or_no.midButton,yes_or_no.rightButton,yes_or_no.time,yes_or_no.clicked_name,test_response.stim,test_response.resp,test_response.eval,test_loop.thisRepN,test_loop.thisTrialN,test_loop.thisN,test_loop.thisIndex,test_loop.ran,instr_movie_key.keys,instr_movie_key.rt,return_to_exp.keys,return_to_exp.rt,instr_assess_key.keys,instr_assess_key.rt,assess_loop.thisRepN,assess_loop.thisTrialN,assess_loop.thisN,assess_loop.thisIndex,assess_loop.ran,ans_gen_loop.thisRepN,ans_gen_loop.thisTrialN,ans_gen_loop.thisN,ans_gen_loop.thisIndex,ans_gen_loop.ran,sen,ans,instr_transfer_key.keys,instr_transfer_key.rt,transfer_response.resp,transfer_response.eval,select_word.x,select_word.y,select_word.leftButton,select_word.midButton,select_word.rightButton,select_word.time,select_word.clicked_name,transfers.thisRepN,transfers.thisTrialN,transfers.thisN,transfers.thisIndex,transfers.ran,end_experiment.keys,end_experiment.rt
2,return,34.805485,return,14.12803,0,0,0,0,1,1576948,2020-10-18_16h59.19.928,swahili,2020.2.4,Linux x86_64,60,,,,,,,,,,,,,,,,,,,,,,,,,,,,,,,,,,,,,,,,,,,,,,,,,,,,,,,,,,,,,,,,,,,,,,,,,,,,,,,,,,,,,,,,,,,,,,,,,,,,,,
,,,return,41.188685,1,0,1,0,1,1576948,2020-10-18_16h59.19.928,swahili,2020.2.4,Linux x86_64,60,,,,,,,,,,,,,,,,,,,,,,,,,,,,,,,,,,,,,,,,,,,,,,,,,,,,,,,,,,,,,,,,,,,,,,,,,,,,,,,,,,,,,,,,,,,,,,,,,,,,,,
,,,,,,,,,,1576948,2020-10-18_16h59.19.928,swahili,2020.2.4,Linux x86_64,60,return,10.368015,0,0,0,0,1,TAJIRI,MERCHANT,,,,,,,,,,,,,,,,,,,,,,,,,,,,,,,,,,,,,,,,,,,,,,,,,,,,,,,,,,,,,,,,,,,,,,,,,,,,,,,,,,,,,,,,,,,,,
,,,,,,,,,,1576948,2020-10-18_16h59.19.928,swahili,2020.2.4,Linux x86_64,60,,,0,1,1,1,1,KASUKU,PARROT,,,,,,,,,,,,,,,,,,,,,,,,,,,,,,,,,,,,,,,,,,,,,,,,,,,,,,,,,,,,,,,,,,,,,,,,,,,,,,,,,,,,,,,,,,,,,
,,,,,,,,,,1576948,2020-10-18_16h59.19.928,swahili,2020.2.4,Linux x86_64,60,,,0,2,2,2,1,FAHILI,BULL,,,,,,,,,,,,,,,,,,,,,,,,,,,,,,,,,,,,,,,,,,,,,,,,,,,,,,,,,,,,,,,,,,,,,,,,,,,,,,,,,,,,,,,,,,,,,
,,,,,,,,,,1576948,2020-10-18_16h59.19.928,swahili,2020.2.4,Linux x86_64,60,,,0,3,3,3,1,SAHANI,PLATE,,,,,,,,,,,,,,,,,,,,,,,,,,,,,,,,,,,,,,,,,,,,,,,,,,,,,,,,,,,,,,,,,,,,,,,,,,,,,,,,,,,,,,,,,,,,,
,,,,,,,,,,1576948,2020-10-18_16h59.19.928,swahili,2020.2.4,Linux x86_64,60,,,0,4,4,4,1,HAMIRA,YEAST,,,,,,,,,,,,,,,,,,,,,,,,,,,,,,,,,,,,,,,,,,,,,,,,,,,,,,,,,,,,,,,,,,,,,,,,,,,,,,,,,,,,,,,,,,,,,
,,,,,,,,,,1576948,2020-10-18_16h59.19.928,swahili,2020.2.4,Linux x86_64,60,,,0,5,5,5,1,LAWAMA,BLAME,,,,,,,,,,,,,,,,,,,,,,,,,,,,,,,,,,,,,,,,,,,,,,,,,,,,,,,,,,,,,,,,,,,,,,,,,,,,,,,,,,,,,,,,,,,,,
,,,,,,,,,,1576948,2020-10-18_16h59.19.928,swahili,2020.2.4,Linux x86_64,60,,,0,6,6,6,1,YAMINI,OATH,,,,,,,,,,,,,,,,,,,,,,,,,,,,,,,,,,,,,,,,,,,,,,,,,,,,,,,,,,,,,,,,,,,,,,,,,,,,,,,,,,,,,,,,,,,,,
,,,,,,,,,,1576948,2020-10-18_16h59.19.928,swahili,2020.2.4,Linux x86_64,60,,,0,7,7,7,1,NAFAKA,CORN,,,,,,,,,,,,,,,,,,,,,,,,,,,,,,,,,,,,,,,,,,,,,,,,,,,,,,,,,,,,,,,,,,,,,,,,,,,,,,,,,,,,,,,,,,,,,
,,,,,,,,,,1576948,2020-10-18_16h59.19.928,swahili,2020.2.4,Linux x86_64,60,,,0,8,8,8,1,UTENZI,POEM,,,,,,,,,,,,,,,,,,,,,,,,,,,,,,,,,,,,,,,,,,,,,,,,,,,,,,,,,,,,,,,,,,,,,,,,,,,,,,,,,,,,,,,,,,,,,
,,,,,,,,,,1576948,2020-10-18_16h59.19.928,swahili,2020.2.4,Linux x86_64,60,,,0,9,9,9,1,MSHONI,TAILOR,,,,,,,,,,,,,,,,,,,,,,,,,,,,,,,,,,,,,,,,,,,,,,,,,,,,,,,,,,,,,,,,,,,,,,,,,,,,,,,,,,,,,,,,,,,,,
,,,,,,,,,,1576948,2020-10-18_16h59.19.928,swahili,2020.2.4,Linux x86_64,60,,,0,10,10,10,1,JIBINI,CHEESE,,,,,,,,,,,,,,,,,,,,,,,,,,,,,,,,,,,,,,,,,,,,,,,,,,,,,,,,,,,,,,,,,,,,,,,,,,,,,,,,,,,,,,,,,,,,,
,,,,,,,,,,1576948,2020-10-18_16h59.19.928,swahili,2020.2.4,Linux x86_64,60,,,0,11,11,11,1,ZABIBU,GRAPES,,,,,,,,,,,,,,,,,,,,,,,,,,,,,,,,,,,,,,,,,,,,,,,,,,,,,,,,,,,,,,,,,,,,,,,,,,,,,,,,,,,,,,,,,,,,,
,,,,,,,,,,1576948,2020-10-18_16h59.19.928,swahili,2020.2.4,Linux x86_64,60,,,0,12,12,12,1,KABURI,GRAVE,,,,,,,,,,,,,,,,,,,,,,,,,,,,,,,,,,,,,,,,,,,,,,,,,,,,,,,,,,,,,,,,,,,,,,,,,,,,,,,,,,,,,,,,,,,,,
,,,,,,,,,,1576948,2020-10-18_16h59.19.928,swahili,2020.2.4,Linux x86_64,60,,,0,13,13,13,1,SAMADI,MANURE,,,,,,,,,,,,,,,,,,,,,,,,,,,,,,,,,,,,,,,,,,,,,,,,,,,,,,,,,,,,,,,,,,,,,,,,,,,,,,,,,,,,,,,,,,,,,
,,,,,,,,,,1576948,2020-10-18_16h59.19.928,swahili,2020.2.4,Linux x86_64,60,,,0,14,14,14,1,WAKILI,AGENT,,,,,,,,,,,,,,,,,,,,,,,,,,,,,,,,,,,,,,,,,,,,,,,,,,,,,,,,,,,,,,,,,,,,,,,,,,,,,,,,,,,,,,,,,,,,,
,,,,,,,,,,1576948,2020-10-18_16h59.19.928,swahili,2020.2.4,Linux x86_64,60,,,0,15,15,15,1,RUSHWA,BRIBE,,,,,,,,,,,,,,,,,,,,,,,,,,,,,,,,,,,,,,,,,,,,,,,,,,,,,,,,,,,,,,,,,,,,,,,,,,,,,,,,,,,,,,,,,,,,,
,,,,,,,,,,1576948,2020-10-18_16h59.19.928,swahili,2020.2.4,Linux x86_64,60,,,0,16,16,16,1,YATIMA,ORPHAN,,,,,,,,,,,,,,,,,,,,,,,,,,,,,,,,,,,,,,,,,,,,,,,,,,,,,,,,,,,,,,,,,,,,,,,,,,,,,,,,,,,,,,,,,,,,,
,,,,,,,,,,1576948,2020-10-18_16h59.19.928,swahili,2020.2.4,Linux x86_64,60,,,0,17,17,17,1,TALAKA,DIVORCE,,,,,,,,,,,,,,,,,,,,,,,,,,,,,,,,,,,,,,,,,,,,,,,,,,,,,,,,,,,,,,,,,,,,,,,,,,,,,,,,,,,,,,,,,,,,,
,,,,,,,,,,1576948,2020-10-18_16h59.19.928,swahili,2020.2.4,Linux x86_64,60,,,0,18,18,18,1,MASHUA,BOAT,,,,,,,,,,,,,,,,,,,,,,,,,,,,,,,,,,,,,,,,,,,,,,,,,,,,,,,,,,,,,,,,,,,,,,,,,,,,,,,,,,,,,,,,,,,,,
,,,,,,,,,,1576948,2020-10-18_16h59.19.928,swahili,2020.2.4,Linux x86_64,60,,,0,19,19,19,1,DAFINA,TREASURE,,,,,,,,,,,,,,,,,,,,,,,,,,,,,,,,,,,,,,,,,,,,,,,,,,,,,,,,,,,,,,,,,,,,,,,,,,,,,,,,,,,,,,,,,,,,,
,,,,,,,,,,1576948,2020-10-18_16h59.19.928,swahili,2020.2.4,Linux x86_64,60,,,,,,,,,,-0.369462025,0.039634146,1,0,1,6.6525,unsorted_card,0,0,0,0,1,,,,,,,,,,,,,,,,,,,,,,,,,,,,,,,,,,,,,,,,,,,,,,,,,,,,,,,,,,,,,,,,,,,,,,,,,,,,,,,,,
,,,,,,,,,,1576948,2020-10-18_16h59.19.928,swahili,2020.2.4,Linux x86_64,60,,,,,,,,,,-0.369462025,0.039634146,0,0,1,0.06084,unsorted_card,1,0,1,0,1,MERCHANT - TAJIRI,,,,,,,,,,,,,,,,,,,,,,,,,,,,,,,,,,,,,,,,,,,,,,,,,,,,,,,,,,,,,,,,,,,,,,,,,,,,,,,,
,,,,,,,,,,1576948,2020-10-18_16h59.19.928,swahili,2020.2.4,Linux x86_64,60,,,,,,,,,,-0.227056962,-0.030487805,1,0,1,3.8834,unsorted_card,2,0,2,0,1,MERCHANT - TAJIRI,,,,,,,,,,,,,,,,,,,,,,,,,,,,,,,,,,,,,,,,,,,,,,,,,,,,,,,,,,,,,,,,,,,,,,,,,,,,,,,,
,,,,,,,,,,1576948,2020-10-18_16h59.19.928,swahili,2020.2.4,Linux x86_64,60,,,,,,,,,,0.460443038,0.423780488,0,0,1,0.714905,study_pile,3,0,3,0,1,MERCHANT - TAJIRI,,,,,,,,,,,,,,,,,,,,,,,,,,,,,,,,,,,,,,,,,,,,,,,,,,,,,,,,,,,,,,,,,,,,,,,,,,,,,,,,
,,,,,,,,,,1576948,2020-10-18_16h59.19.928,swahili,2020.2.4,Linux x86_64,60,,,,,,,,,,-0.465981013,-0.044207317,1,0,1,3.014885,unsorted_card,4,0,4,0,1,,,,,,,,,,,,,,,,,,,,,,,,,,,,,,,,,,,,,,,,,,,,,,,,,,,,,,,,,,,,,,,,,,,,,,,,,,,,,,,,,
,,,,,,,,,,1576948,2020-10-18_16h59.19.928,swahili,2020.2.4,Linux x86_64,60,,,,,,,,,,-0.465981013,-0.044207317,0,0,1,0.148555,unsorted_card,5,0,5,0,1,PARROT - KASUKU,,,,,,,,,,,,,,,,,,,,,,,,,,,,,,,,,,,,,,,,,,,,,,,,,,,,,,,,,,,,,,,,,,,,,,,,,,,,,,,,
,,,,,,,,,,1576948,2020-10-18_16h59.19.928,swahili,2020.2.4,Linux x86_64,60,,,,,,,,,,0.480221519,0.478658537,1,0,1,2.5078,study_pile,6,0,6,0,1,PARROT - KASUKU,,,,,,,,,,,,,,,,,,,,,,,,,,,,,,,,,,,,,,,,,,,,,,,,,,,,,,,,,,,,,,,,,,,,,,,,,,,,,,,,
,,,,,,,,,,1576948,2020-10-18_16h59.19.928,swahili,2020.2.4,Linux x86_64,60,,,,,,,,,,0.480221519,0.478658537,0,0,1,0.10747,study_pile,7,0,7,0,1,,,,,,,,,,,,,,,,,,,,,,,,,,,,,,,,,,,,,,,,,,,,,,,,,,,,,,,,,,,,,,,,,,,,,,,,,,,,,,,,,
,,,,,,,,,,1576948,2020-10-18_16h59.19.928,swahili,2020.2.4,Linux x86_64,60,,,,,,,,,,-0.298259494,-0.056402439,1,0,1,0.41031,unsorted_card,8,0,8,0,1,,,,,,,,,,,,,,,,,,,,,,,,,,,,,,,,,,,,,,,,,,,,,,,,,,,,,,,,,,,,,,,,,,,,,,,,,,,,,,,,,
,,,,,,,,,,1576948,2020-10-18_16h59.19.928,swahili,2020.2.4,Linux x86_64,60,,,,,,,,,,-0.298259494,-0.056402439,0,0,1,0.088025,unsorted_card,9,0,9,0,1,BULL - FAHILI,,,,,,,,,,,,,,,,,,,,,,,,,,,,,,,,,,,,,,,,,,,,,,,,,,,,,,,,,,,,,,,,,,,,,,,,,,,,,,,,
,,,,,,,,,,1576948,2020-10-18_16h59.19.928,swahili,2020.2.4,Linux x86_64,60,,,,,,,,,,0.538765823,0.509146341,1,0,1,2.297665,study_pile,10,0,10,0,1,BULL - FAHILI,,,,,,,,,,,,,,,,,,,,,,,,,,,,,,,,,,,,,,,,,,,,,,,,,,,,,,,,,,,,,,,,,,,,,,,,,,,,,,,,
,,,,,,,,,,1576948,2020-10-18_16h59.19.928,swahili,2020.2.4,Linux x86_64,60,,,,,,,,,,0.538765823,0.509146341,0,0,1,0.05328,study_pile,11,0,11,0,1,,,,,,,,,,,,,,,,,,,,,,,,,,,,,,,,,,,,,,,,,,,,,,,,,,,,,,,,,,,,,,,,,,,,,,,,,,,,,,,,,
,,,,,,,,,,1576948,2020-10-18_16h59.19.928,swahili,2020.2.4,Linux x86_64,60,,,,,,,,,,-0.335443038,-0.025914634,1,0,1,0.430905,unsorted_card,12,0,12,0,1,,,,,,,,,,,,,,,,,,,,,,,,,,,,,,,,,,,,,,,,,,,,,,,,,,,,,,,,,,,,,,,,,,,,,,,,,,,,,,,,,
,,,,,,,,,,1576948,2020-10-18_16h59.19.928,swahili,2020.2.4,Linux x86_64,60,,,,,,,,,,-0.335443038,-0.025914634,0,0,1,0.11042,unsorted_card,13,0,13,0,1,PLATE - SAHANI,,,,,,,,,,,,,,,,,,,,,,,,,,,,,,,,,,,,,,,,,,,,,,,,,,,,,,,,,,,,,,,,,,,,,,,,,,,,,,,,
,,,,,,,,,,1576948,2020-10-18_16h59.19.928,swahili,2020.2.4,Linux x86_64,60,,,,,,,,,,0.433544304,0.446646341,1,0,1,2.21765,study_pile,14,0,14,0,1,PLATE - SAHANI,,,,,,,,,,,,,,,,,,,,,,,,,,,,,,,,,,,,,,,,,,,,,,,,,,,,,,,,,,,,,,,,,,,,,,,,,,,,,,,,
,,,,,,,,,,1576948,2020-10-18_16h59.19.928,swahili,2020.2.4,Linux x86_64,60,,,,,,,,,,0.433544304,0.446646341,0,0,1,0.10425,study_pile,15,0,15,0,1,,,,,,,,,,,,,,,,,,,,,,,,,,,,,,,,,,,,,,,,,,,,,,,,,,,,,,,,,,,,,,,,,,,,,,,,,,,,,,,,,
,,,,,,,,,,1576948,2020-10-18_16h59.19.928,swahili,2020.2.4,Linux x86_64,60,,,,,,,,,,-0.393987342,-0.086890244,1,0,1,0.63655,unsorted_card,16,0,16,0,1,,,,,,,,,,,,,,,,,,,,,,,,,,,,,,,,,,,,,,,,,,,,,,,,,,,,,,,,,,,,,,,,,,,,,,,,,,,,,,,,,
,,,,,,,,,,1576948,2020-10-18_16h59.19.928,swahili,2020.2.4,Linux x86_64,60,,,,,,,,,,-0.393987342,-0.086890244,0,0,1,0.126535,unsorted_card,17,0,17,0,1,YEAST - HAMIRA,,,,,,,,,,,,,,,,,,,,,,,,,,,,,,,,,,,,,,,,,,,,,,,,,,,,,,,,,,,,,,,,,,,,,,,,,,,,,,,,
,,,,,,,,,,1576948,2020-10-18_16h59.19.928,swahili,2020.2.4,Linux x86_64,60,,,,,,,,,,0.422468354,0.50152439,1,0,1,3.37776,study_pile,18,0,18,0,1,YEAST - HAMIRA,,,,,,,,,,,,,,,,,,,,,,,,,,,,,,,,,,,,,,,,,,,,,,,,,,,,,,,,,,,,,,,,,,,,,,,,,,,,,,,,
,,,,,,,,,,1576948,2020-10-18_16h59.19.928,swahili,2020.2.4,Linux x86_64,60,,,,,,,,,,0.422468354,0.50152439,0,0,1,0.068575,study_pile,19,0,19,0,1,,,,,,,,,,,,,,,,,,,,,,,,,,,,,,,,,,,,,,,,,,,,,,,,,,,,,,,,,,,,,,,,,,,,,,,,,,,,,,,,,
,,,,,,,,,,1576948,2020-10-18_16h59.19.928,swahili,2020.2.4,Linux x86_64,60,,,,,,,,,,-0.208860759,0.041158537,1,0,1,0.509455,unsorted_card,20,0,20,0,1,,,,,,,,,,,,,,,,,,,,,,,,,,,,,,,,,,,,,,,,,,,,,,,,,,,,,,,,,,,,,,,,,,,,,,,,,,,,,,,,,
,,,,,,,,,,1576948,2020-10-18_16h59.19.928,swahili,2020.2.4,Linux x86_64,60,,,,,,,,,,-0.208860759,0.041158537,0,0,1,0.106825,unsorted_card,21,0,21,0,1,BLAME - LAWAMA,,,,,,,,,,,,,,,,,,,,,,,,,,,,,,,,,,,,,,,,,,,,,,,,,,,,,,,,,,,,,,,,,,,,,,,,,,,,,,,,
,,,,,,,,,,1576948,2020-10-18_16h59.19.928,swahili,2020.2.4,Linux x86_64,60,,,,,,,,,,0.528481013,0.525914634,1,0,1,3.230795,study_pile,22,0,22,0,1,BLAME - LAWAMA,,,,,,,,,,,,,,,,,,,,,,,,,,,,,,,,,,,,,,,,,,,,,,,,,,,,,,,,,,,,,,,,,,,,,,,,,,,,,,,,
,,,,,,,,,,1576948,2020-10-18_16h59.19.928,swahili,2020.2.4,Linux x86_64,60,,,,,,,,,,0.528481013,0.525914634,0,0,1,0.104595,study_pile,23,0,23,0,1,,,,,,,,,,,,,,,,,,,,,,,,,,,,,,,,,,,,,,,,,,,,,,,,,,,,,,,,,,,,,,,,,,,,,,,,,,,,,,,,,
,,,,,,,,,,1576948,2020-10-18_16h59.19.928,swahili,2020.2.4,Linux x86_64,60,,,,,,,,,,-0.152689873,0.047256098,1,0,1,0.504325,unsorted_card,24,0,24,0,1,,,,,,,,,,,,,,,,,,,,,,,,,,,,,,,,,,,,,,,,,,,,,,,,,,,,,,,,,,,,,,,,,,,,,,,,,,,,,,,,,
,,,,,,,,,,1576948,2020-10-18_16h59.19.928,swahili,2020.2.4,Linux x86_64,60,,,,,,,,,,-0.152689873,0.047256098,0,0,1,0.10862,unsorted_card,25,0,25,0,1,OATH - YAMINI,,,,,,,,,,,,,,,,,,,,,,,,,,,,,,,,,,,,,,,,,,,,,,,,,,,,,,,,,,,,,,,,,,,,,,,,,,,,,,,,
,,,,,,,,,,1576948,2020-10-18_16h59.19.928,swahili,2020.2.4,Linux x86_64,60,,,,,,,,,,0.46914557,0.454268293,1,0,1,2.263745,study_pile,26,0,26,0,1,OATH - YAMINI,,,,,,,,,,,,,,,,,,,,,,,,,,,,,,,,,,,,,,,,,,,,,,,,,,,,,,,,,,,,,,,,,,,,,,,,,,,,,,,,
,,,,,,,,,,1576948,2020-10-18_16h59.19.928,swahili,2020.2.4,Linux x86_64,60,,,,,,,,,,0.46914557,0.454268293,0,0,1,0.142415,study_pile,27,0,27,0,1,,,,,,,,,,,,,,,,,,,,,,,,,,,,,,,,,,,,,,,,,,,,,,,,,,,,,,,,,,,,,,,,,,,,,,,,,,,,,,,,,
,,,,,,,,,,1576948,2020-10-18_16h59.19.928,swahili,2020.2.4,Linux x86_64,60,,,,,,,,,,-0.161392405,0.041158537,1,0,1,0.549045,unsorted_card,28,0,28,0,1,,,,,,,,,,,,,,,,,,,,,,,,,,,,,,,,,,,,,,,,,,,,,,,,,,,,,,,,,,,,,,,,,,,,,,,,,,,,,,,,,
,,,,,,,,,,1576948,2020-10-18_16h59.19.928,swahili,2020.2.4,Linux x86_64,60,,,,,,,,,,-0.161392405,0.041158537,0,0,1,0.088145,unsorted_card,29,0,29,0,1,CORN - NAFAKA,,,,,,,,,,,,,,,,,,,,,,,,,,,,,,,,,,,,,,,,,,,,,,,,,,,,,,,,,,,,,,,,,,,,,,,,,,,,,,,,
,,,,,,,,,,1576948,2020-10-18_16h59.19.928,swahili,2020.2.4,Linux x86_64,60,,,,,,,,,,0.488132911,0.513719512,1,0,1,2.608505,study_pile,30,0,30,0,1,CORN - NAFAKA,,,,,,,,,,,,,,,,,,,,,,,,,,,,,,,,,,,,,,,,,,,,,,,,,,,,,,,,,,,,,,,,,,,,,,,,,,,,,,,,
,,,,,,,,,,1576948,2020-10-18_16h59.19.928,swahili,2020.2.4,Linux x86_64,60,,,,,,,,,,0.488132911,0.513719512,0,0,1,0.07214,study_pile,31,0,31,0,1,,,,,,,,,,,,,,,,,,,,,,,,,,,,,,,,,,,,,,,,,,,,,,,,,,,,,,,,,,,,,,,,,,,,,,,,,,,,,,,,,
,,,,,,,,,,1576948,2020-10-18_16h59.19.928,swahili,2020.2.4,Linux x86_64,60,,,,,,,,,,-0.228639241,-0.025914634,1,0,1,0.41634,unsorted_card,32,0,32,0,1,,,,,,,,,,,,,,,,,,,,,,,,,,,,,,,,,,,,,,,,,,,,,,,,,,,,,,,,,,,,,,,,,,,,,,,,,,,,,,,,,
,,,,,,,,,,1576948,2020-10-18_16h59.19.928,swahili,2020.2.4,Linux x86_64,60,,,,,,,,,,-0.228639241,-0.025914634,0,0,1,0.105825,unsorted_card,33,0,33,0,1,POEM - UTENZI,,,,,,,,,,,,,,,,,,,,,,,,,,,,,,,,,,,,,,,,,,,,,,,,,,,,,,,,,,,,,,,,,,,,,,,,,,,,,,,,
,,,,,,,,,,1576948,2020-10-18_16h59.19.928,swahili,2020.2.4,Linux x86_64,60,,,,,,,,,,0.392405063,0.493902439,1,0,1,2.280515,study_pile,34,0,34,0,1,POEM - UTENZI,,,,,,,,,,,,,,,,,,,,,,,,,,,,,,,,,,,,,,,,,,,,,,,,,,,,,,,,,,,,,,,,,,,,,,,,,,,,,,,,
,,,,,,,,,,1576948,2020-10-18_16h59.19.928,swahili,2020.2.4,Linux x86_64,60,,,,,,,,,,0.392405063,0.493902439,0,0,1,0.08898,study_pile,35,0,35,0,1,,,,,,,,,,,,,,,,,,,,,,,,,,,,,,,,,,,,,,,,,,,,,,,,,,,,,,,,,,,,,,,,,,,,,,,,,,,,,,,,,
,,,,,,,,,,1576948,2020-10-18_16h59.19.928,swahili,2020.2.4,Linux x86_64,60,,,,,,,,,,-0.186708861,-0.021341463,1,0,1,0.30499,unsorted_card,36,0,36,0,1,,,,,,,,,,,,,,,,,,,,,,,,,,,,,,,,,,,,,,,,,,,,,,,,,,,,,,,,,,,,,,,,,,,,,,,,,,,,,,,,,
,,,,,,,,,,1576948,2020-10-18_16h59.19.928,swahili,2020.2.4,Linux x86_64,60,,,,,,,,,,-0.186708861,-0.021341463,0,0,1,0.10592,unsorted_card,37,0,37,0,1,TAILOR - MSHONI,,,,,,,,,,,,,,,,,,,,,,,,,,,,,,,,,,,,,,,,,,,,,,,,,,,,,,,,,,,,,,,,,,,,,,,,,,,,,,,,
,,,,,,,,,,1576948,2020-10-18_16h59.19.928,swahili,2020.2.4,Linux x86_64,60,,,,,,,,,,0.42721519,0.538109756,1,0,1,3.053395,study_pile,38,0,38,0,1,TAILOR - MSHONI,,,,,,,,,,,,,,,,,,,,,,,,,,,,,,,,,,,,,,,,,,,,,,,,,,,,,,,,,,,,,,,,,,,,,,,,,,,,,,,,
,,,,,,,,,,1576948,2020-10-18_16h59.19.928,swahili,2020.2.4,Linux x86_64,60,,,,,,,,,,0.42721519,0.538109756,0,0,1,0.06899,study_pile,39,0,39,0,1,,,,,,,,,,,,,,,,,,,,,,,,,,,,,,,,,,,,,,,,,,,,,,,,,,,,,,,,,,,,,,,,,,,,,,,,,,,,,,,,,
,,,,,,,,,,1576948,2020-10-18_16h59.19.928,swahili,2020.2.4,Linux x86_64,60,,,,,,,,,,-0.29193038,-0.035060976,1,0,1,0.519365,unsorted_card,40,0,40,0,1,,,,,,,,,,,,,,,,,,,,,,,,,,,,,,,,,,,,,,,,,,,,,,,,,,,,,,,,,,,,,,,,,,,,,,,,,,,,,,,,,
,,,,,,,,,,1576948,2020-10-18_16h59.19.928,swahili,2020.2.4,Linux x86_64,60,,,,,,,,,,-0.29193038,-0.035060976,0,0,1,0.04959,unsorted_card,41,0,41,0,1,CHEESE - JIBINI,,,,,,,,,,,,,,,,,,,,,,,,,,,,,,,,,,,,,,,,,,,,,,,,,,,,,,,,,,,,,,,,,,,,,,,,,,,,,,,,
,,,,,,,,,,1576948,2020-10-18_16h59.19.928,swahili,2020.2.4,Linux x86_64,60,,,,,,,,,,0.446993671,0.448170732,1,0,1,1.968125,study_pile,42,0,42,0,1,CHEESE - JIBINI,,,,,,,,,,,,,,,,,,,,,,,,,,,,,,,,,,,,,,,,,,,,,,,,,,,,,,,,,,,,,,,,,,,,,,,,,,,,,,,,
,,,,,,,,,,1576948,2020-10-18_16h59.19.928,swahili,2020.2.4,Linux x86_64,60,,,,,,,,,,0.446993671,0.448170732,0,0,1,0.10446,study_pile,43,0,43,0,1,,,,,,,,,,,,,,,,,,,,,,,,,,,,,,,,,,,,,,,,,,,,,,,,,,,,,,,,,,,,,,,,,,,,,,,,,,,,,,,,,
,,,,,,,,,,1576948,2020-10-18_16h59.19.928,swahili,2020.2.4,Linux x86_64,60,,,,,,,,,,-0.154272152,-0.006097561,1,0,1,0.51044,unsorted_card,44,0,44,0,1,,,,,,,,,,,,,,,,,,,,,,,,,,,,,,,,,,,,,,,,,,,,,,,,,,,,,,,,,,,,,,,,,,,,,,,,,,,,,,,,,
,,,,,,,,,,1576948,2020-10-18_16h59.19.928,swahili,2020.2.4,Linux x86_64,60,,,,,,,,,,-0.154272152,-0.006097561,0,0,1,0.106985,unsorted_card,45,0,45,0,1,GRAPES - ZABIBU,,,,,,,,,,,,,,,,,,,,,,,,,,,,,,,,,,,,,,,,,,,,,,,,,,,,,,,,,,,,,,,,,,,,,,,,,,,,,,,,
,,,,,,,,,,1576948,2020-10-18_16h59.19.928,swahili,2020.2.4,Linux x86_64,60,,,,,,,,,,0.485759494,0.506097561,1,0,1,3.551245,study_pile,46,0,46,0,1,GRAPES - ZABIBU,,,,,,,,,,,,,,,,,,,,,,,,,,,,,,,,,,,,,,,,,,,,,,,,,,,,,,,,,,,,,,,,,,,,,,,,,,,,,,,,
,,,,,,,,,,1576948,2020-10-18_16h59.19.928,swahili,2020.2.4,Linux x86_64,60,,,,,,,,,,0.485759494,0.506097561,0,0,1,0.07032,study_pile,47,0,47,0,1,,,,,,,,,,,,,,,,,,,,,,,,,,,,,,,,,,,,,,,,,,,,,,,,,,,,,,,,,,,,,,,,,,,,,,,,,,,,,,,,,
,,,,,,,,,,1576948,2020-10-18_16h59.19.928,swahili,2020.2.4,Linux x86_64,60,,,,,,,,,,-0.115506329,-0.129573171,1,0,1,0.37675,unsorted_card,48,0,48,0,1,,,,,,,,,,,,,,,,,,,,,,,,,,,,,,,,,,,,,,,,,,,,,,,,,,,,,,,,,,,,,,,,,,,,,,,,,,,,,,,,,
,,,,,,,,,,1576948,2020-10-18_16h59.19.928,swahili,2020.2.4,Linux x86_64,60,,,,,,,,,,-0.115506329,-0.129573171,0,0,1,0.089065,unsorted_card,49,0,49,0,1,GRAVE - KABURI,,,,,,,,,,,,,,,,,,,,,,,,,,,,,,,,,,,,,,,,,,,,,,,,,,,,,,,,,,,,,,,,,,,,,,,,,,,,,,,,
,,,,,,,,,,1576948,2020-10-18_16h59.19.928,swahili,2020.2.4,Linux x86_64,60,,,,,,,,,,0.40585443,0.464939024,1,0,1,2.062045,study_pile,50,0,50,0,1,GRAVE - KABURI,,,,,,,,,,,,,,,,,,,,,,,,,,,,,,,,,,,,,,,,,,,,,,,,,,,,,,,,,,,,,,,,,,,,,,,,,,,,,,,,
,,,,,,,,,,1576948,2020-10-18_16h59.19.928,swahili,2020.2.4,Linux x86_64,60,,,,,,,,,,0.40664557,0.464939024,0,0,1,0.10875,study_pile,51,0,51,0,1,,,,,,,,,,,,,,,,,,,,,,,,,,,,,,,,,,,,,,,,,,,,,,,,,,,,,,,,,,,,,,,,,,,,,,,,,,,,,,,,,
,,,,,,,,,,1576948,2020-10-18_16h59.19.928,swahili,2020.2.4,Linux x86_64,60,,,,,,,,,,-0.373417722,0.035060976,1,0,1,0.47039,unsorted_card,52,0,52,0,1,,,,,,,,,,,,,,,,,,,,,,,,,,,,,,,,,,,,,,,,,,,,,,,,,,,,,,,,,,,,,,,,,,,,,,,,,,,,,,,,,
,,,,,,,,,,1576948,2020-10-18_16h59.19.928,swahili,2020.2.4,Linux x86_64,60,,,,,,,,,,-0.373417722,0.035060976,0,0,1,0.089155,unsorted_card,53,0,53,0,1,MANURE - SAMADI,,,,,,,,,,,,,,,,,,,,,,,,,,,,,,,,,,,,,,,,,,,,,,,,,,,,,,,,,,,,,,,,,,,,,,,,,,,,,,,,
,,,,,,,,,,1576948,2020-10-18_16h59.19.928,swahili,2020.2.4,Linux x86_64,60,,,,,,,,,,0.426424051,0.399390244,1,0,1,3.10337,study_pile,54,0,54,0,1,MANURE - SAMADI,,,,,,,,,,,,,,,,,,,,,,,,,,,,,,,,,,,,,,,,,,,,,,,,,,,,,,,,,,,,,,,,,,,,,,,,,,,,,,,,
,,,,,,,,,,1576948,2020-10-18_16h59.19.928,swahili,2020.2.4,Linux x86_64,60,,,,,,,,,,0.426424051,0.399390244,0,0,1,0.087825,study_pile,55,0,55,0,1,,,,,,,,,,,,,,,,,,,,,,,,,,,,,,,,,,,,,,,,,,,,,,,,,,,,,,,,,,,,,,,,,,,,,,,,,,,,,,,,,
,,,,,,,,,,1576948,2020-10-18_16h59.19.928,swahili,2020.2.4,Linux x86_64,60,,,,,,,,,,-0.257120253,-0.021341463,1,0,1,0.42632,unsorted_card,56,0,56,0,1,,,,,,,,,,,,,,,,,,,,,,,,,,,,,,,,,,,,,,,,,,,,,,,,,,,,,,,,,,,,,,,,,,,,,,,,,,,,,,,,,
,,,,,,,,,,1576948,2020-10-18_16h59.19.928,swahili,2020.2.4,Linux x86_64,60,,,,,,,,,,-0.257120253,-0.021341463,0,0,1,0.109625,unsorted_card,57,0,57,0,1,AGENT - WAKILI,,,,,,,,,,,,,,,,,,,,,,,,,,,,,,,,,,,,,,,,,,,,,,,,,,,,,,,,,,,,,,,,,,,,,,,,,,,,,,,,
,,,,,,,,,,1576948,2020-10-18_16h59.19.928,swahili,2020.2.4,Linux x86_64,60,,,,,,,,,,0.412183544,0.49847561,1,0,1,1.9727,study_pile,58,0,58,0,1,AGENT - WAKILI,,,,,,,,,,,,,,,,,,,,,,,,,,,,,,,,,,,,,,,,,,,,,,,,,,,,,,,,,,,,,,,,,,,,,,,,,,,,,,,,
,,,,,,,,,,1576948,2020-10-18_16h59.19.928,swahili,2020.2.4,Linux x86_64,60,,,,,,,,,,0.412183544,0.49847561,0,0,1,0.12427,study_pile,59,0,59,0,1,,,,,,,,,,,,,,,,,,,,,,,,,,,,,,,,,,,,,,,,,,,,,,,,,,,,,,,,,,,,,,,,,,,,,,,,,,,,,,,,,
,,,,,,,,,,1576948,2020-10-18_16h59.19.928,swahili,2020.2.4,Linux x86_64,60,,,,,,,,,,-0.256329114,-0.157012195,1,0,1,0.45697,unsorted_card,60,0,60,0,1,,,,,,,,,,,,,,,,,,,,,,,,,,,,,,,,,,,,,,,,,,,,,,,,,,,,,,,,,,,,,,,,,,,,,,,,,,,,,,,,,
,,,,,,,,,,1576948,2020-10-18_16h59.19.928,swahili,2020.2.4,Linux x86_64,60,,,,,,,,,,-0.256329114,-0.155487805,0,0,1,0.12719,unsorted_card,61,0,61,0,1,BRIBE - RUSHWA,,,,,,,,,,,,,,,,,,,,,,,,,,,,,,,,,,,,,,,,,,,,,,,,,,,,,,,,,,,,,,,,,,,,,,,,,,,,,,,,
,,,,,,,,,,1576948,2020-10-18_16h59.19.928,swahili,2020.2.4,Linux x86_64,60,,,,,,,,,,0.465189873,0.442073171,1,0,1,2.276885,study_pile,62,0,62,0,1,BRIBE - RUSHWA,,,,,,,,,,,,,,,,,,,,,,,,,,,,,,,,,,,,,,,,,,,,,,,,,,,,,,,,,,,,,,,,,,,,,,,,,,,,,,,,
,,,,,,,,,,1576948,2020-10-18_16h59.19.928,swahili,2020.2.4,Linux x86_64,60,,,,,,,,,,0.465189873,0.442073171,0,0,1,0.070405,study_pile,63,0,63,0,1,,,,,,,,,,,,,,,,,,,,,,,,,,,,,,,,,,,,,,,,,,,,,,,,,,,,,,,,,,,,,,,,,,,,,,,,,,,,,,,,,
,,,,,,,,,,1576948,2020-10-18_16h59.19.928,swahili,2020.2.4,Linux x86_64,60,,,,,,,,,,-0.314082278,-0.042682927,1,0,1,0.36041,unsorted_card,64,0,64,0,1,,,,,,,,,,,,,,,,,,,,,,,,,,,,,,,,,,,,,,,,,,,,,,,,,,,,,,,,,,,,,,,,,,,,,,,,,,,,,,,,,
,,,,,,,,,,1576948,2020-10-18_16h59.19.928,swahili,2020.2.4,Linux x86_64,60,,,,,,,,,,-0.314082278,-0.042682927,0,0,1,0.08378,unsorted_card,65,0,65,0,1,ORPHAN - YATIMA,,,,,,,,,,,,,,,,,,,,,,,,,,,,,,,,,,,,,,,,,,,,,,,,,,,,,,,,,,,,,,,,,,,,,,,,,,,,,,,,
,,,,,,,,,,1576948,2020-10-18_16h59.19.928,swahili,2020.2.4,Linux x86_64,60,,,,,,,,,,0.5,0.516768293,1,0,1,1.8433,study_pile,66,0,66,0,1,ORPHAN - YATIMA,,,,,,,,,,,,,,,,,,,,,,,,,,,,,,,,,,,,,,,,,,,,,,,,,,,,,,,,,,,,,,,,,,,,,,,,,,,,,,,,
,,,,,,,,,,1576948,2020-10-18_16h59.19.928,swahili,2020.2.4,Linux x86_64,60,,,,,,,,,,0.5,0.516768293,0,0,1,0.10783,study_pile,67,0,67,0,1,,,,,,,,,,,,,,,,,,,,,,,,,,,,,,,,,,,,,,,,,,,,,,,,,,,,,,,,,,,,,,,,,,,,,,,,,,,,,,,,,
,,,,,,,,,,1576948,2020-10-18_16h59.19.928,swahili,2020.2.4,Linux x86_64,60,,,,,,,,,,-0.21914557,0.030487805,1,0,1,0.718995,unsorted_card,68,0,68,0,1,,,,,,,,,,,,,,,,,,,,,,,,,,,,,,,,,,,,,,,,,,,,,,,,,,,,,,,,,,,,,,,,,,,,,,,,,,,,,,,,,
,,,,,,,,,,1576948,2020-10-18_16h59.19.928,swahili,2020.2.4,Linux x86_64,60,,,,,,,,,,-0.21914557,0.030487805,0,0,1,0.107715,unsorted_card,69,0,69,0,1,DIVORCE - TALAKA,,,,,,,,,,,,,,,,,,,,,,,,,,,,,,,,,,,,,,,,,,,,,,,,,,,,,,,,,,,,,,,,,,,,,,,,,,,,,,,,
,,,,,,,,,,1576948,2020-10-18_16h59.19.928,swahili,2020.2.4,Linux x86_64,60,,,,,,,,,,0.46914557,0.460365854,1,0,1,2.512885,study_pile,70,0,70,0,1,DIVORCE - TALAKA,,,,,,,,,,,,,,,,,,,,,,,,,,,,,,,,,,,,,,,,,,,,,,,,,,,,,,,,,,,,,,,,,,,,,,,,,,,,,,,,
,,,,,,,,,,1576948,2020-10-18_16h59.19.928,swahili,2020.2.4,Linux x86_64,60,,,,,,,,,,0.46914557,0.460365854,0,0,1,0.05509,study_pile,71,0,71,0,1,,,,,,,,,,,,,,,,,,,,,,,,,,,,,,,,,,,,,,,,,,,,,,,,,,,,,,,,,,,,,,,,,,,,,,,,,,,,,,,,,
,,,,,,,,,,1576948,2020-10-18_16h59.19.928,swahili,2020.2.4,Linux x86_64,60,,,,,,,,,,-0.268987342,0.152439024,1,0,1,1.528375,unsorted_card,72,0,72,0,1,,,,,,,,,,,,,,,,,,,,,,,,,,,,,,,,,,,,,,,,,,,,,,,,,,,,,,,,,,,,,,,,,,,,,,,,,,,,,,,,,
,,,,,,,,,,1576948,2020-10-18_16h59.19.928,swahili,2020.2.4,Linux x86_64,60,,,,,,,,,,-0.268987342,0.152439024,0,0,1,0.09007,unsorted_card,73,0,73,0,1,BOAT - MASHUA,,,,,,,,,,,,,,,,,,,,,,,,,,,,,,,,,,,,,,,,,,,,,,,,,,,,,,,,,,,,,,,,,,,,,,,,,,,,,,,,
,,,,,,,,,,1576948,2020-10-18_16h59.19.928,swahili,2020.2.4,Linux x86_64,60,,,,,,,,,,0.46835443,0.580792683,1,0,1,2.14233,study_pile,74,0,74,0,1,BOAT - MASHUA,,,,,,,,,,,,,,,,,,,,,,,,,,,,,,,,,,,,,,,,,,,,,,,,,,,,,,,,,,,,,,,,,,,,,,,,,,,,,,,,
,,,,,,,,,,1576948,2020-10-18_16h59.19.928,swahili,2020.2.4,Linux x86_64,60,,,,,,,,,,0.46835443,0.580792683,0,0,1,0.071325,study_pile,75,0,75,0,1,,,,,,,,,,,,,,,,,,,,,,,,,,,,,,,,,,,,,,,,,,,,,,,,,,,,,,,,,,,,,,,,,,,,,,,,,,,,,,,,,
,,,,,,,,,,1576948,2020-10-18_16h59.19.928,swahili,2020.2.4,Linux x86_64,60,,,,,,,,,,-0.299050633,0.25152439,1,0,1,0.43527,unsorted_card,76,0,76,0,1,,,,,,,,,,,,,,,,,,,,,,,,,,,,,,,,,,,,,,,,,,,,,,,,,,,,,,,,,,,,,,,,,,,,,,,,,,,,,,,,,
,,,,,,,,,,1576948,2020-10-18_16h59.19.928,swahili,2020.2.4,Linux x86_64,60,,,,,,,,,,-0.29193038,0.158536585,0,0,1,0.090075,unsorted_card,77,0,77,0,1,TREASURE - DAFINA,,,,,,,,,,,,,,,,,,,,,,,,,,,,,,,,,,,,,,,,,,,,,,,,,,,,,,,,,,,,,,,,,,,,,,,,,,,,,,,,
,,,,,,,,,,1576948,2020-10-18_16h59.19.928,swahili,2020.2.4,Linux x86_64,60,,,,,,,,,,0.390031646,0.535060976,1,0,1,1.99283,study_pile,78,0,78,0,1,TREASURE - DAFINA,,,,,,,,,,,,,,,,,,,,,,,,,,,,,,,,,,,,,,,,,,,,,,,,,,,,,,,,,,,,,,,,,,,,,,,,,,,,,,,,
,,,,,,,,,,1576948,2020-10-18_16h59.19.928,swahili,2020.2.4,Linux x86_64,60,,,,,,,,,,,,,,,,,,,,,,OATH - YAMINI,,,,,,,,return,9.88273,return,8.75753,0,0,0,0,1,,,,,,,,,,,,,,,,,,,,,,,,,,,,,,,,,,,,,,,,,,,,,,,,,,,,,,,,,,,,,,,,
,,,,,,,,,,1576948,2020-10-18_16h59.19.928,swahili,2020.2.4,Linux x86_64,60,,,,,,,,,,,,,,,,,,,,,,CORN - NAFAKA,,,,,,,,,,return,4.37088,1,0,1,0,1,,,,,,,,,,,,,,,,,,,,,,,,,,,,,,,,,,,,,,,,,,,,,,,,,,,,,,,,,,,,,,,,
,,,,,,,,,,1576948,2020-10-18_16h59.19.928,swahili,2020.2.4,Linux x86_64,60,,,,,,,,,,,,,,,,,,,,,,CHEESE - JIBINI,,,,,,,,,,return,3.562395,2,0,2,0,1,,,,,,,,,,,,,,,,,,,,,,,,,,,,,,,,,,,,,,,,,,,,,,,,,,,,,,,,,,,,,,,,
,,,,,,,,,,1576948,2020-10-18_16h59.19.928,swahili,2020.2.4,Linux x86_64,60,,,,,,,,,,,,,,,,,,,,,,GRAVE - KABURI,,,,,,,,,,return,10.992645,3,0,3,0,1,,,,,,,,,,,,,,,,,,,,,,,,,,,,,,,,,,,,,,,,,,,,,,,,,,,,,,,,,,,,,,,,
,,,,,,,,,,1576948,2020-10-18_16h59.19.928,swahili,2020.2.4,Linux x86_64,60,,,,,,,,,,,,,,,,,,,,,,ORPHAN - YATIMA,,,,,,,,,,return,2.3558,4,0,4,0,1,,,,,,,,,,,,,,,,,,,,,,,,,,,,,,,,,,,,,,,,,,,,,,,,,,,,,,,,,,,,,,,,
,,,,,,,,,,1576948,2020-10-18_16h59.19.928,swahili,2020.2.4,Linux x86_64,60,,,,,,,,,,,,,,,,,,,,,,TREASURE - DAFINA,,,,,,,,,,return,4.11465,5,0,5,0,1,,,,,,,,,,,,,,,,,,,,,,,,,,,,,,,,,,,,,,,,,,,,,,,,,,,,,,,,,,,,,,,,
,,,,,,,,,,1576948,2020-10-18_16h59.19.928,swahili,2020.2.4,Linux x86_64,60,,,,,,,,,,,,,,,,,,,,,,BLAME - LAWAMA,,,,,,,,,,return,2.32715,6,0,6,0,1,,,,,,,,,,,,,,,,,,,,,,,,,,,,,,,,,,,,,,,,,,,,,,,,,,,,,,,,,,,,,,,,
,,,,,,,,,,1576948,2020-10-18_16h59.19.928,swahili,2020.2.4,Linux x86_64,60,,,,,,,,,,,,,,,,,,,,,,BULL - FAHILI,,,,,,,,,,return,1.88727,7,0,7,0,1,,,,,,,,,,,,,,,,,,,,,,,,,,,,,,,,,,,,,,,,,,,,,,,,,,,,,,,,,,,,,,,,
,,,,,,,,,,1576948,2020-10-18_16h59.19.928,swahili,2020.2.4,Linux x86_64,60,,,,,,,,,,,,,,,,,,,,,,YEAST - HAMIRA,,,,,,,,,,return,1.870005,8,0,8,0,1,,,,,,,,,,,,,,,,,,,,,,,,,,,,,,,,,,,,,,,,,,,,,,,,,,,,,,,,,,,,,,,,
,,,,,,,,,,1576948,2020-10-18_16h59.19.928,swahili,2020.2.4,Linux x86_64,60,,,,,,,,,,,,,,,,,,,,,,GRAPES - ZABIBU,,,,,,,,,,return,1.725345,9,0,9,0,1,,,,,,,,,,,,,,,,,,,,,,,,,,,,,,,,,,,,,,,,,,,,,,,,,,,,,,,,,,,,,,,,
,,,,,,,,,,1576948,2020-10-18_16h59.19.928,swahili,2020.2.4,Linux x86_64,60,,,,,,,,,,,,,,,,,,,,,,MANURE - SAMADI,,,,,,,,,,return,1.76968,10,0,10,0,1,,,,,,,,,,,,,,,,,,,,,,,,,,,,,,,,,,,,,,,,,,,,,,,,,,,,,,,,,,,,,,,,
,,,,,,,,,,1576948,2020-10-18_16h59.19.928,swahili,2020.2.4,Linux x86_64,60,,,,,,,,,,,,,,,,,,,,,,DIVORCE - TALAKA,,,,,,,,,,return,2.398645,11,0,11,0,1,,,,,,,,,,,,,,,,,,,,,,,,,,,,,,,,,,,,,,,,,,,,,,,,,,,,,,,,,,,,,,,,
,,,,,,,,,,1576948,2020-10-18_16h59.19.928,swahili,2020.2.4,Linux x86_64,60,,,,,,,,,,,,,,,,,,,,,,AGENT - WAKILI,,,,,,,,,,return,1.952425,12,0,12,0,1,,,,,,,,,,,,,,,,,,,,,,,,,,,,,,,,,,,,,,,,,,,,,,,,,,,,,,,,,,,,,,,,
,,,,,,,,,,1576948,2020-10-18_16h59.19.928,swahili,2020.2.4,Linux x86_64,60,,,,,,,,,,,,,,,,,,,,,,MERCHANT - TAJIRI,,,,,,,,,,return,2.16769,13,0,13,0,1,,,,,,,,,,,,,,,,,,,,,,,,,,,,,,,,,,,,,,,,,,,,,,,,,,,,,,,,,,,,,,,,
,,,,,,,,,,1576948,2020-10-18_16h59.19.928,swahili,2020.2.4,Linux x86_64,60,,,,,,,,,,,,,,,,,,,,,,PLATE - SAHANI,,,,,,,,,,return,2.473045,14,0,14,0,1,,,,,,,,,,,,,,,,,,,,,,,,,,,,,,,,,,,,,,,,,,,,,,,,,,,,,,,,,,,,,,,,
,,,,,,,,,,1576948,2020-10-18_16h59.19.928,swahili,2020.2.4,Linux x86_64,60,,,,,,,,,,,,,,,,,,,,,,PARROT - KASUKU,,,,,,,,,,return,2.13523,15,0,15,0,1,,,,,,,,,,,,,,,,,,,,,,,,,,,,,,,,,,,,,,,,,,,,,,,,,,,,,,,,,,,,,,,,
,,,,,,,,,,1576948,2020-10-18_16h59.19.928,swahili,2020.2.4,Linux x86_64,60,,,,,,,,,,,,,,,,,,,,,,BRIBE - RUSHWA,,,,,,,,,,return,2.45638,16,0,16,0,1,,,,,,,,,,,,,,,,,,,,,,,,,,,,,,,,,,,,,,,,,,,,,,,,,,,,,,,,,,,,,,,,
,,,,,,,,,,1576948,2020-10-18_16h59.19.928,swahili,2020.2.4,Linux x86_64,60,,,,,,,,,,,,,,,,,,,,,,POEM - UTENZI,,,,,,,,,,return,1.85647,17,0,17,0,1,,,,,,,,,,,,,,,,,,,,,,,,,,,,,,,,,,,,,,,,,,,,,,,,,,,,,,,,,,,,,,,,
,,,,,,,,,,1576948,2020-10-18_16h59.19.928,swahili,2020.2.4,Linux x86_64,60,,,,,,,,,,,,,,,,,,,,,,BOAT - MASHUA,,,,,,,,,,return,2.43092,18,0,18,0,1,,,,,,,,,,,,,,,,,,,,,,,,,,,,,,,,,,,,,,,,,,,,,,,,,,,,,,,,,,,,,,,,
,,,,,,,,,,1576948,2020-10-18_16h59.19.928,swahili,2020.2.4,Linux x86_64,60,,,,,,,,,,,,,,,,,,,,,,TAILOR - MSHONI,,,,,,,,,,return,2.403005,19,0,19,0,1,,,,,,,,,,,,,,,,,,,,,,,,,,,,,,,,,,,,,,,,,,,,,,,,,,,,,,,,,,,,,,,,
,,,,,,,,,,1576948,2020-10-18_16h59.19.928,swahili,2020.2.4,Linux x86_64,60,,,,,,,,,,,,,,,,,,,,,,,,,,,,,,,,,,,,,,,,0,0,0,0,1,,,,,,,,,,,,,,,,,,,,,,,,,,,,,,,,,,,,,,,,,,,,,,,,,,,,,,,,,,
,,,,,,,,,,1576948,2020-10-18_16h59.19.928,swahili,2020.2.4,Linux x86_64,60,,,,,,,,,,,,,,,,,,,,,,,,,,,,,,,,,,,,,,,,1,0,1,0,1,,,,,,,,,,,,,,,,,,,,,,,,,,,,,,,,,,,,,,,,,,,,,,,,,,,,,,,,,,
,,,,,,,,,,1576948,2020-10-18_16h59.19.928,swahili,2020.2.4,Linux x86_64,60,,,,,,,,,,,,,,,,,,,,,,,,,,,,,,,,,,,,,,,,,,,,,0,0,0,0,1,,,,,,,,,,,,,,,,,,,,,,,,,,,,,,,,,,,,,,,,,,,,,,,,,,,,,
,,,,,,,,,,1576948,2020-10-18_16h59.19.928,swahili,2020.2.4,Linux x86_64,60,,,,,,,,,,-0.294303797,-0.074695122,1,0,1,4.650625,unsorted_card,0,0,0,0,1,,,,,,,,,,,,,,,,,,,,,,,,,,,,,,,,,,,,,,,,,,,,,,,,,,,,,,,,,,,,,,,,,,,,,,,,,,,,,,,,,
,,,,,,,,,,1576948,2020-10-18_16h59.19.928,swahili,2020.2.4,Linux x86_64,60,,,,,,,,,,-0.294303797,-0.074695122,0,0,1,0.104645,unsorted_card,1,0,1,0,1,MERCHANT - TAJIRI,,,,,,,,,,,,,,,,,,,,,,,,,,,,,,,,,,,,,,,,,,,,,,,,,,,,,,,,,,,,,,,,,,,,,,,,,,,,,,,,
,,,,,,,,,,1576948,2020-10-18_16h59.19.928,swahili,2020.2.4,Linux x86_64,60,,,,,,,,,,0.344936709,0.493902439,1,0,1,1.06209,study_pile,2,0,2,0,1,MERCHANT - TAJIRI,,,,,,,,,,,,,,,,,,,,,,,,,,,,,,,,,,,,,,,,,,,,,,,,,,,,,,,,,,,,,,,,,,,,,,,,,,,,,,,,
,,,,,,,,,,1576948,2020-10-18_16h59.19.928,swahili,2020.2.4,Linux x86_64,60,,,,,,,,,,0.341772152,0.492378049,0,0,1,0.09049,study_pile,3,0,3,0,1,,,,,,,,,,,,,,,,,,,,,,,,,,,,,,,,,,,,,,,,,,,,,,,,,,,,,,,,,,,,,,,,,,,,,,,,,,,,,,,,,
,,,,,,,,,,1576948,2020-10-18_16h59.19.928,swahili,2020.2.4,Linux x86_64,60,,,,,,,,,,-0.227056962,-0.009146341,1,0,1,0.29438,unsorted_card,4,0,4,0,1,,,,,,,,,,,,,,,,,,,,,,,,,,,,,,,,,,,,,,,,,,,,,,,,,,,,,,,,,,,,,,,,,,,,,,,,,,,,,,,,,
,,,,,,,,,,1576948,2020-10-18_16h59.19.928,swahili,2020.2.4,Linux x86_64,60,,,,,,,,,,-0.227056962,-0.009146341,0,0,1,0.072525,unsorted_card,5,0,5,0,1,PARROT - KASUKU,,,,,,,,,,,,,,,,,,,,,,,,,,,,,,,,,,,,,,,,,,,,,,,,,,,,,,,,,,,,,,,,,,,,,,,,,,,,,,,,
,,,,,,,,,,1576948,2020-10-18_16h59.19.928,swahili,2020.2.4,Linux x86_64,60,,,,,,,,,,0.418512658,0.50152439,1,0,1,1.320865,study_pile,6,0,6,0,1,PARROT - KASUKU,,,,,,,,,,,,,,,,,,,,,,,,,,,,,,,,,,,,,,,,,,,,,,,,,,,,,,,,,,,,,,,,,,,,,,,,,,,,,,,,
,,,,,,,,,,1576948,2020-10-18_16h59.19.928,swahili,2020.2.4,Linux x86_64,60,,,,,,,,,,0.417721519,0.5,0,0,1,0.103705,study_pile,7,0,7,0,1,,,,,,,,,,,,,,,,,,,,,,,,,,,,,,,,,,,,,,,,,,,,,,,,,,,,,,,,,,,,,,,,,,,,,,,,,,,,,,,,,
,,,,,,,,,,1576948,2020-10-18_16h59.19.928,swahili,2020.2.4,Linux x86_64,60,,,,,,,,,,-0.201740506,0.00152439,1,0,1,0.264035,unsorted_card,8,0,8,0,1,,,,,,,,,,,,,,,,,,,,,,,,,,,,,,,,,,,,,,,,,,,,,,,,,,,,,,,,,,,,,,,,,,,,,,,,,,,,,,,,,
,,,,,,,,,,1576948,2020-10-18_16h59.19.928,swahili,2020.2.4,Linux x86_64,60,,,,,,,,,,-0.201740506,0.00152439,0,0,1,0.08847,unsorted_card,9,0,9,0,1,BULL - FAHILI,,,,,,,,,,,,,,,,,,,,,,,,,,,,,,,,,,,,,,,,,,,,,,,,,,,,,,,,,,,,,,,,,,,,,,,,,,,,,,,,
,,,,,,,,,,1576948,2020-10-18_16h59.19.928,swahili,2020.2.4,Linux x86_64,60,,,,,,,,,,0.445411392,0.484756098,1,0,1,0.934415,study_pile,10,0,10,0,1,BULL - FAHILI,,,,,,,,,,,,,,,,,,,,,,,,,,,,,,,,,,,,,,,,,,,,,,,,,,,,,,,,,,,,,,,,,,,,,,,,,,,,,,,,
,,,,,,,,,,1576948,2020-10-18_16h59.19.928,swahili,2020.2.4,Linux x86_64,60,,,,,,,,,,0.445411392,0.484756098,0,0,1,0.069395,study_pile,11,0,11,0,1,,,,,,,,,,,,,,,,,,,,,,,,,,,,,,,,,,,,,,,,,,,,,,,,,,,,,,,,,,,,,,,,,,,,,,,,,,,,,,,,,
,,,,,,,,,,1576948,2020-10-18_16h59.19.928,swahili,2020.2.4,Linux x86_64,60,,,,,,,,,,-0.176424051,-0.085365854,1,0,1,0.29779,unsorted_card,12,0,12,0,1,,,,,,,,,,,,,,,,,,,,,,,,,,,,,,,,,,,,,,,,,,,,,,,,,,,,,,,,,,,,,,,,,,,,,,,,,,,,,,,,,
,,,,,,,,,,1576948,2020-10-18_16h59.19.928,swahili,2020.2.4,Linux x86_64,60,,,,,,,,,,-0.176424051,-0.085365854,0,0,1,0.107765,unsorted_card,13,0,13,0,1,PLATE - SAHANI,,,,,,,,,,,,,,,,,,,,,,,,,,,,,,,,,,,,,,,,,,,,,,,,,,,,,,,,,,,,,,,,,,,,,,,,,,,,,,,,
,,,,,,,,,,1576948,2020-10-18_16h59.19.928,swahili,2020.2.4,Linux x86_64,60,,,,,,,,,,0.467563291,0.416158537,1,0,1,1.14389,study_pile,14,0,14,0,1,PLATE - SAHANI,,,,,,,,,,,,,,,,,,,,,,,,,,,,,,,,,,,,,,,,,,,,,,,,,,,,,,,,,,,,,,,,,,,,,,,,,,,,,,,,
,,,,,,,,,,1576948,2020-10-18_16h59.19.928,swahili,2020.2.4,Linux x86_64,60,,,,,,,,,,0.467563291,0.416158537,0,0,1,0.069325,study_pile,15,0,15,0,1,,,,,,,,,,,,,,,,,,,,,,,,,,,,,,,,,,,,,,,,,,,,,,,,,,,,,,,,,,,,,,,,,,,,,,,,,,,,,,,,,
,,,,,,,,,,1576948,2020-10-18_16h59.19.928,swahili,2020.2.4,Linux x86_64,60,,,,,,,,,,-0.166139241,-0.067073171,1,0,1,0.239795,unsorted_card,16,0,16,0,1,,,,,,,,,,,,,,,,,,,,,,,,,,,,,,,,,,,,,,,,,,,,,,,,,,,,,,,,,,,,,,,,,,,,,,,,,,,,,,,,,
,,,,,,,,,,1576948,2020-10-18_16h59.19.928,swahili,2020.2.4,Linux x86_64,60,,,,,,,,,,-0.166139241,-0.067073171,0,0,1,0.109725,unsorted_card,17,0,17,0,1,YEAST - HAMIRA,,,,,,,,,,,,,,,,,,,,,,,,,,,,,,,,,,,,,,,,,,,,,,,,,,,,,,,,,,,,,,,,,,,,,,,,,,,,,,,,
,,,,,,,,,,1576948,2020-10-18_16h59.19.928,swahili,2020.2.4,Linux x86_64,60,,,,,,,,,,0.477848101,0.387195122,1,0,1,1.27679,study_pile,18,0,18,0,1,YEAST - HAMIRA,,,,,,,,,,,,,,,,,,,,,,,,,,,,,,,,,,,,,,,,,,,,,,,,,,,,,,,,,,,,,,,,,,,,,,,,,,,,,,,,
,,,,,,,,,,1576948,2020-10-18_16h59.19.928,swahili,2020.2.4,Linux x86_64,60,,,,,,,,,,0.477848101,0.387195122,0,0,1,0.10098,study_pile,19,0,19,0,1,,,,,,,,,,,,,,,,,,,,,,,,,,,,,,,,,,,,,,,,,,,,,,,,,,,,,,,,,,,,,,,,,,,,,,,,,,,,,,,,,
,,,,,,,,,,1576948,2020-10-18_16h59.19.928,swahili,2020.2.4,Linux x86_64,60,,,,,,,,,,-0.174050633,0.077743902,1,0,1,0.313,unsorted_card,20,0,20,0,1,,,,,,,,,,,,,,,,,,,,,,,,,,,,,,,,,,,,,,,,,,,,,,,,,,,,,,,,,,,,,,,,,,,,,,,,,,,,,,,,,
,,,,,,,,,,1576948,2020-10-18_16h59.19.928,swahili,2020.2.4,Linux x86_64,60,,,,,,,,,,-0.174050633,0.077743902,0,0,1,0.106795,unsorted_card,21,0,21,0,1,BLAME - LAWAMA,,,,,,,,,,,,,,,,,,,,,,,,,,,,,,,,,,,,,,,,,,,,,,,,,,,,,,,,,,,,,,,,,,,,,,,,,,,,,,,,
,,,,,,,,,,1576948,2020-10-18_16h59.19.928,swahili,2020.2.4,Linux x86_64,60,,,,,,,,,,0.52056962,0.571646341,1,0,1,1.546265,study_pile,22,0,22,0,1,BLAME - LAWAMA,,,,,,,,,,,,,,,,,,,,,,,,,,,,,,,,,,,,,,,,,,,,,,,,,,,,,,,,,,,,,,,,,,,,,,,,,,,,,,,,
,,,,,,,,,,1576948,2020-10-18_16h59.19.928,swahili,2020.2.4,Linux x86_64,60,,,,,,,,,,0.52056962,0.573170732,0,0,1,0.08961,study_pile,23,0,23,0,1,,,,,,,,,,,,,,,,,,,,,,,,,,,,,,,,,,,,,,,,,,,,,,,,,,,,,,,,,,,,,,,,,,,,,,,,,,,,,,,,,
,,,,,,,,,,1576948,2020-10-18_16h59.19.928,swahili,2020.2.4,Linux x86_64,60,,,,,,,,,,-0.163765823,0.141768293,1,0,1,0.320415,unsorted_card,24,0,24,0,1,,,,,,,,,,,,,,,,,,,,,,,,,,,,,,,,,,,,,,,,,,,,,,,,,,,,,,,,,,,,,,,,,,,,,,,,,,,,,,,,,
,,,,,,,,,,1576948,2020-10-18_16h59.19.928,swahili,2020.2.4,Linux x86_64,60,,,,,,,,,,-0.163765823,0.141768293,0,0,1,0.091585,unsorted_card,25,0,25,0,1,OATH - YAMINI,,,,,,,,,,,,,,,,,,,,,,,,,,,,,,,,,,,,,,,,,,,,,,,,,,,,,,,,,,,,,,,,,,,,,,,,,,,,,,,,
,,,,,,,,,,1576948,2020-10-18_16h59.19.928,swahili,2020.2.4,Linux x86_64,60,,,,,,,,,,0.451740506,0.361280488,1,0,1,1.16178,study_pile,26,0,26,0,1,OATH - YAMINI,,,,,,,,,,,,,,,,,,,,,,,,,,,,,,,,,,,,,,,,,,,,,,,,,,,,,,,,,,,,,,,,,,,,,,,,,,,,,,,,
,,,,,,,,,,1576948,2020-10-18_16h59.19.928,swahili,2020.2.4,Linux x86_64,60,,,,,,,,,,0.451740506,0.361280488,0,0,1,0.105775,study_pile,27,0,27,0,1,,,,,,,,,,,,,,,,,,,,,,,,,,,,,,,,,,,,,,,,,,,,,,,,,,,,,,,,,,,,,,,,,,,,,,,,,,,,,,,,,
,,,,,,,,,,1576948,2020-10-18_16h59.19.928,swahili,2020.2.4,Linux x86_64,60,,,,,,,,,,-0.085443038,0.057926829,1,0,1,0.29159,unsorted_card,28,0,28,0,1,,,,,,,,,,,,,,,,,,,,,,,,,,,,,,,,,,,,,,,,,,,,,,,,,,,,,,,,,,,,,,,,,,,,,,,,,,,,,,,,,
,,,,,,,,,,1576948,2020-10-18_16h59.19.928,swahili,2020.2.4,Linux x86_64,60,,,,,,,,,,-0.223101266,-0.00152439,0,0,1,0.089085,unsorted_card,29,0,29,0,1,CORN - NAFAKA,,,,,,,,,,,,,,,,,,,,,,,,,,,,,,,,,,,,,,,,,,,,,,,,,,,,,,,,,,,,,,,,,,,,,,,,,,,,,,,,
,,,,,,,,,,1576948,2020-10-18_16h59.19.928,swahili,2020.2.4,Linux x86_64,60,,,,,,,,,,0.509493671,0.446646341,1,0,1,1.13685,study_pile,30,0,30,0,1,CORN - NAFAKA,,,,,,,,,,,,,,,,,,,,,,,,,,,,,,,,,,,,,,,,,,,,,,,,,,,,,,,,,,,,,,,,,,,,,,,,,,,,,,,,
,,,,,,,,,,1576948,2020-10-18_16h59.19.928,swahili,2020.2.4,Linux x86_64,60,,,,,,,,,,0.509493671,0.448170732,0,0,1,0.111515,study_pile,31,0,31,0,1,,,,,,,,,,,,,,,,,,,,,,,,,,,,,,,,,,,,,,,,,,,,,,,,,,,,,,,,,,,,,,,,,,,,,,,,,,,,,,,,,
,,,,,,,,,,1576948,2020-10-18_16h59.19.928,swahili,2020.2.4,Linux x86_64,60,,,,,,,,,,-0.087025316,-0.028963415,1,0,1,0.392255,unsorted_card,32,0,32,0,1,,,,,,,,,,,,,,,,,,,,,,,,,,,,,,,,,,,,,,,,,,,,,,,,,,,,,,,,,,,,,,,,,,,,,,,,,,,,,,,,,
,,,,,,,,,,1576948,2020-10-18_16h59.19.928,swahili,2020.2.4,Linux x86_64,60,,,,,,,,,,-0.256329114,-0.013719512,0,0,1,0.072015,unsorted_card,33,0,33,0,1,POEM - UTENZI,,,,,,,,,,,,,,,,,,,,,,,,,,,,,,,,,,,,,,,,,,,,,,,,,,,,,,,,,,,,,,,,,,,,,,,,,,,,,,,,
,,,,,,,,,,1576948,2020-10-18_16h59.19.928,swahili,2020.2.4,Linux x86_64,60,,,,,,,,,,0.514240506,0.586890244,1,0,1,1.269325,study_pile,34,0,34,0,1,POEM - UTENZI,,,,,,,,,,,,,,,,,,,,,,,,,,,,,,,,,,,,,,,,,,,,,,,,,,,,,,,,,,,,,,,,,,,,,,,,,,,,,,,,
,,,,,,,,,,1576948,2020-10-18_16h59.19.928,swahili,2020.2.4,Linux x86_64,60,,,,,,,,,,0.514240506,0.588414634,0,0,1,0.089125,study_pile,35,0,35,0,1,,,,,,,,,,,,,,,,,,,,,,,,,,,,,,,,,,,,,,,,,,,,,,,,,,,,,,,,,,,,,,,,,,,,,,,,,,,,,,,,,
,,,,,,,,,,1576948,2020-10-18_16h59.19.928,swahili,2020.2.4,Linux x86_64,60,,,,,,,,,,-0.276898734,0.089939024,1,0,1,0.451185,unsorted_card,36,0,36,0,1,,,,,,,,,,,,,,,,,,,,,,,,,,,,,,,,,,,,,,,,,,,,,,,,,,,,,,,,,,,,,,,,,,,,,,,,,,,,,,,,,
,,,,,,,,,,1576948,2020-10-18_16h59.19.928,swahili,2020.2.4,Linux x86_64,60,,,,,,,,,,-0.276898734,0.089939024,0,0,1,0.12607,unsorted_card,37,0,37,0,1,TAILOR - MSHONI,,,,,,,,,,,,,,,,,,,,,,,,,,,,,,,,,,,,,,,,,,,,,,,,,,,,,,,,,,,,,,,,,,,,,,,,,,,,,,,,
,,,,,,,,,,1576948,2020-10-18_16h59.19.928,swahili,2020.2.4,Linux x86_64,60,,,,,,,,,,0.419303797,0.426829268,1,0,1,1.178775,study_pile,38,0,38,0,1,TAILOR - MSHONI,,,,,,,,,,,,,,,,,,,,,,,,,,,,,,,,,,,,,,,,,,,,,,,,,,,,,,,,,,,,,,,,,,,,,,,,,,,,,,,,
,,,,,,,,,,1576948,2020-10-18_16h59.19.928,swahili,2020.2.4,Linux x86_64,60,,,,,,,,,,0.419303797,0.426829268,0,0,1,0.1069,study_pile,39,0,39,0,1,,,,,,,,,,,,,,,,,,,,,,,,,,,,,,,,,,,,,,,,,,,,,,,,,,,,,,,,,,,,,,,,,,,,,,,,,,,,,,,,,
,,,,,,,,,,1576948,2020-10-18_16h59.19.928,swahili,2020.2.4,Linux x86_64,60,,,,,,,,,,-0.21835443,0.149390244,1,0,1,0.36724,unsorted_card,40,0,40,0,1,,,,,,,,,,,,,,,,,,,,,,,,,,,,,,,,,,,,,,,,,,,,,,,,,,,,,,,,,,,,,,,,,,,,,,,,,,,,,,,,,
,,,,,,,,,,1576948,2020-10-18_16h59.19.928,swahili,2020.2.4,Linux x86_64,60,,,,,,,,,,-0.21835443,0.149390244,0,0,1,0.106835,unsorted_card,41,0,41,0,1,CHEESE - JIBINI,,,,,,,,,,,,,,,,,,,,,,,,,,,,,,,,,,,,,,,,,,,,,,,,,,,,,,,,,,,,,,,,,,,,,,,,,,,,,,,,
,,,,,,,,,,1576948,2020-10-18_16h59.19.928,swahili,2020.2.4,Linux x86_64,60,,,,,,,,,,0.450949367,0.405487805,1,0,1,3.13468,study_pile,42,0,42,0,1,CHEESE - JIBINI,,,,,,,,,,,,,,,,,,,,,,,,,,,,,,,,,,,,,,,,,,,,,,,,,,,,,,,,,,,,,,,,,,,,,,,,,,,,,,,,
,,,,,,,,,,1576948,2020-10-18_16h59.19.928,swahili,2020.2.4,Linux x86_64,60,,,,,,,,,,0.450949367,0.405487805,0,0,1,0.071505,study_pile,43,0,43,0,1,,,,,,,,,,,,,,,,,,,,,,,,,,,,,,,,,,,,,,,,,,,,,,,,,,,,,,,,,,,,,,,,,,,,,,,,,,,,,,,,,
,,,,,,,,,,1576948,2020-10-18_16h59.19.928,swahili,2020.2.4,Linux x86_64,60,,,,,,,,,,-0.251582278,0.012195122,1,0,1,0.548675,unsorted_card,44,0,44,0,1,,,,,,,,,,,,,,,,,,,,,,,,,,,,,,,,,,,,,,,,,,,,,,,,,,,,,,,,,,,,,,,,,,,,,,,,,,,,,,,,,
,,,,,,,,,,1576948,2020-10-18_16h59.19.928,swahili,2020.2.4,Linux x86_64,60,,,,,,,,,,-0.251582278,0.012195122,0,0,1,0.07151,unsorted_card,45,0,45,0,1,GRAPES - ZABIBU,,,,,,,,,,,,,,,,,,,,,,,,,,,,,,,,,,,,,,,,,,,,,,,,,,,,,,,,,,,,,,,,,,,,,,,,,,,,,,,,
,,,,,,,,,,1576948,2020-10-18_16h59.19.928,swahili,2020.2.4,Linux x86_64,60,,,,,,,,,,0.462816456,0.466463415,1,0,1,1.674005,study_pile,46,0,46,0,1,GRAPES - ZABIBU,,,,,,,,,,,,,,,,,,,,,,,,,,,,,,,,,,,,,,,,,,,,,,,,,,,,,,,,,,,,,,,,,,,,,,,,,,,,,,,,
,,,,,,,,,,1576948,2020-10-18_16h59.19.928,swahili,2020.2.4,Linux x86_64,60,,,,,,,,,,0.462816456,0.467987805,0,0,1,0.110325,study_pile,47,0,47,0,1,,,,,,,,,,,,,,,,,,,,,,,,,,,,,,,,,,,,,,,,,,,,,,,,,,,,,,,,,,,,,,,,,,,,,,,,,,,,,,,,,
,,,,,,,,,,1576948,2020-10-18_16h59.19.928,swahili,2020.2.4,Linux x86_64,60,,,,,,,,,,-0.212816456,-0.019817073,1,0,1,0.28118,unsorted_card,48,0,48,0,1,,,,,,,,,,,,,,,,,,,,,,,,,,,,,,,,,,,,,,,,,,,,,,,,,,,,,,,,,,,,,,,,,,,,,,,,,,,,,,,,,
,,,,,,,,,,1576948,2020-10-18_16h59.19.928,swahili,2020.2.4,Linux x86_64,60,,,,,,,,,,-0.212816456,-0.019817073,0,0,1,0.10733,unsorted_card,49,0,49,0,1,GRAVE - KABURI,,,,,,,,,,,,,,,,,,,,,,,,,,,,,,,,,,,,,,,,,,,,,,,,,,,,,,,,,,,,,,,,,,,,,,,,,,,,,,,,
,,,,,,,,,,1576948,2020-10-18_16h59.19.928,swahili,2020.2.4,Linux x86_64,60,,,,,,,,,,0.409018987,0.411585366,1,0,1,1.098275,study_pile,50,0,50,0,1,GRAVE - KABURI,,,,,,,,,,,,,,,,,,,,,,,,,,,,,,,,,,,,,,,,,,,,,,,,,,,,,,,,,,,,,,,,,,,,,,,,,,,,,,,,
,,,,,,,,,,1576948,2020-10-18_16h59.19.928,swahili,2020.2.4,Linux x86_64,60,,,,,,,,,,0.409018987,0.411585366,0,0,1,0.0887,study_pile,51,0,51,0,1,,,,,,,,,,,,,,,,,,,,,,,,,,,,,,,,,,,,,,,,,,,,,,,,,,,,,,,,,,,,,,,,,,,,,,,,,,,,,,,,,
,,,,,,,,,,1576948,2020-10-18_16h59.19.928,swahili,2020.2.4,Linux x86_64,60,,,,,,,,,,-0.193829114,0.035060976,1,0,1,9.610625,unsorted_card,52,0,52,0,1,,,,,,,,,,,,,,,,,,,,,,,,,,,,,,,,,,,,,,,,,,,,,,,,,,,,,,,,,,,,,,,,,,,,,,,,,,,,,,,,,
,,,,,,,,,,1576948,2020-10-18_16h59.19.928,swahili,2020.2.4,Linux x86_64,60,,,,,,,,,,-0.193829114,0.035060976,0,0,1,0.14181,unsorted_card,53,0,53,0,1,MANURE - SAMADI,,,,,,,,,,,,,,,,,,,,,,,,,,,,,,,,,,,,,,,,,,,,,,,,,,,,,,,,,,,,,,,,,,,,,,,,,,,,,,,,
,,,,,,,,,,1576948,2020-10-18_16h59.19.928,swahili,2020.2.4,Linux x86_64,60,,,,,,,,,,0.379746835,0.480182927,1,0,1,3.371685,study_pile,54,0,54,0,1,MANURE - SAMADI,,,,,,,,,,,,,,,,,,,,,,,,,,,,,,,,,,,,,,,,,,,,,,,,,,,,,,,,,,,,,,,,,,,,,,,,,,,,,,,,
,,,,,,,,,,1576948,2020-10-18_16h59.19.928,swahili,2020.2.4,Linux x86_64,60,,,,,,,,,,0.379746835,0.480182927,0,0,1,0.125205,study_pile,55,0,55,0,1,,,,,,,,,,,,,,,,,,,,,,,,,,,,,,,,,,,,,,,,,,,,,,,,,,,,,,,,,,,,,,,,,,,,,,,,,,,,,,,,,
,,,,,,,,,,1576948,2020-10-18_16h59.19.928,swahili,2020.2.4,Linux x86_64,60,,,,,,,,,,-0.090189873,0.164634146,1,0,1,0.870795,unsorted_card,56,0,56,0,1,,,,,,,,,,,,,,,,,,,,,,,,,,,,,,,,,,,,,,,,,,,,,,,,,,,,,,,,,,,,,,,,,,,,,,,,,,,,,,,,,
,,,,,,,,,,1576948,2020-10-18_16h59.19.928,swahili,2020.2.4,Linux x86_64,60,,,,,,,,,,-0.254746835,-0.057926829,0,0,1,0.09014,unsorted_card,57,0,57,0,1,AGENT - WAKILI,,,,,,,,,,,,,,,,,,,,,,,,,,,,,,,,,,,,,,,,,,,,,,,,,,,,,,,,,,,,,,,,,,,,,,,,,,,,,,,,
,,,,,,,,,,1576948,2020-10-18_16h59.19.928,swahili,2020.2.4,Linux x86_64,60,,,,,,,,,,0.42721519,0.432926829,1,0,1,1.965565,study_pile,58,0,58,0,1,AGENT - WAKILI,,,,,,,,,,,,,,,,,,,,,,,,,,,,,,,,,,,,,,,,,,,,,,,,,,,,,,,,,,,,,,,,,,,,,,,,,,,,,,,,
,,,,,,,,,,1576948,2020-10-18_16h59.19.928,swahili,2020.2.4,Linux x86_64,60,,,,,,,,,,0.42721519,0.432926829,0,0,1,0.07288,study_pile,59,0,59,0,1,,,,,,,,,,,,,,,,,,,,,,,,,,,,,,,,,,,,,,,,,,,,,,,,,,,,,,,,,,,,,,,,,,,,,,,,,,,,,,,,,
,,,,,,,,,,1576948,2020-10-18_16h59.19.928,swahili,2020.2.4,Linux x86_64,60,,,,,,,,,,-0.219936709,-0.05945122,1,0,1,0.397995,unsorted_card,60,0,60,0,1,,,,,,,,,,,,,,,,,,,,,,,,,,,,,,,,,,,,,,,,,,,,,,,,,,,,,,,,,,,,,,,,,,,,,,,,,,,,,,,,,
,,,,,,,,,,1576948,2020-10-18_16h59.19.928,swahili,2020.2.4,Linux x86_64,60,,,,,,,,,,-0.219936709,-0.05945122,0,0,1,0.10615,unsorted_card,61,0,61,0,1,BRIBE - RUSHWA,,,,,,,,,,,,,,,,,,,,,,,,,,,,,,,,,,,,,,,,,,,,,,,,,,,,,,,,,,,,,,,,,,,,,,,,,,,,,,,,
,,,,,,,,,,1576948,2020-10-18_16h59.19.928,swahili,2020.2.4,Linux x86_64,60,,,,,,,,,,0.473101266,0.423780488,1,0,1,1.84031,study_pile,62,0,62,0,1,BRIBE - RUSHWA,,,,,,,,,,,,,,,,,,,,,,,,,,,,,,,,,,,,,,,,,,,,,,,,,,,,,,,,,,,,,,,,,,,,,,,,,,,,,,,,
,,,,,,,,,,1576948,2020-10-18_16h59.19.928,swahili,2020.2.4,Linux x86_64,60,,,,,,,,,,0.473101266,0.423780488,0,0,1,0.070215,study_pile,63,0,63,0,1,,,,,,,,,,,,,,,,,,,,,,,,,,,,,,,,,,,,,,,,,,,,,,,,,,,,,,,,,,,,,,,,,,,,,,,,,,,,,,,,,
,,,,,,,,,,1576948,2020-10-18_16h59.19.928,swahili,2020.2.4,Linux x86_64,60,,,,,,,,,,-0.261867089,-0.131097561,1,0,1,0.52889,unsorted_card,64,0,64,0,1,,,,,,,,,,,,,,,,,,,,,,,,,,,,,,,,,,,,,,,,,,,,,,,,,,,,,,,,,,,,,,,,,,,,,,,,,,,,,,,,,
,,,,,,,,,,1576948,2020-10-18_16h59.19.928,swahili,2020.2.4,Linux x86_64,60,,,,,,,,,,-0.261867089,-0.131097561,0,0,1,0.14284,unsorted_card,65,0,65,0,1,ORPHAN - YATIMA,,,,,,,,,,,,,,,,,,,,,,,,,,,,,,,,,,,,,,,,,,,,,,,,,,,,,,,,,,,,,,,,,,,,,,,,,,,,,,,,
,,,,,,,,,,1576948,2020-10-18_16h59.19.928,swahili,2020.2.4,Linux x86_64,60,,,,,,,,,,0.436708861,0.419207317,1,0,1,1.4909,study_pile,66,0,66,0,1,ORPHAN - YATIMA,,,,,,,,,,,,,,,,,,,,,,,,,,,,,,,,,,,,,,,,,,,,,,,,,,,,,,,,,,,,,,,,,,,,,,,,,,,,,,,,
,,,,,,,,,,1576948,2020-10-18_16h59.19.928,swahili,2020.2.4,Linux x86_64,60,,,,,,,,,,0.436708861,0.419207317,0,0,1,0.10014,study_pile,67,0,67,0,1,,,,,,,,,,,,,,,,,,,,,,,,,,,,,,,,,,,,,,,,,,,,,,,,,,,,,,,,,,,,,,,,,,,,,,,,,,,,,,,,,
,,,,,,,,,,1576948,2020-10-18_16h59.19.928,swahili,2020.2.4,Linux x86_64,60,,,,,,,,,,-0.207278481,-0.141768293,1,0,1,0.48191,unsorted_card,68,0,68,0,1,,,,,,,,,,,,,,,,,,,,,,,,,,,,,,,,,,,,,,,,,,,,,,,,,,,,,,,,,,,,,,,,,,,,,,,,,,,,,,,,,
,,,,,,,,,,1576948,2020-10-18_16h59.19.928,swahili,2020.2.4,Linux x86_64,60,,,,,,,,,,-0.19778481,-0.153963415,0,0,1,0.070005,unsorted_card,69,0,69,0,1,DIVORCE - TALAKA,,,,,,,,,,,,,,,,,,,,,,,,,,,,,,,,,,,,,,,,,,,,,,,,,,,,,,,,,,,,,,,,,,,,,,,,,,,,,,,,
,,,,,,,,,,1576948,2020-10-18_16h59.19.928,swahili,2020.2.4,Linux x86_64,60,,,,,,,,,,0.522151899,0.5,1,0,1,1.914685,study_pile,70,0,70,0,1,DIVORCE - TALAKA,,,,,,,,,,,,,,,,,,,,,,,,,,,,,,,,,,,,,,,,,,,,,,,,,,,,,,,,,,,,,,,,,,,,,,,,,,,,,,,,
,,,,,,,,,,1576948,2020-10-18_16h59.19.928,swahili,2020.2.4,Linux x86_64,60,,,,,,,,,,0.522151899,0.5,0,0,1,0.090605,study_pile,71,0,71,0,1,,,,,,,,,,,,,,,,,,,,,,,,,,,,,,,,,,,,,,,,,,,,,,,,,,,,,,,,,,,,,,,,,,,,,,,,,,,,,,,,,
,,,,,,,,,,1576948,2020-10-18_16h59.19.928,swahili,2020.2.4,Linux x86_64,60,,,,,,,,,,-0.337816456,-0.027439024,1,0,1,0.48027,unsorted_card,72,0,72,0,1,,,,,,,,,,,,,,,,,,,,,,,,,,,,,,,,,,,,,,,,,,,,,,,,,,,,,,,,,,,,,,,,,,,,,,,,,,,,,,,,,
,,,,,,,,,,1576948,2020-10-18_16h59.19.928,swahili,2020.2.4,Linux x86_64,60,,,,,,,,,,-0.337816456,-0.027439024,0,0,1,0.08681,unsorted_card,73,0,73,0,1,BOAT - MASHUA,,,,,,,,,,,,,,,,,,,,,,,,,,,,,,,,,,,,,,,,,,,,,,,,,,,,,,,,,,,,,,,,,,,,,,,,,,,,,,,,
,,,,,,,,,,1576948,2020-10-18_16h59.19.928,swahili,2020.2.4,Linux x86_64,60,,,,,,,,,,0.428006329,0.43597561,1,0,1,2.842435,study_pile,74,0,74,0,1,BOAT - MASHUA,,,,,,,,,,,,,,,,,,,,,,,,,,,,,,,,,,,,,,,,,,,,,,,,,,,,,,,,,,,,,,,,,,,,,,,,,,,,,,,,
,,,,,,,,,,1576948,2020-10-18_16h59.19.928,swahili,2020.2.4,Linux x86_64,60,,,,,,,,,,0.428006329,0.43597561,0,0,1,0.100375,study_pile,75,0,75,0,1,,,,,,,,,,,,,,,,,,,,,,,,,,,,,,,,,,,,,,,,,,,,,,,,,,,,,,,,,,,,,,,,,,,,,,,,,,,,,,,,,
,,,,,,,,,,1576948,2020-10-18_16h59.19.928,swahili,2020.2.4,Linux x86_64,60,,,,,,,,,,-0.563291139,-0.099085366,1,0,1,0.33043,unsorted_card,76,0,76,0,1,,,,,,,,,,,,,,,,,,,,,,,,,,,,,,,,,,,,,,,,,,,,,,,,,,,,,,,,,,,,,,,,,,,,,,,,,,,,,,,,,
,,,,,,,,,,1576948,2020-10-18_16h59.19.928,swahili,2020.2.4,Linux x86_64,60,,,,,,,,,,-0.563291139,-0.099085366,0,0,1,0.090555,unsorted_card,77,0,77,0,1,TREASURE - DAFINA,,,,,,,,,,,,,,,,,,,,,,,,,,,,,,,,,,,,,,,,,,,,,,,,,,,,,,,,,,,,,,,,,,,,,,,,,,,,,,,,
,,,,,,,,,,1576948,2020-10-18_16h59.19.928,swahili,2020.2.4,Linux x86_64,60,,,,,,,,,,0.514240506,0.487804878,1,0,1,1.435725,study_pile,78,0,78,0,1,TREASURE - DAFINA,,,,,,,,,,,,,,,,,,,,,,,,,,,,,,,,,,,,,,,,,,,,,,,,,,,,,,,,,,,,,,,,,,,,,,,,,,,,,,,,
,,,,,,,,,,1576948,2020-10-18_16h59.19.928,swahili,2020.2.4,Linux x86_64,60,,,,,,,,,,,,,,,,,,,,,,PARROT - KASUKU,,,,,,,,return,3.58205,return,4.0451,0,0,0,0,1,,,,,,,,,,,,,,,,,,,,,,,,,,,,,,,,,,,,,,,,,,,,,,,,,,,,,,,,,,,,,,,,
,,,,,,,,,,1576948,2020-10-18_16h59.19.928,swahili,2020.2.4,Linux x86_64,60,,,,,,,,,,,,,,,,,,,,,,CORN - NAFAKA,,,,,,,,,,return,1.943985,1,0,1,0,1,,,,,,,,,,,,,,,,,,,,,,,,,,,,,,,,,,,,,,,,,,,,,,,,,,,,,,,,,,,,,,,,
,,,,,,,,,,1576948,2020-10-18_16h59.19.928,swahili,2020.2.4,Linux x86_64,60,,,,,,,,,,,,,,,,,,,,,,BOAT - MASHUA,,,,,,,,,,return,2.12652,2,0,2,0,1,,,,,,,,,,,,,,,,,,,,,,,,,,,,,,,,,,,,,,,,,,,,,,,,,,,,,,,,,,,,,,,,
,,,,,,,,,,1576948,2020-10-18_16h59.19.928,swahili,2020.2.4,Linux x86_64,60,,,,,,,,,,,,,,,,,,,,,,DIVORCE - TALAKA,,,,,,,,,,return,2.327275,3,0,3,0,1,,,,,,,,,,,,,,,,,,,,,,,,,,,,,,,,,,,,,,,,,,,,,,,,,,,,,,,,,,,,,,,,
,,,,,,,,,,1576948,2020-10-18_16h59.19.928,swahili,2020.2.4,Linux x86_64,60,,,,,,,,,,,,,,,,,,,,,,MERCHANT - TAJIRI,,,,,,,,,,return,2.183235,4,0,4,0,1,,,,,,,,,,,,,,,,,,,,,,,,,,,,,,,,,,,,,,,,,,,,,,,,,,,,,,,,,,,,,,,,
,,,,,,,,,,1576948,2020-10-18_16h59.19.928,swahili,2020.2.4,Linux x86_64,60,,,,,,,,,,,,,,,,,,,,,,TREASURE - DAFINA,,,,,,,,,,return,2.382255,5,0,5,0,1,,,,,,,,,,,,,,,,,,,,,,,,,,,,,,,,,,,,,,,,,,,,,,,,,,,,,,,,,,,,,,,,
,,,,,,,,,,1576948,2020-10-18_16h59.19.928,swahili,2020.2.4,Linux x86_64,60,,,,,,,,,,,,,,,,,,,,,,YEAST - HAMIRA,,,,,,,,,,return,1.709575,6,0,6,0,1,,,,,,,,,,,,,,,,,,,,,,,,,,,,,,,,,,,,,,,,,,,,,,,,,,,,,,,,,,,,,,,,
,,,,,,,,,,1576948,2020-10-18_16h59.19.928,swahili,2020.2.4,Linux x86_64,60,,,,,,,,,,,,,,,,,,,,,,MANURE - SAMADI,,,,,,,,,,return,1.780615,7,0,7,0,1,,,,,,,,,,,,,,,,,,,,,,,,,,,,,,,,,,,,,,,,,,,,,,,,,,,,,,,,,,,,,,,,
,,,,,,,,,,1576948,2020-10-18_16h59.19.928,swahili,2020.2.4,Linux x86_64,60,,,,,,,,,,,,,,,,,,,,,,OATH - YAMINI,,,,,,,,,,return,1.341455,8,0,8,0,1,,,,,,,,,,,,,,,,,,,,,,,,,,,,,,,,,,,,,,,,,,,,,,,,,,,,,,,,,,,,,,,,
,,,,,,,,,,1576948,2020-10-18_16h59.19.928,swahili,2020.2.4,Linux x86_64,60,,,,,,,,,,,,,,,,,,,,,,AGENT - WAKILI,,,,,,,,,,return,2.176375,9,0,9,0,1,,,,,,,,,,,,,,,,,,,,,,,,,,,,,,,,,,,,,,,,,,,,,,,,,,,,,,,,,,,,,,,,
,,,,,,,,,,1576948,2020-10-18_16h59.19.928,swahili,2020.2.4,Linux x86_64,60,,,,,,,,,,,,,,,,,,,,,,BULL - FAHILI,,,,,,,,,,return,1.9604,10,0,10,0,1,,,,,,,,,,,,,,,,,,,,,,,,,,,,,,,,,,,,,,,,,,,,,,,,,,,,,,,,,,,,,,,,
,,,,,,,,,,1576948,2020-10-18_16h59.19.928,swahili,2020.2.4,Linux x86_64,60,,,,,,,,,,,,,,,,,,,,,,POEM - UTENZI,,,,,,,,,,return,2.82452,11,0,11,0,1,,,,,,,,,,,,,,,,,,,,,,,,,,,,,,,,,,,,,,,,,,,,,,,,,,,,,,,,,,,,,,,,
,,,,,,,,,,1576948,2020-10-18_16h59.19.928,swahili,2020.2.4,Linux x86_64,60,,,,,,,,,,,,,,,,,,,,,,CHEESE - JIBINI,,,,,,,,,,return,1.78105,12,0,12,0,1,,,,,,,,,,,,,,,,,,,,,,,,,,,,,,,,,,,,,,,,,,,,,,,,,,,,,,,,,,,,,,,,
,,,,,,,,,,1576948,2020-10-18_16h59.19.928,swahili,2020.2.4,Linux x86_64,60,,,,,,,,,,,,,,,,,,,,,,BRIBE - RUSHWA,,,,,,,,,,return,1.992125,13,0,13,0,1,,,,,,,,,,,,,,,,,,,,,,,,,,,,,,,,,,,,,,,,,,,,,,,,,,,,,,,,,,,,,,,,
,,,,,,,,,,1576948,2020-10-18_16h59.19.928,swahili,2020.2.4,Linux x86_64,60,,,,,,,,,,,,,,,,,,,,,,GRAPES - ZABIBU,,,,,,,,,,return,2.056425,14,0,14,0,1,,,,,,,,,,,,,,,,,,,,,,,,,,,,,,,,,,,,,,,,,,,,,,,,,,,,,,,,,,,,,,,,
,,,,,,,,,,1576948,2020-10-18_16h59.19.928,swahili,2020.2.4,Linux x86_64,60,,,,,,,,,,,,,,,,,,,,,,GRAVE - KABURI,,,,,,,,,,return,1.90945,15,0,15,0,1,,,,,,,,,,,,,,,,,,,,,,,,,,,,,,,,,,,,,,,,,,,,,,,,,,,,,,,,,,,,,,,,
,,,,,,,,,,1576948,2020-10-18_16h59.19.928,swahili,2020.2.4,Linux x86_64,60,,,,,,,,,,,,,,,,,,,,,,PLATE - SAHANI,,,,,,,,,,return,2.454845,16,0,16,0,1,,,,,,,,,,,,,,,,,,,,,,,,,,,,,,,,,,,,,,,,,,,,,,,,,,,,,,,,,,,,,,,,
,,,,,,,,,,1576948,2020-10-18_16h59.19.928,swahili,2020.2.4,Linux x86_64,60,,,,,,,,,,,,,,,,,,,,,,ORPHAN - YATIMA,,,,,,,,,,return,2.020235,17,0,17,0,1,,,,,,,,,,,,,,,,,,,,,,,,,,,,,,,,,,,,,,,,,,,,,,,,,,,,,,,,,,,,,,,,
,,,,,,,,,,1576948,2020-10-18_16h59.19.928,swahili,2020.2.4,Linux x86_64,60,,,,,,,,,,,,,,,,,,,,,,BLAME - LAWAMA,,,,,,,,,,return,2.0238,18,0,18,0,1,,,,,,,,,,,,,,,,,,,,,,,,,,,,,,,,,,,,,,,,,,,,,,,,,,,,,,,,,,,,,,,,
,,,,,,,,,,1576948,2020-10-18_16h59.19.928,swahili,2020.2.4,Linux x86_64,60,,,,,,,,,,,,,,,,,,,,,,TAILOR - MSHONI,,,,,,,,,,return,2.552265,19,0,19,0,1,,,,,,,,,,,,,,,,,,,,,,,,,,,,,,,,,,,,,,,,,,,,,,,,,,,,,,,,,,,,,,,,
,,,,,,,,,,1576948,2020-10-18_16h59.19.928,swahili,2020.2.4,Linux x86_64,60,,,,,,,,,,,,,,,,,,,,,,,,,,,,,,,,,,,,,,,,0,0,0,0,1,,,,,,,,,,,,,,,,,,,,,,,,,,,,,,,,,,,,,,,,,,,,,,,,,,,,,,,,,,
,,,,,,,,,,1576948,2020-10-18_16h59.19.928,swahili,2020.2.4,Linux x86_64,60,,,,,,,,,,,,,,,,,,,,,,,,,,,,,,,,,,,,,,,,1,0,1,0,1,,,,,,,,,,,,,,,,,,,,,,,,,,,,,,,,,,,,,,,,,,,,,,,,,,,,,,,,,,
,,,,,,,,,,1576948,2020-10-18_16h59.19.928,swahili,2020.2.4,Linux x86_64,60,,,,,,,,,,,,,,,,,,,,,,,,,,,,,,,,,,,,,,,,,,,,,1,0,1,0,1,,,,,,,,,,,,,,,,,,,,,,,,,,,,,,,,,,,,,,,,,,,,,,,,,,,,,
,,,,,,,,,,1576948,2020-10-18_16h59.19.928,swahili,2020.2.4,Linux x86_64,60,,,,,,,,,,-0.359968354,0.105182927,1,0,1,1.513005,unsorted_card,0,0,0,0,1,,,,,,,,,,,,,,,,,,,,,,,,,,,,,,,,,,,,,,,,,,,,,,,,,,,,,,,,,,,,,,,,,,,,,,,,,,,,,,,,,
,,,,,,,,,,1576948,2020-10-18_16h59.19.928,swahili,2020.2.4,Linux x86_64,60,,,,,,,,,,-0.359968354,0.099085366,0,0,1,0.12803,unsorted_card,1,0,1,0,1,MERCHANT - TAJIRI,,,,,,,,,,,,,,,,,,,,,,,,,,,,,,,,,,,,,,,,,,,,,,,,,,,,,,,,,,,,,,,,,,,,,,,,,,,,,,,,
,,,,,,,,,,1576948,2020-10-18_16h59.19.928,swahili,2020.2.4,Linux x86_64,60,,,,,,,,,,0.488924051,0.509146341,1,0,1,1.97688,study_pile,2,0,2,0,1,MERCHANT - TAJIRI,,,,,,,,,,,,,,,,,,,,,,,,,,,,,,,,,,,,,,,,,,,,,,,,,,,,,,,,,,,,,,,,,,,,,,,,,,,,,,,,
,,,,,,,,,,1576948,2020-10-18_16h59.19.928,swahili,2020.2.4,Linux x86_64,60,,,,,,,,,,0.488924051,0.509146341,0,0,1,0.069095,study_pile,3,0,3,0,1,,,,,,,,,,,,,,,,,,,,,,,,,,,,,,,,,,,,,,,,,,,,,,,,,,,,,,,,,,,,,,,,,,,,,,,,,,,,,,,,,
,,,,,,,,,,1576948,2020-10-18_16h59.19.928,swahili,2020.2.4,Linux x86_64,60,,,,,,,,,,-0.141613924,0.06554878,1,0,1,0.605015,unsorted_card,4,0,4,0,1,,,,,,,,,,,,,,,,,,,,,,,,,,,,,,,,,,,,,,,,,,,,,,,,,,,,,,,,,,,,,,,,,,,,,,,,,,,,,,,,,
,,,,,,,,,,1576948,2020-10-18_16h59.19.928,swahili,2020.2.4,Linux x86_64,60,,,,,,,,,,-0.141613924,0.06554878,0,0,1,0.110665,unsorted_card,5,0,5,0,1,PARROT - KASUKU,,,,,,,,,,,,,,,,,,,,,,,,,,,,,,,,,,,,,,,,,,,,,,,,,,,,,,,,,,,,,,,,,,,,,,,,,,,,,,,,
,,,,,,,,,,1576948,2020-10-18_16h59.19.928,swahili,2020.2.4,Linux x86_64,60,,,,,,,,,,0.398734177,0.407012195,1,0,1,2.10164,study_pile,6,0,6,0,1,PARROT - KASUKU,,,,,,,,,,,,,,,,,,,,,,,,,,,,,,,,,,,,,,,,,,,,,,,,,,,,,,,,,,,,,,,,,,,,,,,,,,,,,,,,
,,,,,,,,,,1576948,2020-10-18_16h59.19.928,swahili,2020.2.4,Linux x86_64,60,,,,,,,,,,0.397151899,0.400914634,0,0,1,0.108535,study_pile,7,0,7,0,1,,,,,,,,,,,,,,,,,,,,,,,,,,,,,,,,,,,,,,,,,,,,,,,,,,,,,,,,,,,,,,,,,,,,,,,,,,,,,,,,,
,,,,,,,,,,1576948,2020-10-18_16h59.19.928,swahili,2020.2.4,Linux x86_64,60,,,,,,,,,,-0.144778481,0.022865854,1,0,1,0.356145,unsorted_card,8,0,8,0,1,,,,,,,,,,,,,,,,,,,,,,,,,,,,,,,,,,,,,,,,,,,,,,,,,,,,,,,,,,,,,,,,,,,,,,,,,,,,,,,,,
,,,,,,,,,,1576948,2020-10-18_16h59.19.928,swahili,2020.2.4,Linux x86_64,60,,,,,,,,,,-0.144778481,0.022865854,0,0,1,0.090025,unsorted_card,9,0,9,0,1,BULL - FAHILI,,,,,,,,,,,,,,,,,,,,,,,,,,,,,,,,,,,,,,,,,,,,,,,,,,,,,,,,,,,,,,,,,,,,,,,,,,,,,,,,
,,,,,,,,,,1576948,2020-10-18_16h59.19.928,swahili,2020.2.4,Linux x86_64,60,,,,,,,,,,0.42721519,-0.032012195,1,0,1,1.32478,test_pile,10,0,10,0,1,BULL - FAHILI,,,,,,,,,,,,,,,,,,,,,,,,,,,,,,,,,,,,,,,,,,,,,,,,,,,,,,,,,,,,,,,,,,,,,,,,,,,,,,,,
,,,,,,,,,,1576948,2020-10-18_16h59.19.928,swahili,2020.2.4,Linux x86_64,60,,,,,,,,,,0.42721519,-0.032012195,0,0,1,0.06683,test_pile,11,0,11,0,1,,,,,,,,,,,,,,,,,,,,,,,,,,,,,,,,,,,,,,,,,,,,,,,,,,,,,,,,,,,,,,,,,,,,,,,,,,,,,,,,,
,,,,,,,,,,1576948,2020-10-18_16h59.19.928,swahili,2020.2.4,Linux x86_64,60,,,,,,,,,,-0.231803797,-0.057926829,1,0,1,0.51135,unsorted_card,12,0,12,0,1,,,,,,,,,,,,,,,,,,,,,,,,,,,,,,,,,,,,,,,,,,,,,,,,,,,,,,,,,,,,,,,,,,,,,,,,,,,,,,,,,
,,,,,,,,,,1576948,2020-10-18_16h59.19.928,swahili,2020.2.4,Linux x86_64,60,,,,,,,,,,-0.231803797,-0.057926829,0,0,1,0.052325,unsorted_card,13,0,13,0,1,PLATE - SAHANI,,,,,,,,,,,,,,,,,,,,,,,,,,,,,,,,,,,,,,,,,,,,,,,,,,,,,,,,,,,,,,,,,,,,,,,,,,,,,,,,
,,,,,,,,,,1576948,2020-10-18_16h59.19.928,swahili,2020.2.4,Linux x86_64,60,,,,,,,,,,0.586234177,0.00152439,1,0,1,2.05699,test_pile,14,0,14,0,1,PLATE - SAHANI,,,,,,,,,,,,,,,,,,,,,,,,,,,,,,,,,,,,,,,,,,,,,,,,,,,,,,,,,,,,,,,,,,,,,,,,,,,,,,,,
,,,,,,,,,,1576948,2020-10-18_16h59.19.928,swahili,2020.2.4,Linux x86_64,60,,,,,,,,,,0.586234177,0.00152439,0,0,1,0.089805,test_pile,15,0,15,0,1,,,,,,,,,,,,,,,,,,,,,,,,,,,,,,,,,,,,,,,,,,,,,,,,,,,,,,,,,,,,,,,,,,,,,,,,,,,,,,,,,
,,,,,,,,,,1576948,2020-10-18_16h59.19.928,swahili,2020.2.4,Linux x86_64,60,,,,,,,,,,-0.314082278,-0.074695122,1,0,1,0.323125,unsorted_card,16,0,16,0,1,,,,,,,,,,,,,,,,,,,,,,,,,,,,,,,,,,,,,,,,,,,,,,,,,,,,,,,,,,,,,,,,,,,,,,,,,,,,,,,,,
,,,,,,,,,,1576948,2020-10-18_16h59.19.928,swahili,2020.2.4,Linux x86_64,60,,,,,,,,,,-0.314082278,-0.074695122,0,0,1,0.09018,unsorted_card,17,0,17,0,1,YEAST - HAMIRA,,,,,,,,,,,,,,,,,,,,,,,,,,,,,,,,,,,,,,,,,,,,,,,,,,,,,,,,,,,,,,,,,,,,,,,,,,,,,,,,
,,,,,,,,,,1576948,2020-10-18_16h59.19.928,swahili,2020.2.4,Linux x86_64,60,,,,,,,,,,0.453322785,0.012195122,1,0,1,1.09839,test_pile,18,0,18,0,1,YEAST - HAMIRA,,,,,,,,,,,,,,,,,,,,,,,,,,,,,,,,,,,,,,,,,,,,,,,,,,,,,,,,,,,,,,,,,,,,,,,,,,,,,,,,
,,,,,,,,,,1576948,2020-10-18_16h59.19.928,swahili,2020.2.4,Linux x86_64,60,,,,,,,,,,0.453322785,0.012195122,0,0,1,0.09196,test_pile,19,0,19,0,1,,,,,,,,,,,,,,,,,,,,,,,,,,,,,,,,,,,,,,,,,,,,,,,,,,,,,,,,,,,,,,,,,,,,,,,,,,,,,,,,,
,,,,,,,,,,1576948,2020-10-18_16h59.19.928,swahili,2020.2.4,Linux x86_64,60,,,,,,,,,,-0.268196203,-0.048780488,1,0,1,0.26442,unsorted_card,20,0,20,0,1,,,,,,,,,,,,,,,,,,,,,,,,,,,,,,,,,,,,,,,,,,,,,,,,,,,,,,,,,,,,,,,,,,,,,,,,,,,,,,,,,
,,,,,,,,,,1576948,2020-10-18_16h59.19.928,swahili,2020.2.4,Linux x86_64,60,,,,,,,,,,-0.268196203,-0.048780488,0,0,1,0.09194,unsorted_card,21,0,21,0,1,BLAME - LAWAMA,,,,,,,,,,,,,,,,,,,,,,,,,,,,,,,,,,,,,,,,,,,,,,,,,,,,,,,,,,,,,,,,,,,,,,,,,,,,,,,,
,,,,,,,,,,1576948,2020-10-18_16h59.19.928,swahili,2020.2.4,Linux x86_64,60,,,,,,,,,,0.493670886,0.477134146,1,0,1,24.367365,study_pile,22,0,22,0,1,BLAME - LAWAMA,,,,,,,,,,,,,,,,,,,,,,,,,,,,,,,,,,,,,,,,,,,,,,,,,,,,,,,,,,,,,,,,,,,,,,,,,,,,,,,,
,,,,,,,,,,1576948,2020-10-18_16h59.19.928,swahili,2020.2.4,Linux x86_64,60,,,,,,,,,,0.493670886,0.478658537,0,0,1,0.06838,study_pile,23,0,23,0,1,,,,,,,,,,,,,,,,,,,,,,,,,,,,,,,,,,,,,,,,,,,,,,,,,,,,,,,,,,,,,,,,,,,,,,,,,,,,,,,,,
,,,,,,,,,,1576948,2020-10-18_16h59.19.928,swahili,2020.2.4,Linux x86_64,60,,,,,,,,,,-0.292721519,0.035060976,1,0,1,0.83565,unsorted_card,24,0,24,0,1,,,,,,,,,,,,,,,,,,,,,,,,,,,,,,,,,,,,,,,,,,,,,,,,,,,,,,,,,,,,,,,,,,,,,,,,,,,,,,,,,
,,,,,,,,,,1576948,2020-10-18_16h59.19.928,swahili,2020.2.4,Linux x86_64,60,,,,,,,,,,-0.292721519,0.030487805,0,0,1,0.089045,unsorted_card,25,0,25,0,1,OATH - YAMINI,,,,,,,,,,,,,,,,,,,,,,,,,,,,,,,,,,,,,,,,,,,,,,,,,,,,,,,,,,,,,,,,,,,,,,,,,,,,,,,,
,,,,,,,,,,1576948,2020-10-18_16h59.19.928,swahili,2020.2.4,Linux x86_64,60,,,,,,,,,,0.392405063,0.544207317,1,0,1,2.351615,study_pile,26,0,26,0,1,OATH - YAMINI,,,,,,,,,,,,,,,,,,,,,,,,,,,,,,,,,,,,,,,,,,,,,,,,,,,,,,,,,,,,,,,,,,,,,,,,,,,,,,,,
,,,,,,,,,,1576948,2020-10-18_16h59.19.928,swahili,2020.2.4,Linux x86_64,60,,,,,,,,,,0.391613924,0.536585366,0,0,1,0.069645,study_pile,27,0,27,0,1,,,,,,,,,,,,,,,,,,,,,,,,,,,,,,,,,,,,,,,,,,,,,,,,,,,,,,,,,,,,,,,,,,,,,,,,,,,,,,,,,
,,,,,,,,,,1576948,2020-10-18_16h59.19.928,swahili,2020.2.4,Linux x86_64,60,,,,,,,,,,-0.257911392,0.009146341,1,0,1,0.468275,unsorted_card,28,0,28,0,1,,,,,,,,,,,,,,,,,,,,,,,,,,,,,,,,,,,,,,,,,,,,,,,,,,,,,,,,,,,,,,,,,,,,,,,,,,,,,,,,,
,,,,,,,,,,1576948,2020-10-18_16h59.19.928,swahili,2020.2.4,Linux x86_64,60,,,,,,,,,,-0.257911392,0.009146341,0,0,1,0.10754,unsorted_card,29,0,29,0,1,CORN - NAFAKA,,,,,,,,,,,,,,,,,,,,,,,,,,,,,,,,,,,,,,,,,,,,,,,,,,,,,,,,,,,,,,,,,,,,,,,,,,,,,,,,
,,,,,,,,,,1576948,2020-10-18_16h59.19.928,swahili,2020.2.4,Linux x86_64,60,,,,,,,,,,0.362341772,0.033536585,1,0,1,1.190785,test_pile,30,0,30,0,1,CORN - NAFAKA,,,,,,,,,,,,,,,,,,,,,,,,,,,,,,,,,,,,,,,,,,,,,,,,,,,,,,,,,,,,,,,,,,,,,,,,,,,,,,,,
,,,,,,,,,,1576948,2020-10-18_16h59.19.928,swahili,2020.2.4,Linux x86_64,60,,,,,,,,,,0.362341772,0.033536585,0,0,1,0.090195,test_pile,31,0,31,0,1,,,,,,,,,,,,,,,,,,,,,,,,,,,,,,,,,,,,,,,,,,,,,,,,,,,,,,,,,,,,,,,,,,,,,,,,,,,,,,,,,
,,,,,,,,,,1576948,2020-10-18_16h59.19.928,swahili,2020.2.4,Linux x86_64,60,,,,,,,,,,-0.28164557,-0.013719512,1,0,1,0.26533,unsorted_card,32,0,32,0,1,,,,,,,,,,,,,,,,,,,,,,,,,,,,,,,,,,,,,,,,,,,,,,,,,,,,,,,,,,,,,,,,,,,,,,,,,,,,,,,,,
,,,,,,,,,,1576948,2020-10-18_16h59.19.928,swahili,2020.2.4,Linux x86_64,60,,,,,,,,,,-0.28164557,-0.013719512,0,0,1,0.070245,unsorted_card,33,0,33,0,1,POEM - UTENZI,,,,,,,,,,,,,,,,,,,,,,,,,,,,,,,,,,,,,,,,,,,,,,,,,,,,,,,,,,,,,,,,,,,,,,,,,,,,,,,,
,,,,,,,,,,1576948,2020-10-18_16h59.19.928,swahili,2020.2.4,Linux x86_64,60,,,,,,,,,,0.450158228,-0.00152439,1,0,1,1.17084,test_pile,34,0,34,0,1,POEM - UTENZI,,,,,,,,,,,,,,,,,,,,,,,,,,,,,,,,,,,,,,,,,,,,,,,,,,,,,,,,,,,,,,,,,,,,,,,,,,,,,,,,
,,,,,,,,,,1576948,2020-10-18_16h59.19.928,swahili,2020.2.4,Linux x86_64,60,,,,,,,,,,0.450158228,-0.00152439,0,0,1,0.072585,test_pile,35,0,35,0,1,,,,,,,,,,,,,,,,,,,,,,,,,,,,,,,,,,,,,,,,,,,,,,,,,,,,,,,,,,,,,,,,,,,,,,,,,,,,,,,,,
,,,,,,,,,,1576948,2020-10-18_16h59.19.928,swahili,2020.2.4,Linux x86_64,60,,,,,,,,,,-0.204113924,-0.071646341,1,0,1,0.285005,unsorted_card,36,0,36,0,1,,,,,,,,,,,,,,,,,,,,,,,,,,,,,,,,,,,,,,,,,,,,,,,,,,,,,,,,,,,,,,,,,,,,,,,,,,,,,,,,,
,,,,,,,,,,1576948,2020-10-18_16h59.19.928,swahili,2020.2.4,Linux x86_64,60,,,,,,,,,,-0.204113924,-0.071646341,0,0,1,0.069895,unsorted_card,37,0,37,0,1,TAILOR - MSHONI,,,,,,,,,,,,,,,,,,,,,,,,,,,,,,,,,,,,,,,,,,,,,,,,,,,,,,,,,,,,,,,,,,,,,,,,,,,,,,,,
,,,,,,,,,,1576948,2020-10-18_16h59.19.928,swahili,2020.2.4,Linux x86_64,60,,,,,,,,,,0.409018987,-0.086890244,1,0,1,1.48612,test_pile,38,0,38,0,1,TAILOR - MSHONI,,,,,,,,,,,,,,,,,,,,,,,,,,,,,,,,,,,,,,,,,,,,,,,,,,,,,,,,,,,,,,,,,,,,,,,,,,,,,,,,
,,,,,,,,,,1576948,2020-10-18_16h59.19.928,swahili,2020.2.4,Linux x86_64,60,,,,,,,,,,0.409018987,-0.086890244,0,0,1,0.089575,test_pile,39,0,39,0,1,,,,,,,,,,,,,,,,,,,,,,,,,,,,,,,,,,,,,,,,,,,,,,,,,,,,,,,,,,,,,,,,,,,,,,,,,,,,,,,,,
,,,,,,,,,,1576948,2020-10-18_16h59.19.928,swahili,2020.2.4,Linux x86_64,60,,,,,,,,,,-0.261867089,-0.071646341,1,0,1,0.30231,unsorted_card,40,0,40,0,1,,,,,,,,,,,,,,,,,,,,,,,,,,,,,,,,,,,,,,,,,,,,,,,,,,,,,,,,,,,,,,,,,,,,,,,,,,,,,,,,,
,,,,,,,,,,1576948,2020-10-18_16h59.19.928,swahili,2020.2.4,Linux x86_64,60,,,,,,,,,,-0.261867089,-0.082317073,0,0,1,0.1065,unsorted_card,41,0,41,0,1,CHEESE - JIBINI,,,,,,,,,,,,,,,,,,,,,,,,,,,,,,,,,,,,,,,,,,,,,,,,,,,,,,,,,,,,,,,,,,,,,,,,,,,,,,,,
,,,,,,,,,,1576948,2020-10-18_16h59.19.928,swahili,2020.2.4,Linux x86_64,60,,,,,,,,,,0.428006329,-0.0625,1,0,1,0.953425,test_pile,42,0,42,0,1,CHEESE - JIBINI,,,,,,,,,,,,,,,,,,,,,,,,,,,,,,,,,,,,,,,,,,,,,,,,,,,,,,,,,,,,,,,,,,,,,,,,,,,,,,,,
,,,,,,,,,,1576948,2020-10-18_16h59.19.928,swahili,2020.2.4,Linux x86_64,60,,,,,,,,,,0.428006329,-0.0625,0,0,1,0.07038,test_pile,43,0,43,0,1,,,,,,,,,,,,,,,,,,,,,,,,,,,,,,,,,,,,,,,,,,,,,,,,,,,,,,,,,,,,,,,,,,,,,,,,,,,,,,,,,
,,,,,,,,,,1576948,2020-10-18_16h59.19.928,swahili,2020.2.4,Linux x86_64,60,,,,,,,,,,-0.213607595,-0.091463415,1,0,1,0.302035,unsorted_card,44,0,44,0,1,,,,,,,,,,,,,,,,,,,,,,,,,,,,,,,,,,,,,,,,,,,,,,,,,,,,,,,,,,,,,,,,,,,,,,,,,,,,,,,,,
,,,,,,,,,,1576948,2020-10-18_16h59.19.928,swahili,2020.2.4,Linux x86_64,60,,,,,,,,,,-0.213607595,-0.091463415,0,0,1,0.055195,unsorted_card,45,0,45,0,1,GRAPES - ZABIBU,,,,,,,,,,,,,,,,,,,,,,,,,,,,,,,,,,,,,,,,,,,,,,,,,,,,,,,,,,,,,,,,,,,,,,,,,,,,,,,,
,,,,,,,,,,1576948,2020-10-18_16h59.19.928,swahili,2020.2.4,Linux x86_64,60,,,,,,,,,,0.576740506,0.006097561,1,0,1,1.697075,test_pile,46,0,46,0,1,GRAPES - ZABIBU,,,,,,,,,,,,,,,,,,,,,,,,,,,,,,,,,,,,,,,,,,,,,,,,,,,,,,,,,,,,,,,,,,,,,,,,,,,,,,,,
,,,,,,,,,,1576948,2020-10-18_16h59.19.928,swahili,2020.2.4,Linux x86_64,60,,,,,,,,,,0.576740506,0.006097561,0,0,1,0.06914,test_pile,47,0,47,0,1,,,,,,,,,,,,,,,,,,,,,,,,,,,,,,,,,,,,,,,,,,,,,,,,,,,,,,,,,,,,,,,,,,,,,,,,,,,,,,,,,
,,,,,,,,,,1576948,2020-10-18_16h59.19.928,swahili,2020.2.4,Linux x86_64,60,,,,,,,,,,-0.279272152,0.015243902,1,0,1,0.56314,unsorted_card,48,0,48,0,1,,,,,,,,,,,,,,,,,,,,,,,,,,,,,,,,,,,,,,,,,,,,,,,,,,,,,,,,,,,,,,,,,,,,,,,,,,,,,,,,,
,,,,,,,,,,1576948,2020-10-18_16h59.19.928,swahili,2020.2.4,Linux x86_64,60,,,,,,,,,,-0.279272152,0.016768293,0,0,1,0.089955,unsorted_card,49,0,49,0,1,GRAVE - KABURI,,,,,,,,,,,,,,,,,,,,,,,,,,,,,,,,,,,,,,,,,,,,,,,,,,,,,,,,,,,,,,,,,,,,,,,,,,,,,,,,
,,,,,,,,,,1576948,2020-10-18_16h59.19.928,swahili,2020.2.4,Linux x86_64,60,,,,,,,,,,0.455696203,0.349085366,1,0,1,0.978185,study_pile,50,0,50,0,1,GRAVE - KABURI,,,,,,,,,,,,,,,,,,,,,,,,,,,,,,,,,,,,,,,,,,,,,,,,,,,,,,,,,,,,,,,,,,,,,,,,,,,,,,,,
,,,,,,,,,,1576948,2020-10-18_16h59.19.928,swahili,2020.2.4,Linux x86_64,60,,,,,,,,,,-0.227056962,0.041158537,1,0,1,0.45237,unsorted_card,51,0,51,0,1,,,,,,,,,,,,,,,,,,,,,,,,,,,,,,,,,,,,,,,,,,,,,,,,,,,,,,,,,,,,,,,,,,,,,,,,,,,,,,,,,
,,,,,,,,,,1576948,2020-10-18_16h59.19.928,swahili,2020.2.4,Linux x86_64,60,,,,,,,,,,-0.227056962,0.041158537,0,0,1,0.109535,unsorted_card,52,0,52,0,1,MANURE - SAMADI,,,,,,,,,,,,,,,,,,,,,,,,,,,,,,,,,,,,,,,,,,,,,,,,,,,,,,,,,,,,,,,,,,,,,,,,,,,,,,,,
,,,,,,,,,,1576948,2020-10-18_16h59.19.928,swahili,2020.2.4,Linux x86_64,60,,,,,,,,,,0.438291139,0.070121951,1,0,1,3.32717,test_pile,53,0,53,0,1,MANURE - SAMADI,,,,,,,,,,,,,,,,,,,,,,,,,,,,,,,,,,,,,,,,,,,,,,,,,,,,,,,,,,,,,,,,,,,,,,,,,,,,,,,,
,,,,,,,,,,1576948,2020-10-18_16h59.19.928,swahili,2020.2.4,Linux x86_64,60,,,,,,,,,,0.438291139,0.070121951,0,0,1,0.10287,test_pile,54,0,54,0,1,,,,,,,,,,,,,,,,,,,,,,,,,,,,,,,,,,,,,,,,,,,,,,,,,,,,,,,,,,,,,,,,,,,,,,,,,,,,,,,,,
,,,,,,,,,,1576948,2020-10-18_16h59.19.928,swahili,2020.2.4,Linux x86_64,60,,,,,,,,,,-0.112341772,0.028963415,1,0,1,0.22147,unsorted_card,55,0,55,0,1,,,,,,,,,,,,,,,,,,,,,,,,,,,,,,,,,,,,,,,,,,,,,,,,,,,,,,,,,,,,,,,,,,,,,,,,,,,,,,,,,
,,,,,,,,,,1576948,2020-10-18_16h59.19.928,swahili,2020.2.4,Linux x86_64,60,,,,,,,,,,-0.112341772,0.028963415,0,0,1,0.09107,unsorted_card,56,0,56,0,1,AGENT - WAKILI,,,,,,,,,,,,,,,,,,,,,,,,,,,,,,,,,,,,,,,,,,,,,,,,,,,,,,,,,,,,,,,,,,,,,,,,,,,,,,,,
,,,,,,,,,,1576948,2020-10-18_16h59.19.928,swahili,2020.2.4,Linux x86_64,60,,,,,,,,,,0.642405063,0.522865854,1,0,1,1.460555,study_pile,57,0,57,0,1,AGENT - WAKILI,,,,,,,,,,,,,,,,,,,,,,,,,,,,,,,,,,,,,,,,,,,,,,,,,,,,,,,,,,,,,,,,,,,,,,,,,,,,,,,,
,,,,,,,,,,1576948,2020-10-18_16h59.19.928,swahili,2020.2.4,Linux x86_64,60,,,,,,,,,,0.642405063,0.522865854,0,0,1,0.068685,study_pile,58,0,58,0,1,,,,,,,,,,,,,,,,,,,,,,,,,,,,,,,,,,,,,,,,,,,,,,,,,,,,,,,,,,,,,,,,,,,,,,,,,,,,,,,,,
,,,,,,,,,,1576948,2020-10-18_16h59.19.928,swahili,2020.2.4,Linux x86_64,60,,,,,,,,,,-0.309335443,0.097560976,1,0,1,0.263825,unsorted_card,59,0,59,0,1,,,,,,,,,,,,,,,,,,,,,,,,,,,,,,,,,,,,,,,,,,,,,,,,,,,,,,,,,,,,,,,,,,,,,,,,,,,,,,,,,
,,,,,,,,,,1576948,2020-10-18_16h59.19.928,swahili,2020.2.4,Linux x86_64,60,,,,,,,,,,-0.309335443,0.097560976,0,0,1,0.11036,unsorted_card,60,0,60,0,1,BRIBE - RUSHWA,,,,,,,,,,,,,,,,,,,,,,,,,,,,,,,,,,,,,,,,,,,,,,,,,,,,,,,,,,,,,,,,,,,,,,,,,,,,,,,,
,,,,,,,,,,1576948,2020-10-18_16h59.19.928,swahili,2020.2.4,Linux x86_64,60,,,,,,,,,,0.461234177,0.030487805,1,0,1,1.44894,test_pile,61,0,61,0,1,BRIBE - RUSHWA,,,,,,,,,,,,,,,,,,,,,,,,,,,,,,,,,,,,,,,,,,,,,,,,,,,,,,,,,,,,,,,,,,,,,,,,,,,,,,,,
,,,,,,,,,,1576948,2020-10-18_16h59.19.928,swahili,2020.2.4,Linux x86_64,60,,,,,,,,,,0.461234177,0.030487805,0,0,1,0.09013,test_pile,62,0,62,0,1,,,,,,,,,,,,,,,,,,,,,,,,,,,,,,,,,,,,,,,,,,,,,,,,,,,,,,,,,,,,,,,,,,,,,,,,,,,,,,,,,
,,,,,,,,,,1576948,2020-10-18_16h59.19.928,swahili,2020.2.4,Linux x86_64,60,,,,,,,,,,-0.397151899,0.019817073,1,0,1,0.22266,unsorted_card,63,0,63,0,1,,,,,,,,,,,,,,,,,,,,,,,,,,,,,,,,,,,,,,,,,,,,,,,,,,,,,,,,,,,,,,,,,,,,,,,,,,,,,,,,,
,,,,,,,,,,1576948,2020-10-18_16h59.19.928,swahili,2020.2.4,Linux x86_64,60,,,,,,,,,,-0.397151899,0.019817073,0,0,1,0.10643,unsorted_card,64,0,64,0,1,ORPHAN - YATIMA,,,,,,,,,,,,,,,,,,,,,,,,,,,,,,,,,,,,,,,,,,,,,,,,,,,,,,,,,,,,,,,,,,,,,,,,,,,,,,,,
,,,,,,,,,,1576948,2020-10-18_16h59.19.928,swahili,2020.2.4,Linux x86_64,60,,,,,,,,,,0.5,-0.024390244,1,0,1,1.327535,test_pile,65,0,65,0,1,ORPHAN - YATIMA,,,,,,,,,,,,,,,,,,,,,,,,,,,,,,,,,,,,,,,,,,,,,,,,,,,,,,,,,,,,,,,,,,,,,,,,,,,,,,,,
,,,,,,,,,,1576948,2020-10-18_16h59.19.928,swahili,2020.2.4,Linux x86_64,60,,,,,,,,,,0.497626582,-0.024390244,0,0,1,0.10715,test_pile,66,0,66,0,1,,,,,,,,,,,,,,,,,,,,,,,,,,,,,,,,,,,,,,,,,,,,,,,,,,,,,,,,,,,,,,,,,,,,,,,,,,,,,,,,,
,,,,,,,,,,1576948,2020-10-18_16h59.19.928,swahili,2020.2.4,Linux x86_64,60,,,,,,,,,,-0.284018987,0.117378049,1,0,1,0.245035,unsorted_card,67,0,67,0,1,,,,,,,,,,,,,,,,,,,,,,,,,,,,,,,,,,,,,,,,,,,,,,,,,,,,,,,,,,,,,,,,,,,,,,,,,,,,,,,,,
,,,,,,,,,,1576948,2020-10-18_16h59.19.928,swahili,2020.2.4,Linux x86_64,60,,,,,,,,,,-0.284018987,0.117378049,0,0,1,0.09033,unsorted_card,68,0,68,0,1,DIVORCE - TALAKA,,,,,,,,,,,,,,,,,,,,,,,,,,,,,,,,,,,,,,,,,,,,,,,,,,,,,,,,,,,,,,,,,,,,,,,,,,,,,,,,
,,,,,,,,,,1576948,2020-10-18_16h59.19.928,swahili,2020.2.4,Linux x86_64,60,,,,,,,,,,0.523734177,0.37347561,1,0,1,1.16046,study_pile,69,0,69,0,1,DIVORCE - TALAKA,,,,,,,,,,,,,,,,,,,,,,,,,,,,,,,,,,,,,,,,,,,,,,,,,,,,,,,,,,,,,,,,,,,,,,,,,,,,,,,,
,,,,,,,,,,1576948,2020-10-18_16h59.19.928,swahili,2020.2.4,Linux x86_64,60,,,,,,,,,,0.523734177,0.37347561,0,0,1,0.01665,study_pile,70,0,70,0,1,,,,,,,,,,,,,,,,,,,,,,,,,,,,,,,,,,,,,,,,,,,,,,,,,,,,,,,,,,,,,,,,,,,,,,,,,,,,,,,,,
,,,,,,,,,,1576948,2020-10-18_16h59.19.928,swahili,2020.2.4,Linux x86_64,60,,,,,,,,,,-0.232594937,0.144817073,1,0,1,0.35892,unsorted_card,71,0,71,0,1,,,,,,,,,,,,,,,,,,,,,,,,,,,,,,,,,,,,,,,,,,,,,,,,,,,,,,,,,,,,,,,,,,,,,,,,,,,,,,,,,
,,,,,,,,,,1576948,2020-10-18_16h59.19.928,swahili,2020.2.4,Linux x86_64,60,,,,,,,,,,-0.232594937,0.144817073,0,0,1,0.09033,unsorted_card,72,0,72,0,1,BOAT - MASHUA,,,,,,,,,,,,,,,,,,,,,,,,,,,,,,,,,,,,,,,,,,,,,,,,,,,,,,,,,,,,,,,,,,,,,,,,,,,,,,,,
,,,,,,,,,,1576948,2020-10-18_16h59.19.928,swahili,2020.2.4,Linux x86_64,60,,,,,,,,,,0.554588608,-0.045731707,1,0,1,3.02564,test_pile,73,0,73,0,1,BOAT - MASHUA,,,,,,,,,,,,,,,,,,,,,,,,,,,,,,,,,,,,,,,,,,,,,,,,,,,,,,,,,,,,,,,,,,,,,,,,,,,,,,,,
,,,,,,,,,,1576948,2020-10-18_16h59.19.928,swahili,2020.2.4,Linux x86_64,60,,,,,,,,,,0.554588608,-0.048780488,0,0,1,0.101155,test_pile,74,0,74,0,1,,,,,,,,,,,,,,,,,,,,,,,,,,,,,,,,,,,,,,,,,,,,,,,,,,,,,,,,,,,,,,,,,,,,,,,,,,,,,,,,,
,,,,,,,,,,1576948,2020-10-18_16h59.19.928,swahili,2020.2.4,Linux x86_64,60,,,,,,,,,,-0.131329114,0.12195122,1,0,1,0.276235,unsorted_card,75,0,75,0,1,,,,,,,,,,,,,,,,,,,,,,,,,,,,,,,,,,,,,,,,,,,,,,,,,,,,,,,,,,,,,,,,,,,,,,,,,,,,,,,,,
,,,,,,,,,,1576948,2020-10-18_16h59.19.928,swahili,2020.2.4,Linux x86_64,60,,,,,,,,,,-0.131329114,0.12195122,0,0,1,0.05561,unsorted_card,76,0,76,0,1,TREASURE - DAFINA,,,,,,,,,,,,,,,,,,,,,,,,,,,,,,,,,,,,,,,,,,,,,,,,,,,,,,,,,,,,,,,,,,,,,,,,,,,,,,,,
,,,,,,,,,,1576948,2020-10-18_16h59.19.928,swahili,2020.2.4,Linux x86_64,60,,,,,,,,,,0.48971519,0.053353659,1,0,1,3.18501,test_pile,77,0,77,0,1,TREASURE - DAFINA,,,,,,,,,,,,,,,,,,,,,,,,,,,,,,,,,,,,,,,,,,,,,,,,,,,,,,,,,,,,,,,,,,,,,,,,,,,,,,,,
,,,,,,,,,,1576948,2020-10-18_16h59.19.928,swahili,2020.2.4,Linux x86_64,60,,,,,,,,,,,,,,,,,,,,,,,0.48971519,0.053353659,0,0,1,0.091625,test_first,,,,,0,0,0,0,1,,,,,,,,,,,,,,,,,,,,,,,,,,,,,,,,,,,,,,,,,,,,,,,,,,,,,,,,,,,,,,,,
,,,,,,,,,,1576948,2020-10-18_16h59.19.928,swahili,2020.2.4,Linux x86_64,60,,,,,,,,,,,,,,,,,,,,,,,,,,,,,,,,,,,,,,,return,,,,,,,,,,,10.987355,9.894945,0.361550633,-0.152439024,1,0,1,1.76022,yes,BULL,FATIMA,incorrect,0,0,0,0,1,,,,,,,,,,,,,,,,,,,,,,,,,,,,,,,,,,,,
,,,,,,,,,,1576948,2020-10-18_16h59.19.928,swahili,2020.2.4,Linux x86_64,60,,,,,,,,,,,,,,,,,,,,,,,,,,,,,,,,,,,,,,,,,,,,,,,,,,,3.13446,0.518987342,-0.030487805,1,0,1,0.834875,yes,ORPHAN,YATIMA,incorrect,1,0,1,0,1,,,,,,,,,,,,,,,,,,,,,,,,,,,,,,,,,,,,
,,,,,,,,,,1576948,2020-10-18_16h59.19.928,swahili,2020.2.4,Linux x86_64,60,,,,,,,,,,,,,,,,,,,,,,,,,,,,,,,,,,,,,,,,,,,,,,,,,,,14.08596,0.475474684,0.164634146,1,0,1,0.85552,yes,CORN,NAFAKA,incorrect,2,0,2,0,1,,,,,,,,,,,,,,,,,,,,,,,,,,,,,,,,,,,,
,,,,,,,,,,1576948,2020-10-18_16h59.19.928,swahili,2020.2.4,Linux x86_64,60,,,,,,,,,,,,,,,,,,,,,,,,,,,,,,,,,,,,,,,,,,,,,,,,,,,5.350555,0.382911392,-0.094512195,1,0,1,1.38536,yes,BRIBE,RUSHWA,incorrect,3,0,3,0,1,,,,,,,,,,,,,,,,,,,,,,,,,,,,,,,,,,,,
,,,,,,,,,,1576948,2020-10-18_16h59.19.928,swahili,2020.2.4,Linux x86_64,60,,,,,,,,,,,,,,,,,,,,,,,,,,,,,,,,,,,,,,,,,,,,,,,,,,,9.186775,0.319620253,0.00304878,1,0,1,0.83373,yes,GRAPES,NABIBI,incorrect,4,0,4,0,1,,,,,,,,,,,,,,,,,,,,,,,,,,,,,,,,,,,,
,,,,,,,,,,1576948,2020-10-18_16h59.19.928,swahili,2020.2.4,Linux x86_64,60,,,,,,,,,,,,,,,,,,,,,,,,,,,,,,,,,,,,,,,,,,,,,,,,,,,16.70384,0.571993671,-0.109756098,1,0,1,0.732065,yes,PLATE,YBLAH,incorrect,5,0,5,0,1,,,,,,,,,,,,,,,,,,,,,,,,,,,,,,,,,,,,
,,,,,,,,,,1576948,2020-10-18_16h59.19.928,swahili,2020.2.4,Linux x86_64,60,,,,,,,,,,,,,,,,,,,,,,,,,,,,,,,,,,,,,,,,,,,,,,,,,,,16.51348,0.313291139,-0.044207317,1,0,1,0.83619,yes,BOAT,MUSHUA,incorrect,6,0,6,0,1,,,,,,,,,,,,,,,,,,,,,,,,,,,,,,,,,,,,
,,,,,,,,,,1576948,2020-10-18_16h59.19.928,swahili,2020.2.4,Linux x86_64,60,,,,,,,,,,,,,,,,,,,,,,,,,,,,,,,,,,,,,,,,,,,,,,,,,,,6.16552,0.397943038,-0.12804878,1,0,1,1.12368,yes,TREASURE,DAFINA,incorrect,7,0,7,0,1,,,,,,,,,,,,,,,,,,,,,,,,,,,,,,,,,,,,
,,,,,,,,,,1576948,2020-10-18_16h59.19.928,swahili,2020.2.4,Linux x86_64,60,,,,,,,,,,,,,,,,,,,,,,,,,,,,,,,,,,,,,,,,,,,,,,,,,,,3.742095,0.40664557,0.217987805,1,0,1,0.88034,yes,POEM,UTENZI,incorrect,8,0,8,0,1,,,,,,,,,,,,,,,,,,,,,,,,,,,,,,,,,,,,
,,,,,,,,,,1576948,2020-10-18_16h59.19.928,swahili,2020.2.4,Linux x86_64,60,,,,,,,,,,,,,,,,,,,,,,,,,,,,,,,,,,,,,,,,,,,,,,,,,,,11.13504,0.362341772,0.141768293,1,0,1,0.836765,yes,TAILOR,MSHUA,incorrect,9,0,9,0,1,,,,,,,,,,,,,,,,,,,,,,,,,,,,,,,,,,,,
,,,,,,,,,,1576948,2020-10-18_16h59.19.928,swahili,2020.2.4,Linux x86_64,60,,,,,,,,,,,,,,,,,,,,,,,,,,,,,,,,,,,,,,,,,,,,,,,,,,,6.345455,0.439082278,-0.024390244,1,0,1,0.79477,yes,YEAST,HAMINI,incorrect,10,0,10,0,1,,,,,,,,,,,,,,,,,,,,,,,,,,,,,,,,,,,,
,,,,,,,,,,1576948,2020-10-18_16h59.19.928,swahili,2020.2.4,Linux x86_64,60,,,,,,,,,,,,,,,,,,,,,,,,,,,,,,,,,,,,,,,,,,,,,,,,,,,2.14705,0.3125,0.042682927,1,0,1,0.624445,yes,CHEESE,JIBINI,incorrect,11,0,11,0,1,,,,,,,,,,,,,,,,,,,,,,,,,,,,,,,,,,,,
,,,,,,,,,,1576948,2020-10-18_16h59.19.928,swahili,2020.2.4,Linux x86_64,60,,,,,,,,,,,,,,,,,,,,,,,,,,,,,,,,,,,,,,,,,,,,,,,,,,,6.525805,0.242879747,-0.05945122,1,0,1,0.62659,yes,MANURE,SAMARA,incorrect,12,0,12,0,1,,,,,,,,,,,,,,,,,,,,,,,,,,,,,,,,,,,,
,,,,,,,,,,1576948,2020-10-18_16h59.19.928,swahili,2020.2.4,Linux x86_64,60,,,,,,,,,,,,,,,,,,,,,,,,,,,,,,,,,,,,,,,,0,0,0,0,1,,,,,,,,,,,,,,,,,,,,,,,,,,,,,,,,,,,,,,,,,,,,,,,,,,,,,,,,,,
,,,,,,,,,,1576948,2020-10-18_16h59.19.928,swahili,2020.2.4,Linux x86_64,60,,,,,,,,,,,,,,,,,,,,,,GRAVE - KABURI,,,,,,,,return,2.39511,return,3.404145,0,0,0,0,1,,,,,,,,,,,,,,,,,,,,,,,,,,,,,,,,,,,,,,,,,,,,,,,,,,,,,,,,,,,,,,,,
,,,,,,,,,,1576948,2020-10-18_16h59.19.928,swahili,2020.2.4,Linux x86_64,60,,,,,,,,,,,,,,,,,,,,,,AGENT - WAKILI,,,,,,,,,,return,2.862435,1,0,1,0,1,,,,,,,,,,,,,,,,,,,,,,,,,,,,,,,,,,,,,,,,,,,,,,,,,,,,,,,,,,,,,,,,
,,,,,,,,,,1576948,2020-10-18_16h59.19.928,swahili,2020.2.4,Linux x86_64,60,,,,,,,,,,,,,,,,,,,,,,OATH - YAMINI,,,,,,,,,,return,9.318375,2,0,2,0,1,,,,,,,,,,,,,,,,,,,,,,,,,,,,,,,,,,,,,,,,,,,,,,,,,,,,,,,,,,,,,,,,
,,,,,,,,,,1576948,2020-10-18_16h59.19.928,swahili,2020.2.4,Linux x86_64,60,,,,,,,,,,,,,,,,,,,,,,BLAME - LAWAMA,,,,,,,,,,return,3.765355,3,0,3,0,1,,,,,,,,,,,,,,,,,,,,,,,,,,,,,,,,,,,,,,,,,,,,,,,,,,,,,,,,,,,,,,,,
,,,,,,,,,,1576948,2020-10-18_16h59.19.928,swahili,2020.2.4,Linux x86_64,60,,,,,,,,,,,,,,,,,,,,,,PARROT - KASUKU,,,,,,,,,,return,4.54083,4,0,4,0,1,,,,,,,,,,,,,,,,,,,,,,,,,,,,,,,,,,,,,,,,,,,,,,,,,,,,,,,,,,,,,,,,
,,,,,,,,,,1576948,2020-10-18_16h59.19.928,swahili,2020.2.4,Linux x86_64,60,,,,,,,,,,,,,,,,,,,,,,DIVORCE - TALAKA,,,,,,,,,,return,11.5235,5,0,5,0,1,,,,,,,,,,,,,,,,,,,,,,,,,,,,,,,,,,,,,,,,,,,,,,,,,,,,,,,,,,,,,,,,
,,,,,,,,,,1576948,2020-10-18_16h59.19.928,swahili,2020.2.4,Linux x86_64,60,,,,,,,,,,,,,,,,,,,,,,MERCHANT - TAJIRI,,,,,,,,,,return,6.776255,6,0,6,0,1,,,,,,,,,,,,,,,,,,,,,,,,,,,,,,,,,,,,,,,,,,,,,,,,,,,,,,,,,,,,,,,,
,,,,,,,,,,1576948,2020-10-18_16h59.19.928,swahili,2020.2.4,Linux x86_64,60,,,,,,,,,,,,,,,,,,,,,,,,,,,,,,,,,,,,,,,,1,0,1,0,1,,,,,,,,,,,,,,,,,,,,,,,,,,,,,,,,,,,,,,,,,,,,,,,,,,,,,,,,,,
,,,,,,,,,,1576948,2020-10-18_16h59.19.928,swahili,2020.2.4,Linux x86_64,60,,,,,,,,,,,,,,,,,,,,,,,,,,,,,,,,,,,,,,,,,,,,,2,0,2,0,1,,,,,,,,,,,,,,,,,,,,,,,,,,,,,,,,,,,,,,,,,,,,,,,,,,,,,
,,,,,,,,,,1576948,2020-10-18_16h59.19.928,swahili,2020.2.4,Linux x86_64,60,,,,,,,,,,-0.412974684,0.073170732,1,0,1,1.59543,unsorted_card,0,0,0,0,1,,,,,,,,,,,,,,,,,,,,,,,,,,,,,,,,,,,,,,,,,,,,,,,,,,,,,,,,,,,,,,,,,,,,,,,,,,,,,,,,,
,,,,,,,,,,1576948,2020-10-18_16h59.19.928,swahili,2020.2.4,Linux x86_64,60,,,,,,,,,,-0.412974684,0.073170732,0,0,1,0.091215,unsorted_card,1,0,1,0,1,MERCHANT - TAJIRI,,,,,,,,,,,,,,,,,,,,,,,,,,,,,,,,,,,,,,,,,,,,,,,,,,,,,,,,,,,,,,,,,,,,,,,,,,,,,,,,
,,,,,,,,,,1576948,2020-10-18_16h59.19.928,swahili,2020.2.4,Linux x86_64,60,,,,,,,,,,0.51028481,0.015243902,1,0,1,4.63368,test_pile,2,0,2,0,1,MERCHANT - TAJIRI,,,,,,,,,,,,,,,,,,,,,,,,,,,,,,,,,,,,,,,,,,,,,,,,,,,,,,,,,,,,,,,,,,,,,,,,,,,,,,,,
,,,,,,,,,,1576948,2020-10-18_16h59.19.928,swahili,2020.2.4,Linux x86_64,60,,,,,,,,,,0.51028481,0.015243902,0,0,1,0.089895,test_pile,3,0,3,0,1,,,,,,,,,,,,,,,,,,,,,,,,,,,,,,,,,,,,,,,,,,,,,,,,,,,,,,,,,,,,,,,,,,,,,,,,,,,,,,,,,
,,,,,,,,,,1576948,2020-10-18_16h59.19.928,swahili,2020.2.4,Linux x86_64,60,,,,,,,,,,-0.246044304,-0.109756098,1,0,1,0.265455,unsorted_card,4,0,4,0,1,,,,,,,,,,,,,,,,,,,,,,,,,,,,,,,,,,,,,,,,,,,,,,,,,,,,,,,,,,,,,,,,,,,,,,,,,,,,,,,,,
,,,,,,,,,,1576948,2020-10-18_16h59.19.928,swahili,2020.2.4,Linux x86_64,60,,,,,,,,,,-0.246044304,-0.109756098,0,0,1,0.073265,unsorted_card,5,0,5,0,1,PARROT - KASUKU,,,,,,,,,,,,,,,,,,,,,,,,,,,,,,,,,,,,,,,,,,,,,,,,,,,,,,,,,,,,,,,,,,,,,,,,,,,,,,,,
,,,,,,,,,,1576948,2020-10-18_16h59.19.928,swahili,2020.2.4,Linux x86_64,60,,,,,,,,,,0.392405063,0.527439024,1,0,1,1.29222,study_pile,6,0,6,0,1,PARROT - KASUKU,,,,,,,,,,,,,,,,,,,,,,,,,,,,,,,,,,,,,,,,,,,,,,,,,,,,,,,,,,,,,,,,,,,,,,,,,,,,,,,,
,,,,,,,,,,1576948,2020-10-18_16h59.19.928,swahili,2020.2.4,Linux x86_64,60,,,,,,,,,,0.393196203,0.527439024,0,0,1,0.1101,study_pile,7,0,7,0,1,,,,,,,,,,,,,,,,,,,,,,,,,,,,,,,,,,,,,,,,,,,,,,,,,,,,,,,,,,,,,,,,,,,,,,,,,,,,,,,,,
,,,,,,,,,,1576948,2020-10-18_16h59.19.928,swahili,2020.2.4,Linux x86_64,60,,,,,,,,,,-0.314082278,-0.094512195,1,0,1,0.28241,unsorted_card,8,0,8,0,1,,,,,,,,,,,,,,,,,,,,,,,,,,,,,,,,,,,,,,,,,,,,,,,,,,,,,,,,,,,,,,,,,,,,,,,,,,,,,,,,,
,,,,,,,,,,1576948,2020-10-18_16h59.19.928,swahili,2020.2.4,Linux x86_64,60,,,,,,,,,,-0.314082278,-0.094512195,0,0,1,0.092125,unsorted_card,9,0,9,0,1,BULL - FAHILI,,,,,,,,,,,,,,,,,,,,,,,,,,,,,,,,,,,,,,,,,,,,,,,,,,,,,,,,,,,,,,,,,,,,,,,,,,,,,,,,
,,,,,,,,,,1576948,2020-10-18_16h59.19.928,swahili,2020.2.4,Linux x86_64,60,,,,,,,,,,0.490506329,0.4375,1,0,1,2.641635,study_pile,10,0,10,0,1,BULL - FAHILI,,,,,,,,,,,,,,,,,,,,,,,,,,,,,,,,,,,,,,,,,,,,,,,,,,,,,,,,,,,,,,,,,,,,,,,,,,,,,,,,
,,,,,,,,,,1576948,2020-10-18_16h59.19.928,swahili,2020.2.4,Linux x86_64,60,,,,,,,,,,0.484177215,0.423780488,0,0,1,0.157715,study_pile,11,0,11,0,1,,,,,,,,,,,,,,,,,,,,,,,,,,,,,,,,,,,,,,,,,,,,,,,,,,,,,,,,,,,,,,,,,,,,,,,,,,,,,,,,,
,,,,,,,,,,1576948,2020-10-18_16h59.19.928,swahili,2020.2.4,Linux x86_64,60,,,,,,,,,,-0.30221519,-0.06402439,1,0,1,0.329905,unsorted_card,12,0,12,0,1,,,,,,,,,,,,,,,,,,,,,,,,,,,,,,,,,,,,,,,,,,,,,,,,,,,,,,,,,,,,,,,,,,,,,,,,,,,,,,,,,
,,,,,,,,,,1576948,2020-10-18_16h59.19.928,swahili,2020.2.4,Linux x86_64,60,,,,,,,,,,-0.30221519,-0.0625,0,0,1,0.090935,unsorted_card,13,0,13,0,1,PLATE - SAHANI,,,,,,,,,,,,,,,,,,,,,,,,,,,,,,,,,,,,,,,,,,,,,,,,,,,,,,,,,,,,,,,,,,,,,,,,,,,,,,,,
,,,,,,,,,,1576948,2020-10-18_16h59.19.928,swahili,2020.2.4,Linux x86_64,60,,,,,,,,,,0.553006329,0.574695122,1,0,1,2.60838,study_pile,14,0,14,0,1,PLATE - SAHANI,,,,,,,,,,,,,,,,,,,,,,,,,,,,,,,,,,,,,,,,,,,,,,,,,,,,,,,,,,,,,,,,,,,,,,,,,,,,,,,,
,,,,,,,,,,1576948,2020-10-18_16h59.19.928,swahili,2020.2.4,Linux x86_64,60,,,,,,,,,,0.553006329,0.574695122,0,0,1,0.110315,study_pile,15,0,15,0,1,,,,,,,,,,,,,,,,,,,,,,,,,,,,,,,,,,,,,,,,,,,,,,,,,,,,,,,,,,,,,,,,,,,,,,,,,,,,,,,,,
,,,,,,,,,,1576948,2020-10-18_16h59.19.928,swahili,2020.2.4,Linux x86_64,60,,,,,,,,,,-0.225474684,-0.067073171,1,0,1,0.303285,unsorted_card,16,0,16,0,1,,,,,,,,,,,,,,,,,,,,,,,,,,,,,,,,,,,,,,,,,,,,,,,,,,,,,,,,,,,,,,,,,,,,,,,,,,,,,,,,,
,,,,,,,,,,1576948,2020-10-18_16h59.19.928,swahili,2020.2.4,Linux x86_64,60,,,,,,,,,,-0.225474684,-0.067073171,0,0,1,0.071855,unsorted_card,17,0,17,0,1,YEAST - HAMIRA,,,,,,,,,,,,,,,,,,,,,,,,,,,,,,,,,,,,,,,,,,,,,,,,,,,,,,,,,,,,,,,,,,,,,,,,,,,,,,,,
,,,,,,,,,,1576948,2020-10-18_16h59.19.928,swahili,2020.2.4,Linux x86_64,60,,,,,,,,,,0.4375,0.12652439,1,0,1,1.504775,test_pile,18,0,18,0,1,YEAST - HAMIRA,,,,,,,,,,,,,,,,,,,,,,,,,,,,,,,,,,,,,,,,,,,,,,,,,,,,,,,,,,,,,,,,,,,,,,,,,,,,,,,,
,,,,,,,,,,1576948,2020-10-18_16h59.19.928,swahili,2020.2.4,Linux x86_64,60,,,,,,,,,,0.4375,0.12652439,0,0,1,0.089685,test_pile,19,0,19,0,1,,,,,,,,,,,,,,,,,,,,,,,,,,,,,,,,,,,,,,,,,,,,,,,,,,,,,,,,,,,,,,,,,,,,,,,,,,,,,,,,,
,,,,,,,,,,1576948,2020-10-18_16h59.19.928,swahili,2020.2.4,Linux x86_64,60,,,,,,,,,,-0.194620253,-0.070121951,1,0,1,0.379065,unsorted_card,20,0,20,0,1,,,,,,,,,,,,,,,,,,,,,,,,,,,,,,,,,,,,,,,,,,,,,,,,,,,,,,,,,,,,,,,,,,,,,,,,,,,,,,,,,
,,,,,,,,,,1576948,2020-10-18_16h59.19.928,swahili,2020.2.4,Linux x86_64,60,,,,,,,,,,-0.194620253,-0.070121951,0,0,1,0.10739,unsorted_card,21,0,21,0,1,BLAME - LAWAMA,,,,,,,,,,,,,,,,,,,,,,,,,,,,,,,,,,,,,,,,,,,,,,,,,,,,,,,,,,,,,,,,,,,,,,,,,,,,,,,,
,,,,,,,,,,1576948,2020-10-18_16h59.19.928,swahili,2020.2.4,Linux x86_64,60,,,,,,,,,,0.48971519,0.05945122,1,0,1,2.950105,test_pile,22,0,22,0,1,BLAME - LAWAMA,,,,,,,,,,,,,,,,,,,,,,,,,,,,,,,,,,,,,,,,,,,,,,,,,,,,,,,,,,,,,,,,,,,,,,,,,,,,,,,,
,,,,,,,,,,1576948,2020-10-18_16h59.19.928,swahili,2020.2.4,Linux x86_64,60,,,,,,,,,,0.487341772,0.05945122,0,0,1,0.1109,test_pile,23,0,23,0,1,,,,,,,,,,,,,,,,,,,,,,,,,,,,,,,,,,,,,,,,,,,,,,,,,,,,,,,,,,,,,,,,,,,,,,,,,,,,,,,,,
,,,,,,,,,,1576948,2020-10-18_16h59.19.928,swahili,2020.2.4,Linux x86_64,60,,,,,,,,,,-0.230221519,0.022865854,1,0,1,0.2643,unsorted_card,24,0,24,0,1,,,,,,,,,,,,,,,,,,,,,,,,,,,,,,,,,,,,,,,,,,,,,,,,,,,,,,,,,,,,,,,,,,,,,,,,,,,,,,,,,
,,,,,,,,,,1576948,2020-10-18_16h59.19.928,swahili,2020.2.4,Linux x86_64,60,,,,,,,,,,-0.230221519,0.022865854,0,0,1,0.09532,unsorted_card,25,0,25,0,1,OATH - YAMINI,,,,,,,,,,,,,,,,,,,,,,,,,,,,,,,,,,,,,,,,,,,,,,,,,,,,,,,,,,,,,,,,,,,,,,,,,,,,,,,,
,,,,,,,,,,1576948,2020-10-18_16h59.19.928,swahili,2020.2.4,Linux x86_64,60,,,,,,,,,,0.504746835,0.025914634,1,0,1,1.92309,test_pile,26,0,26,0,1,OATH - YAMINI,,,,,,,,,,,,,,,,,,,,,,,,,,,,,,,,,,,,,,,,,,,,,,,,,,,,,,,,,,,,,,,,,,,,,,,,,,,,,,,,
,,,,,,,,,,1576948,2020-10-18_16h59.19.928,swahili,2020.2.4,Linux x86_64,60,,,,,,,,,,0.504746835,0.025914634,0,0,1,0.089385,test_pile,27,0,27,0,1,,,,,,,,,,,,,,,,,,,,,,,,,,,,,,,,,,,,,,,,,,,,,,,,,,,,,,,,,,,,,,,,,,,,,,,,,,,,,,,,,
,,,,,,,,,,1576948,2020-10-18_16h59.19.928,swahili,2020.2.4,Linux x86_64,60,,,,,,,,,,-0.216772152,-0.083841463,1,0,1,0.40807,unsorted_card,28,0,28,0,1,,,,,,,,,,,,,,,,,,,,,,,,,,,,,,,,,,,,,,,,,,,,,,,,,,,,,,,,,,,,,,,,,,,,,,,,,,,,,,,,,
,,,,,,,,,,1576948,2020-10-18_16h59.19.928,swahili,2020.2.4,Linux x86_64,60,,,,,,,,,,-0.212025316,-0.089939024,0,0,1,0.069905,unsorted_card,29,0,29,0,1,CORN - NAFAKA,,,,,,,,,,,,,,,,,,,,,,,,,,,,,,,,,,,,,,,,,,,,,,,,,,,,,,,,,,,,,,,,,,,,,,,,,,,,,,,,
,,,,,,,,,,1576948,2020-10-18_16h59.19.928,swahili,2020.2.4,Linux x86_64,60,,,,,,,,,,0.515031646,-0.024390244,1,0,1,1.392845,test_pile,30,0,30,0,1,CORN - NAFAKA,,,,,,,,,,,,,,,,,,,,,,,,,,,,,,,,,,,,,,,,,,,,,,,,,,,,,,,,,,,,,,,,,,,,,,,,,,,,,,,,
,,,,,,,,,,1576948,2020-10-18_16h59.19.928,swahili,2020.2.4,Linux x86_64,60,,,,,,,,,,0.518987342,-0.035060976,0,0,1,0.072625,test_pile,31,0,31,0,1,,,,,,,,,,,,,,,,,,,,,,,,,,,,,,,,,,,,,,,,,,,,,,,,,,,,,,,,,,,,,,,,,,,,,,,,,,,,,,,,,
,,,,,,,,,,1576948,2020-10-18_16h59.19.928,swahili,2020.2.4,Linux x86_64,60,,,,,,,,,,-0.305379747,-0.053353659,1,0,1,0.41957,unsorted_card,32,0,32,0,1,,,,,,,,,,,,,,,,,,,,,,,,,,,,,,,,,,,,,,,,,,,,,,,,,,,,,,,,,,,,,,,,,,,,,,,,,,,,,,,,,
,,,,,,,,,,1576948,2020-10-18_16h59.19.928,swahili,2020.2.4,Linux x86_64,60,,,,,,,,,,-0.305379747,-0.053353659,0,0,1,0.07253,unsorted_card,33,0,33,0,1,POEM - UTENZI,,,,,,,,,,,,,,,,,,,,,,,,,,,,,,,,,,,,,,,,,,,,,,,,,,,,,,,,,,,,,,,,,,,,,,,,,,,,,,,,
,,,,,,,,,,1576948,2020-10-18_16h59.19.928,swahili,2020.2.4,Linux x86_64,60,,,,,,,,,,0.397943038,-0.036585366,1,0,1,1.67697,test_pile,34,0,34,0,1,POEM - UTENZI,,,,,,,,,,,,,,,,,,,,,,,,,,,,,,,,,,,,,,,,,,,,,,,,,,,,,,,,,,,,,,,,,,,,,,,,,,,,,,,,
,,,,,,,,,,1576948,2020-10-18_16h59.19.928,swahili,2020.2.4,Linux x86_64,60,,,,,,,,,,0.397943038,-0.036585366,0,0,1,0.07249,test_pile,35,0,35,0,1,,,,,,,,,,,,,,,,,,,,,,,,,,,,,,,,,,,,,,,,,,,,,,,,,,,,,,,,,,,,,,,,,,,,,,,,,,,,,,,,,
,,,,,,,,,,1576948,2020-10-18_16h59.19.928,swahili,2020.2.4,Linux x86_64,60,,,,,,,,,,-0.371044304,-0.06097561,1,0,1,0.28321,unsorted_card,36,0,36,0,1,,,,,,,,,,,,,,,,,,,,,,,,,,,,,,,,,,,,,,,,,,,,,,,,,,,,,,,,,,,,,,,,,,,,,,,,,,,,,,,,,
,,,,,,,,,,1576948,2020-10-18_16h59.19.928,swahili,2020.2.4,Linux x86_64,60,,,,,,,,,,-0.371044304,-0.06097561,0,0,1,0.0713,unsorted_card,37,0,37,0,1,TAILOR - MSHONI,,,,,,,,,,,,,,,,,,,,,,,,,,,,,,,,,,,,,,,,,,,,,,,,,,,,,,,,,,,,,,,,,,,,,,,,,,,,,,,,
,,,,,,,,,,1576948,2020-10-18_16h59.19.928,swahili,2020.2.4,Linux x86_64,60,,,,,,,,,,0.541139241,0.038109756,1,0,1,9.45406,test_pile,38,0,38,0,1,TAILOR - MSHONI,,,,,,,,,,,,,,,,,,,,,,,,,,,,,,,,,,,,,,,,,,,,,,,,,,,,,,,,,,,,,,,,,,,,,,,,,,,,,,,,
,,,,,,,,,,1576948,2020-10-18_16h59.19.928,swahili,2020.2.4,Linux x86_64,60,,,,,,,,,,0.541139241,0.038109756,0,0,1,0.088325,test_pile,39,0,39,0,1,,,,,,,,,,,,,,,,,,,,,,,,,,,,,,,,,,,,,,,,,,,,,,,,,,,,,,,,,,,,,,,,,,,,,,,,,,,,,,,,,
,,,,,,,,,,1576948,2020-10-18_16h59.19.928,swahili,2020.2.4,Linux x86_64,60,,,,,,,,,,-0.275316456,0.006097561,1,0,1,0.49411,unsorted_card,40,0,40,0,1,,,,,,,,,,,,,,,,,,,,,,,,,,,,,,,,,,,,,,,,,,,,,,,,,,,,,,,,,,,,,,,,,,,,,,,,,,,,,,,,,
,,,,,,,,,,1576948,2020-10-18_16h59.19.928,swahili,2020.2.4,Linux x86_64,60,,,,,,,,,,-0.275316456,0.006097561,0,0,1,0.03538,unsorted_card,41,0,41,0,1,CHEESE - JIBINI,,,,,,,,,,,,,,,,,,,,,,,,,,,,,,,,,,,,,,,,,,,,,,,,,,,,,,,,,,,,,,,,,,,,,,,,,,,,,,,,
,,,,,,,,,,1576948,2020-10-18_16h59.19.928,swahili,2020.2.4,Linux x86_64,60,,,,,,,,,,0.445411392,0.009146341,1,0,1,3.422415,test_pile,42,0,42,0,1,CHEESE - JIBINI,,,,,,,,,,,,,,,,,,,,,,,,,,,,,,,,,,,,,,,,,,,,,,,,,,,,,,,,,,,,,,,,,,,,,,,,,,,,,,,,
,,,,,,,,,,1576948,2020-10-18_16h59.19.928,swahili,2020.2.4,Linux x86_64,60,,,,,,,,,,0.445411392,0.010670732,0,0,1,0.12789,test_pile,43,0,43,0,1,,,,,,,,,,,,,,,,,,,,,,,,,,,,,,,,,,,,,,,,,,,,,,,,,,,,,,,,,,,,,,,,,,,,,,,,,,,,,,,,,
,,,,,,,,,,1576948,2020-10-18_16h59.19.928,swahili,2020.2.4,Linux x86_64,60,,,,,,,,,,-0.309335443,0.041158537,1,0,1,0.31524,unsorted_card,44,0,44,0,1,,,,,,,,,,,,,,,,,,,,,,,,,,,,,,,,,,,,,,,,,,,,,,,,,,,,,,,,,,,,,,,,,,,,,,,,,,,,,,,,,
,,,,,,,,,,1576948,2020-10-18_16h59.19.928,swahili,2020.2.4,Linux x86_64,60,,,,,,,,,,-0.309335443,0.042682927,0,0,1,0.109345,unsorted_card,45,0,45,0,1,GRAPES - ZABIBU,,,,,,,,,,,,,,,,,,,,,,,,,,,,,,,,,,,,,,,,,,,,,,,,,,,,,,,,,,,,,,,,,,,,,,,,,,,,,,,,
,,,,,,,,,,1576948,2020-10-18_16h59.19.928,swahili,2020.2.4,Linux x86_64,60,,,,,,,,,,0.439082278,-0.00152439,1,0,1,7.345195,test_pile,46,0,46,0,1,GRAPES - ZABIBU,,,,,,,,,,,,,,,,,,,,,,,,,,,,,,,,,,,,,,,,,,,,,,,,,,,,,,,,,,,,,,,,,,,,,,,,,,,,,,,,
,,,,,,,,,,1576948,2020-10-18_16h59.19.928,swahili,2020.2.4,Linux x86_64,60,,,,,,,,,,0.439082278,-0.00152439,0,0,1,0.196305,test_pile,47,0,47,0,1,,,,,,,,,,,,,,,,,,,,,,,,,,,,,,,,,,,,,,,,,,,,,,,,,,,,,,,,,,,,,,,,,,,,,,,,,,,,,,,,,
,,,,,,,,,,1576948,2020-10-18_16h59.19.928,swahili,2020.2.4,Linux x86_64,60,,,,,,,,,,-0.267405063,-0.021341463,1,0,1,0.28183,unsorted_card,48,0,48,0,1,,,,,,,,,,,,,,,,,,,,,,,,,,,,,,,,,,,,,,,,,,,,,,,,,,,,,,,,,,,,,,,,,,,,,,,,,,,,,,,,,
,,,,,,,,,,1576948,2020-10-18_16h59.19.928,swahili,2020.2.4,Linux x86_64,60,,,,,,,,,,-0.268196203,-0.021341463,0,0,1,0.109875,unsorted_card,49,0,49,0,1,GRAVE - KABURI,,,,,,,,,,,,,,,,,,,,,,,,,,,,,,,,,,,,,,,,,,,,,,,,,,,,,,,,,,,,,,,,,,,,,,,,,,,,,,,,
,,,,,,,,,,1576948,2020-10-18_16h59.19.928,swahili,2020.2.4,Linux x86_64,60,,,,,,,,,,0.477848101,-0.039634146,1,0,1,20.188895,test_pile,50,0,50,0,1,GRAVE - KABURI,,,,,,,,,,,,,,,,,,,,,,,,,,,,,,,,,,,,,,,,,,,,,,,,,,,,,,,,,,,,,,,,,,,,,,,,,,,,,,,,
,,,,,,,,,,1576948,2020-10-18_16h59.19.928,swahili,2020.2.4,Linux x86_64,60,,,,,,,,,,0.477848101,-0.039634146,0,0,1,0.105765,test_pile,51,0,51,0,1,,,,,,,,,,,,,,,,,,,,,,,,,,,,,,,,,,,,,,,,,,,,,,,,,,,,,,,,,,,,,,,,,,,,,,,,,,,,,,,,,
,,,,,,,,,,1576948,2020-10-18_16h59.19.928,swahili,2020.2.4,Linux x86_64,60,,,,,,,,,,-0.607594937,-0.024390244,1,0,1,0.524515,unsorted_card,52,0,52,0,1,,,,,,,,,,,,,,,,,,,,,,,,,,,,,,,,,,,,,,,,,,,,,,,,,,,,,,,,,,,,,,,,,,,,,,,,,,,,,,,,,
,,,,,,,,,,1576948,2020-10-18_16h59.19.928,swahili,2020.2.4,Linux x86_64,60,,,,,,,,,,-0.607594937,-0.022865854,0,0,1,0.109155,unsorted_card,53,0,53,0,1,MANURE - SAMADI,,,,,,,,,,,,,,,,,,,,,,,,,,,,,,,,,,,,,,,,,,,,,,,,,,,,,,,,,,,,,,,,,,,,,,,,,,,,,,,,
,,,,,,,,,,1576948,2020-10-18_16h59.19.928,swahili,2020.2.4,Linux x86_64,60,,,,,,,,,,0.428797468,-0.083841463,1,0,1,7.688815,test_pile,54,0,54,0,1,MANURE - SAMADI,,,,,,,,,,,,,,,,,,,,,,,,,,,,,,,,,,,,,,,,,,,,,,,,,,,,,,,,,,,,,,,,,,,,,,,,,,,,,,,,
,,,,,,,,,,1576948,2020-10-18_16h59.19.928,swahili,2020.2.4,Linux x86_64,60,,,,,,,,,,0.4375,-0.074695122,0,0,1,0.070035,test_pile,55,0,55,0,1,,,,,,,,,,,,,,,,,,,,,,,,,,,,,,,,,,,,,,,,,,,,,,,,,,,,,,,,,,,,,,,,,,,,,,,,,,,,,,,,,
,,,,,,,,,,1576948,2020-10-18_16h59.19.928,swahili,2020.2.4,Linux x86_64,60,,,,,,,,,,-0.20806962,-0.050304878,1,0,1,0.41857,unsorted_card,56,0,56,0,1,,,,,,,,,,,,,,,,,,,,,,,,,,,,,,,,,,,,,,,,,,,,,,,,,,,,,,,,,,,,,,,,,,,,,,,,,,,,,,,,,
,,,,,,,,,,1576948,2020-10-18_16h59.19.928,swahili,2020.2.4,Linux x86_64,60,,,,,,,,,,-0.20806962,-0.050304878,0,0,1,0.07191,unsorted_card,57,0,57,0,1,AGENT - WAKILI,,,,,,,,,,,,,,,,,,,,,,,,,,,,,,,,,,,,,,,,,,,,,,,,,,,,,,,,,,,,,,,,,,,,,,,,,,,,,,,,
,,,,,,,,,,1576948,2020-10-18_16h59.19.928,swahili,2020.2.4,Linux x86_64,60,,,,,,,,,,0.503955696,-0.068597561,1,0,1,8.202005,test_pile,58,0,58,0,1,AGENT - WAKILI,,,,,,,,,,,,,,,,,,,,,,,,,,,,,,,,,,,,,,,,,,,,,,,,,,,,,,,,,,,,,,,,,,,,,,,,,,,,,,,,
,,,,,,,,,,1576948,2020-10-18_16h59.19.928,swahili,2020.2.4,Linux x86_64,60,,,,,,,,,,0.503955696,-0.068597561,0,0,1,0.091035,test_pile,59,0,59,0,1,,,,,,,,,,,,,,,,,,,,,,,,,,,,,,,,,,,,,,,,,,,,,,,,,,,,,,,,,,,,,,,,,,,,,,,,,,,,,,,,,
,,,,,,,,,,1576948,2020-10-18_16h59.19.928,swahili,2020.2.4,Linux x86_64,60,,,,,,,,,,-0.248417722,-0.06097561,1,0,1,0.493155,unsorted_card,60,0,60,0,1,,,,,,,,,,,,,,,,,,,,,,,,,,,,,,,,,,,,,,,,,,,,,,,,,,,,,,,,,,,,,,,,,,,,,,,,,,,,,,,,,
,,,,,,,,,,1576948,2020-10-18_16h59.19.928,swahili,2020.2.4,Linux x86_64,60,,,,,,,,,,-0.248417722,-0.06097561,0,0,1,0.094025,unsorted_card,61,0,61,0,1,BRIBE - RUSHWA,,,,,,,,,,,,,,,,,,,,,,,,,,,,,,,,,,,,,,,,,,,,,,,,,,,,,,,,,,,,,,,,,,,,,,,,,,,,,,,,
,,,,,,,,,,1576948,2020-10-18_16h59.19.928,swahili,2020.2.4,Linux x86_64,60,,,,,,,,,,0.450158228,0.021341463,1,0,1,1.503485,test_pile,62,0,62,0,1,BRIBE - RUSHWA,,,,,,,,,,,,,,,,,,,,,,,,,,,,,,,,,,,,,,,,,,,,,,,,,,,,,,,,,,,,,,,,,,,,,,,,,,,,,,,,
,,,,,,,,,,1576948,2020-10-18_16h59.19.928,swahili,2020.2.4,Linux x86_64,60,,,,,,,,,,0.450949367,0.019817073,0,0,1,0.12547,test_pile,63,0,63,0,1,,,,,,,,,,,,,,,,,,,,,,,,,,,,,,,,,,,,,,,,,,,,,,,,,,,,,,,,,,,,,,,,,,,,,,,,,,,,,,,,,
,,,,,,,,,,1576948,2020-10-18_16h59.19.928,swahili,2020.2.4,Linux x86_64,60,,,,,,,,,,-0.285601266,-0.085365854,1,0,1,0.22304,unsorted_card,64,0,64,0,1,,,,,,,,,,,,,,,,,,,,,,,,,,,,,,,,,,,,,,,,,,,,,,,,,,,,,,,,,,,,,,,,,,,,,,,,,,,,,,,,,
,,,,,,,,,,1576948,2020-10-18_16h59.19.928,swahili,2020.2.4,Linux x86_64,60,,,,,,,,,,-0.285601266,-0.085365854,0,0,1,0.107795,unsorted_card,65,0,65,0,1,ORPHAN - YATIMA,,,,,,,,,,,,,,,,,,,,,,,,,,,,,,,,,,,,,,,,,,,,,,,,,,,,,,,,,,,,,,,,,,,,,,,,,,,,,,,,
,,,,,,,,,,1576948,2020-10-18_16h59.19.928,swahili,2020.2.4,Linux x86_64,60,,,,,,,,,,0.438291139,-0.027439024,1,0,1,2.28654,test_pile,66,0,66,0,1,ORPHAN - YATIMA,,,,,,,,,,,,,,,,,,,,,,,,,,,,,,,,,,,,,,,,,,,,,,,,,,,,,,,,,,,,,,,,,,,,,,,,,,,,,,,,
,,,,,,,,,,1576948,2020-10-18_16h59.19.928,swahili,2020.2.4,Linux x86_64,60,,,,,,,,,,0.438291139,-0.030487805,0,0,1,0.09022,test_pile,67,0,67,0,1,,,,,,,,,,,,,,,,,,,,,,,,,,,,,,,,,,,,,,,,,,,,,,,,,,,,,,,,,,,,,,,,,,,,,,,,,,,,,,,,,
,,,,,,,,,,1576948,2020-10-18_16h59.19.928,swahili,2020.2.4,Linux x86_64,60,,,,,,,,,,-0.306962025,-0.057926829,1,0,1,0.28577,unsorted_card,68,0,68,0,1,,,,,,,,,,,,,,,,,,,,,,,,,,,,,,,,,,,,,,,,,,,,,,,,,,,,,,,,,,,,,,,,,,,,,,,,,,,,,,,,,
,,,,,,,,,,1576948,2020-10-18_16h59.19.928,swahili,2020.2.4,Linux x86_64,60,,,,,,,,,,-0.306962025,-0.057926829,0,0,1,0.09133,unsorted_card,69,0,69,0,1,DIVORCE - TALAKA,,,,,,,,,,,,,,,,,,,,,,,,,,,,,,,,,,,,,,,,,,,,,,,,,,,,,,,,,,,,,,,,,,,,,,,,,,,,,,,,
,,,,,,,,,,1576948,2020-10-18_16h59.19.928,swahili,2020.2.4,Linux x86_64,60,,,,,,,,,,0.568037975,0.050304878,1,0,1,2.11433,test_pile,70,0,70,0,1,DIVORCE - TALAKA,,,,,,,,,,,,,,,,,,,,,,,,,,,,,,,,,,,,,,,,,,,,,,,,,,,,,,,,,,,,,,,,,,,,,,,,,,,,,,,,
,,,,,,,,,,1576948,2020-10-18_16h59.19.928,swahili,2020.2.4,Linux x86_64,60,,,,,,,,,,0.568037975,0.050304878,0,0,1,0.090375,test_pile,71,0,71,0,1,,,,,,,,,,,,,,,,,,,,,,,,,,,,,,,,,,,,,,,,,,,,,,,,,,,,,,,,,,,,,,,,,,,,,,,,,,,,,,,,,
,,,,,,,,,,1576948,2020-10-18_16h59.19.928,swahili,2020.2.4,Linux x86_64,60,,,,,,,,,,-0.299050633,0.030487805,1,0,1,0.609225,unsorted_card,72,0,72,0,1,,,,,,,,,,,,,,,,,,,,,,,,,,,,,,,,,,,,,,,,,,,,,,,,,,,,,,,,,,,,,,,,,,,,,,,,,,,,,,,,,
,,,,,,,,,,1576948,2020-10-18_16h59.19.928,swahili,2020.2.4,Linux x86_64,60,,,,,,,,,,-0.299050633,0.030487805,0,0,1,0.094485,unsorted_card,73,0,73,0,1,BOAT - MASHUA,,,,,,,,,,,,,,,,,,,,,,,,,,,,,,,,,,,,,,,,,,,,,,,,,,,,,,,,,,,,,,,,,,,,,,,,,,,,,,,,
,,,,,,,,,,1576948,2020-10-18_16h59.19.928,swahili,2020.2.4,Linux x86_64,60,,,,,,,,,,0.36471519,-0.028963415,1,0,1,8.39925,test_pile,74,0,74,0,1,BOAT - MASHUA,,,,,,,,,,,,,,,,,,,,,,,,,,,,,,,,,,,,,,,,,,,,,,,,,,,,,,,,,,,,,,,,,,,,,,,,,,,,,,,,
,,,,,,,,,,1576948,2020-10-18_16h59.19.928,swahili,2020.2.4,Linux x86_64,60,,,,,,,,,,0.36471519,-0.028963415,0,0,1,0.071695,test_pile,75,0,75,0,1,,,,,,,,,,,,,,,,,,,,,,,,,,,,,,,,,,,,,,,,,,,,,,,,,,,,,,,,,,,,,,,,,,,,,,,,,,,,,,,,,
,,,,,,,,,,1576948,2020-10-18_16h59.19.928,swahili,2020.2.4,Linux x86_64,60,,,,,,,,,,-0.420886076,0.016768293,1,0,1,0.20952,unsorted_card,76,0,76,0,1,,,,,,,,,,,,,,,,,,,,,,,,,,,,,,,,,,,,,,,,,,,,,,,,,,,,,,,,,,,,,,,,,,,,,,,,,,,,,,,,,
,,,,,,,,,,1576948,2020-10-18_16h59.19.928,swahili,2020.2.4,Linux x86_64,60,,,,,,,,,,-0.420886076,0.016768293,0,0,1,0.0913,unsorted_card,77,0,77,0,1,TREASURE - DAFINA,,,,,,,,,,,,,,,,,,,,,,,,,,,,,,,,,,,,,,,,,,,,,,,,,,,,,,,,,,,,,,,,,,,,,,,,,,,,,,,,
,,,,,,,,,,1576948,2020-10-18_16h59.19.928,swahili,2020.2.4,Linux x86_64,60,,,,,,,,,,0.409810127,-0.050304878,1,0,1,6.029105,test_pile,78,0,78,0,1,TREASURE - DAFINA,,,,,,,,,,,,,,,,,,,,,,,,,,,,,,,,,,,,,,,,,,,,,,,,,,,,,,,,,,,,,,,,,,,,,,,,,,,,,,,,
,,,,,,,,,,1576948,2020-10-18_16h59.19.928,swahili,2020.2.4,Linux x86_64,60,,,,,,,,,,,,,,,,,,,,,,,0.409810127,-0.050304878,0,0,1,0.10554,test_first,,,,,0,0,0,0,1,,,,,,,,,,,,,,,,,,,,,,,,,,,,,,,,,,,,,,,,,,,,,,,,,,,,,,,,,,,,,,,,
,,,,,,,,,,1576948,2020-10-18_16h59.19.928,swahili,2020.2.4,Linux x86_64,60,,,,,,,,,,,,,,,,,,,,,,,,,,,,,,,,,,,,,,,return,,,,,,,,,,,3.10262,3.899295,0.389240506,-0.042682927,1,0,1,0.762475,yes,OATH,YAMINI,incorrect,0,0,0,0,1,,,,,,,,,,,,,,,,,,,,,,,,,,,,,,,,,,,,
,,,,,,,,,,1576948,2020-10-18_16h59.19.928,swahili,2020.2.4,Linux x86_64,60,,,,,,,,,,,,,,,,,,,,,,,,,,,,,,,,,,,,,,,,,,,,,,,,,,,4.82994,0.52056962,0.217987805,1,0,1,0.919455,yes,CHEESE,JIBINI,incorrect,1,0,1,0,1,,,,,,,,,,,,,,,,,,,,,,,,,,,,,,,,,,,,
,,,,,,,,,,1576948,2020-10-18_16h59.19.928,swahili,2020.2.4,Linux x86_64,60,,,,,,,,,,,,,,,,,,,,,,,,,,,,,,,,,,,,,,,,,,,,,,,,,,,3.11695,0.287974684,0.073170732,1,0,1,0.80276,yes,CORN,NAFAKA,incorrect,2,0,2,0,1,,,,,,,,,,,,,,,,,,,,,,,,,,,,,,,,,,,,
,,,,,,,,,,1576948,2020-10-18_16h59.19.928,swahili,2020.2.4,Linux x86_64,60,,,,,,,,,,,,,,,,,,,,,,,,,,,,,,,,,,,,,,,,,,,,,,,,,,,2.43801,0.38528481,0.143292683,1,0,1,0.85406,yes,ORPHAN,YATIMA,incorrect,3,0,3,0,1,,,,,,,,,,,,,,,,,,,,,,,,,,,,,,,,,,,,
,,,,,,,,,,1576948,2020-10-18_16h59.19.928,swahili,2020.2.4,Linux x86_64,60,,,,,,,,,,,,,,,,,,,,,,,,,,,,,,,,,,,,,,,,,,,,,,,,,,,2.007665,0.283227848,-0.018292683,1,0,1,0.662955,yes,TREASURE,DAFINA,incorrect,4,0,4,0,1,,,,,,,,,,,,,,,,,,,,,,,,,,,,,,,,,,,,
,,,,,,,,,,1576948,2020-10-18_16h59.19.928,swahili,2020.2.4,Linux x86_64,60,,,,,,,,,,,,,,,,,,,,,,,,,,,,,,,,,,,,,,,,,,,,,,,,,,,3.71942,0.372626582,0.099085366,1,0,1,0.928795,yes,BOAT,MASHUA,incorrect,5,0,5,0,1,,,,,,,,,,,,,,,,,,,,,,,,,,,,,,,,,,,,
,,,,,,,,,,1576948,2020-10-18_16h59.19.928,swahili,2020.2.4,Linux x86_64,60,,,,,,,,,,,,,,,,,,,,,,,,,,,,,,,,,,,,,,,,,,,,,,,,,,,3.96569,0.672468354,-0.022865854,1,0,1,0.875595,yes,TAILOR,MSHONI,incorrect,6,0,6,0,1,,,,,,,,,,,,,,,,,,,,,,,,,,,,,,,,,,,,
,,,,,,,,,,1576948,2020-10-18_16h59.19.928,swahili,2020.2.4,Linux x86_64,60,,,,,,,,,,,,,,,,,,,,,,,,,,,,,,,,,,,,,,,,,,,,,,,,,,,9.968765,0.313291139,-0.227134146,1,0,1,0.635305,yes,YEAST,HAMURA,incorrect,7,0,7,0,1,,,,,,,,,,,,,,,,,,,,,,,,,,,,,,,,,,,,
,,,,,,,,,,1576948,2020-10-18_16h59.19.928,swahili,2020.2.4,Linux x86_64,60,,,,,,,,,,,,,,,,,,,,,,,,,,,,,,,,,,,,,,,,,,,,,,,,,,,7.54117,0.579113924,0.178353659,1,0,1,0.719795,yes,POEM,UTENZI,incorrect,8,0,8,0,1,,,,,,,,,,,,,,,,,,,,,,,,,,,,,,,,,,,,
,,,,,,,,,,1576948,2020-10-18_16h59.19.928,swahili,2020.2.4,Linux x86_64,60,,,,,,,,,,,,,,,,,,,,,,,,,,,,,,,,,,,,,,,,,,,,,,,,,,,32.726195,0.453322785,0.108231707,1,0,1,0.83399,yes,BLAME,WAMARA,incorrect,9,0,9,0,1,,,,,,,,,,,,,,,,,,,,,,,,,,,,,,,,,,,,
,,,,,,,,,,1576948,2020-10-18_16h59.19.928,swahili,2020.2.4,Linux x86_64,60,,,,,,,,,,,,,,,,,,,,,,,,,,,,,,,,,,,,,,,,,,,,,,,,,,,7.63747,0.435126582,-0.166158537,1,0,1,0.78001,yes,DIVORCE,TALAKA,incorrect,10,0,10,0,1,,,,,,,,,,,,,,,,,,,,,,,,,,,,,,,,,,,,
,,,,,,,,,,1576948,2020-10-18_16h59.19.928,swahili,2020.2.4,Linux x86_64,60,,,,,,,,,,,,,,,,,,,,,,,,,,,,,,,,,,,,,,,,,,,,,,,,,,,2.780125,0.407436709,-0.181402439,1,0,1,1.441965,yes,BRIBE,RUSHWA,incorrect,11,0,11,0,1,,,,,,,,,,,,,,,,,,,,,,,,,,,,,,,,,,,,
,,,,,,,,,,1576948,2020-10-18_16h59.19.928,swahili,2020.2.4,Linux x86_64,60,,,,,,,,,,,,,,,,,,,,,,,,,,,,,,,,,,,,,,,,,,,,,,,,,,,22.219665,0.35443038,-0.114329268,1,0,1,0.811065,yes,GRAPES,ZABIBI,incorrect,12,0,12,0,1,,,,,,,,,,,,,,,,,,,,,,,,,,,,,,,,,,,,
,,,,,,,,,,1576948,2020-10-18_16h59.19.928,swahili,2020.2.4,Linux x86_64,60,,,,,,,,,,,,,,,,,,,,,,,,,,,,,,,,,,,,,,,,,,,,,,,,,,,6.98933,0.321993671,-0.160060976,1,0,1,0.89091,yes,GRAVE,KABURI,incorrect,13,0,13,0,1,,,,,,,,,,,,,,,,,,,,,,,,,,,,,,,,,,,,
,,,,,,,,,,1576948,2020-10-18_16h59.19.928,swahili,2020.2.4,Linux x86_64,60,,,,,,,,,,,,,,,,,,,,,,,,,,,,,,,,,,,,,,,,,,,,,,,,,,,3.452575,0.257120253,-0.243902439,1,0,1,0.909665,yes,MANURE,SAMADI,incorrect,14,0,14,0,1,,,,,,,,,,,,,,,,,,,,,,,,,,,,,,,,,,,,
,,,,,,,,,,1576948,2020-10-18_16h59.19.928,swahili,2020.2.4,Linux x86_64,60,,,,,,,,,,,,,,,,,,,,,,,,,,,,,,,,,,,,,,,,,,,,,,,,,,,10.98577,0.328322785,0.022865854,1,0,1,0.75924,yes,MERCHANT,TAJINI,incorrect,15,0,15,0,1,,,,,,,,,,,,,,,,,,,,,,,,,,,,,,,,,,,,
