condition,consent_key.keys,consent_key.rt,done_with_instructions.keys,done_with_instructions.rt,instr_loop.thisRepN,instr_loop.thisTrialN,instr_loop.thisN,instr_loop.thisIndex,instr_loop.ran,Student ID #,date,expName,psychopyVersion,OS,frameRate,instr_learning_key.keys,instr_learning_key.rt,card_gen_loop.thisRepN,card_gen_loop.thisTrialN,card_gen_loop.thisN,card_gen_loop.thisIndex,card_gen_loop.ran,swa,eng,choose_pile.x,choose_pile.y,choose_pile.leftButton,choose_pile.midButton,choose_pile.rightButton,choose_pile.time,choose_pile.clicked_name,choices.thisRepN,choices.thisTrialN,choices.thisN,choices.thisIndex,choices.ran,card_to_show,mouse_pick.x,mouse_pick.y,mouse_pick.leftButton,mouse_pick.midButton,mouse_pick.rightButton,mouse_pick.time,mouse_pick.clicked_name,key_instr_study.keys,key_instr_study.rt,next_study.keys,next_study.rt,study_loop.thisRepN,study_loop.thisTrialN,study_loop.thisN,study_loop.thisIndex,study_loop.ran,key_instr_test.keys,learn_loop.thisRepN,learn_loop.thisTrialN,learn_loop.thisN,learn_loop.thisIndex,learn_loop.ran,trials.thisRepN,trials.thisTrialN,trials.thisN,trials.thisIndex,trials.ran,key_instr_test.rt,duration,yes_or_no.x,yes_or_no.y,yes_or_no.leftButton,yes_or_no.midButton,yes_or_no.rightButton,yes_or_no.time,yes_or_no.clicked_name,test_response.stim,test_response.resp,test_response.eval,test_loop.thisRepN,test_loop.thisTrialN,test_loop.thisN,test_loop.thisIndex,test_loop.ran,instr_movie_key.keys,instr_movie_key.rt,return_to_exp.keys,return_to_exp.rt,instr_assess_key.keys,instr_assess_key.rt,assess_loop.thisRepN,assess_loop.thisTrialN,assess_loop.thisN,assess_loop.thisIndex,assess_loop.ran,ans_gen_loop.thisRepN,ans_gen_loop.thisTrialN,ans_gen_loop.thisN,ans_gen_loop.thisIndex,ans_gen_loop.ran,sen,ans,instr_transfer_key.keys,instr_transfer_key.rt,transfer_response.resp,transfer_response.eval,select_word.x,select_word.y,select_word.leftButton,select_word.midButton,select_word.rightButton,select_word.time,select_word.clicked_name,transfers.thisRepN,transfers.thisTrialN,transfers.thisN,transfers.thisIndex,transfers.ran,end_experiment.keys,end_experiment.rt
1,return,18.499485,return,17.948525,0,0,0,0,1,W1378087,2020-10-19_13h11.13.598,swahili,2020.2.4,MacIntel,60,,,,,,,,,,,,,,,,,,,,,,,,,,,,,,,,,,,,,,,,,,,,,,,,,,,,,,,,,,,,,,,,,,,,,,,,,,,,,,,,,,,,,,,,,,,,,,,,,,,,,,
,,,,,,,,,,W1378087,2020-10-19_13h11.13.598,swahili,2020.2.4,MacIntel,60,return,12.602775,0,0,0,0,1,TAJIRI,MERCHANT,,,,,,,,,,,,,,,,,,,,,,,,,,,,,,,,,,,,,,,,,,,,,,,,,,,,,,,,,,,,,,,,,,,,,,,,,,,,,,,,,,,,,,,,,,,,,
,,,,,,,,,,W1378087,2020-10-19_13h11.13.598,swahili,2020.2.4,MacIntel,60,,,0,1,1,1,1,KASUKU,PARROT,,,,,,,,,,,,,,,,,,,,,,,,,,,,,,,,,,,,,,,,,,,,,,,,,,,,,,,,,,,,,,,,,,,,,,,,,,,,,,,,,,,,,,,,,,,,,
,,,,,,,,,,W1378087,2020-10-19_13h11.13.598,swahili,2020.2.4,MacIntel,60,,,0,2,2,2,1,FAHILI,BULL,,,,,,,,,,,,,,,,,,,,,,,,,,,,,,,,,,,,,,,,,,,,,,,,,,,,,,,,,,,,,,,,,,,,,,,,,,,,,,,,,,,,,,,,,,,,,
,,,,,,,,,,W1378087,2020-10-19_13h11.13.598,swahili,2020.2.4,MacIntel,60,,,0,3,3,3,1,SAHANI,PLATE,,,,,,,,,,,,,,,,,,,,,,,,,,,,,,,,,,,,,,,,,,,,,,,,,,,,,,,,,,,,,,,,,,,,,,,,,,,,,,,,,,,,,,,,,,,,,
,,,,,,,,,,W1378087,2020-10-19_13h11.13.598,swahili,2020.2.4,MacIntel,60,,,0,4,4,4,1,HAMIRA,YEAST,,,,,,,,,,,,,,,,,,,,,,,,,,,,,,,,,,,,,,,,,,,,,,,,,,,,,,,,,,,,,,,,,,,,,,,,,,,,,,,,,,,,,,,,,,,,,
,,,,,,,,,,W1378087,2020-10-19_13h11.13.598,swahili,2020.2.4,MacIntel,60,,,0,5,5,5,1,LAWAMA,BLAME,,,,,,,,,,,,,,,,,,,,,,,,,,,,,,,,,,,,,,,,,,,,,,,,,,,,,,,,,,,,,,,,,,,,,,,,,,,,,,,,,,,,,,,,,,,,,
,,,,,,,,,,W1378087,2020-10-19_13h11.13.598,swahili,2020.2.4,MacIntel,60,,,0,6,6,6,1,YAMINI,OATH,,,,,,,,,,,,,,,,,,,,,,,,,,,,,,,,,,,,,,,,,,,,,,,,,,,,,,,,,,,,,,,,,,,,,,,,,,,,,,,,,,,,,,,,,,,,,
,,,,,,,,,,W1378087,2020-10-19_13h11.13.598,swahili,2020.2.4,MacIntel,60,,,0,7,7,7,1,NAFAKA,CORN,,,,,,,,,,,,,,,,,,,,,,,,,,,,,,,,,,,,,,,,,,,,,,,,,,,,,,,,,,,,,,,,,,,,,,,,,,,,,,,,,,,,,,,,,,,,,
,,,,,,,,,,W1378087,2020-10-19_13h11.13.598,swahili,2020.2.4,MacIntel,60,,,0,8,8,8,1,UTENZI,POEM,,,,,,,,,,,,,,,,,,,,,,,,,,,,,,,,,,,,,,,,,,,,,,,,,,,,,,,,,,,,,,,,,,,,,,,,,,,,,,,,,,,,,,,,,,,,,
,,,,,,,,,,W1378087,2020-10-19_13h11.13.598,swahili,2020.2.4,MacIntel,60,,,0,9,9,9,1,MSHONI,TAILOR,,,,,,,,,,,,,,,,,,,,,,,,,,,,,,,,,,,,,,,,,,,,,,,,,,,,,,,,,,,,,,,,,,,,,,,,,,,,,,,,,,,,,,,,,,,,,
,,,,,,,,,,W1378087,2020-10-19_13h11.13.598,swahili,2020.2.4,MacIntel,60,,,0,10,10,10,1,JIBINI,CHEESE,,,,,,,,,,,,,,,,,,,,,,,,,,,,,,,,,,,,,,,,,,,,,,,,,,,,,,,,,,,,,,,,,,,,,,,,,,,,,,,,,,,,,,,,,,,,,
,,,,,,,,,,W1378087,2020-10-19_13h11.13.598,swahili,2020.2.4,MacIntel,60,,,0,11,11,11,1,ZABIBU,GRAPES,,,,,,,,,,,,,,,,,,,,,,,,,,,,,,,,,,,,,,,,,,,,,,,,,,,,,,,,,,,,,,,,,,,,,,,,,,,,,,,,,,,,,,,,,,,,,
,,,,,,,,,,W1378087,2020-10-19_13h11.13.598,swahili,2020.2.4,MacIntel,60,,,0,12,12,12,1,KABURI,GRAVE,,,,,,,,,,,,,,,,,,,,,,,,,,,,,,,,,,,,,,,,,,,,,,,,,,,,,,,,,,,,,,,,,,,,,,,,,,,,,,,,,,,,,,,,,,,,,
,,,,,,,,,,W1378087,2020-10-19_13h11.13.598,swahili,2020.2.4,MacIntel,60,,,0,13,13,13,1,SAMADI,MANURE,,,,,,,,,,,,,,,,,,,,,,,,,,,,,,,,,,,,,,,,,,,,,,,,,,,,,,,,,,,,,,,,,,,,,,,,,,,,,,,,,,,,,,,,,,,,,
,,,,,,,,,,W1378087,2020-10-19_13h11.13.598,swahili,2020.2.4,MacIntel,60,,,0,14,14,14,1,WAKILI,AGENT,,,,,,,,,,,,,,,,,,,,,,,,,,,,,,,,,,,,,,,,,,,,,,,,,,,,,,,,,,,,,,,,,,,,,,,,,,,,,,,,,,,,,,,,,,,,,
,,,,,,,,,,W1378087,2020-10-19_13h11.13.598,swahili,2020.2.4,MacIntel,60,,,0,15,15,15,1,RUSHWA,BRIBE,,,,,,,,,,,,,,,,,,,,,,,,,,,,,,,,,,,,,,,,,,,,,,,,,,,,,,,,,,,,,,,,,,,,,,,,,,,,,,,,,,,,,,,,,,,,,
,,,,,,,,,,W1378087,2020-10-19_13h11.13.598,swahili,2020.2.4,MacIntel,60,,,0,16,16,16,1,YATIMA,ORPHAN,,,,,,,,,,,,,,,,,,,,,,,,,,,,,,,,,,,,,,,,,,,,,,,,,,,,,,,,,,,,,,,,,,,,,,,,,,,,,,,,,,,,,,,,,,,,,
,,,,,,,,,,W1378087,2020-10-19_13h11.13.598,swahili,2020.2.4,MacIntel,60,,,0,17,17,17,1,TALAKA,DIVORCE,,,,,,,,,,,,,,,,,,,,,,,,,,,,,,,,,,,,,,,,,,,,,,,,,,,,,,,,,,,,,,,,,,,,,,,,,,,,,,,,,,,,,,,,,,,,,
,,,,,,,,,,W1378087,2020-10-19_13h11.13.598,swahili,2020.2.4,MacIntel,60,,,0,18,18,18,1,MASHUA,BOAT,,,,,,,,,,,,,,,,,,,,,,,,,,,,,,,,,,,,,,,,,,,,,,,,,,,,,,,,,,,,,,,,,,,,,,,,,,,,,,,,,,,,,,,,,,,,,
,,,,,,,,,,W1378087,2020-10-19_13h11.13.598,swahili,2020.2.4,MacIntel,60,,,0,19,19,19,1,DAFINA,TREASURE,,,,,,,,,,,,,,,,,,,,,,,,,,,,,,,,,,,,,,,,,,,,,,,,,,,,,,,,,,,,,,,,,,,,,,,,,,,,,,,,,,,,,,,,,,,,,
,,,,,,,,,,W1378087,2020-10-19_13h11.13.598,swahili,2020.2.4,MacIntel,60,,,,,,,,,,0.414350043,0.422126736,1,0,0,7.698375,study_pile,0,0,0,0,1,,,,,,,,,,,,,,,,,,,,,,,,,,,,,,,,,,,,,,,,,,,,,,,,,,,,,,,,,,,,,,,,,,,,,,,,,,,,,,,,,
,,,,,,,,,,W1378087,2020-10-19_13h11.13.598,swahili,2020.2.4,MacIntel,60,,,,,,,,,,0.506835938,0.498203125,1,0,0,0.629865,study_pile,1,0,1,0,1,,,,,,,,,,,,,,,,,,,,,,,,,,,,,,,,,,,,,,,,,,,,,,,,,,,,,,,,,,,,,,,,,,,,,,,,,,,,,,,,,
,,,,,,,,,,W1378087,2020-10-19_13h11.13.598,swahili,2020.2.4,MacIntel,60,,,,,,,,,,0.535536024,0.325520833,1,0,0,0.76624,study_pile,2,0,2,0,1,,,,,,,,,,,,,,,,,,,,,,,,,,,,,,,,,,,,,,,,,,,,,,,,,,,,,,,,,,,,,,,,,,,,,,,,,,,,,,,,,
,,,,,,,,,,W1378087,2020-10-19_13h11.13.598,swahili,2020.2.4,MacIntel,60,,,,,,,,,,-0.123144531,-0.037994792,1,0,0,0.68297,unsorted_card,3,0,3,0,1,,,,,,,,,,,,,,,,,,,,,,,,,,,,,,,,,,,,,,,,,,,,,,,,,,,,,,,,,,,,,,,,,,,,,,,,,,,,,,,,,
,,,,,,,,,,W1378087,2020-10-19_13h11.13.598,swahili,2020.2.4,MacIntel,60,,,,,,,,,,-0.20867513,0.039435764,1,0,0,7.228395,unsorted_card,4,0,4,0,1,MERCHANT - TAJIRI,,,,,,,,,,,,,,,,,,,,,,,,,,,,,,,,,,,,,,,,,,,,,,,,,,,,,,,,,,,,,,,,,,,,,,,,,,,,,,,,
,,,,,,,,,,W1378087,2020-10-19_13h11.13.598,swahili,2020.2.4,MacIntel,60,,,,,,,,,,0.444791667,0.476579861,1,0,0,0.73096,study_pile,5,0,5,0,1,MERCHANT - TAJIRI,,,,,,,,,,,,,,,,,,,,,,,,,,,,,,,,,,,,,,,,,,,,,,,,,,,,,,,,,,,,,,,,,,,,,,,,,,,,,,,,
,,,,,,,,,,W1378087,2020-10-19_13h11.13.598,swahili,2020.2.4,MacIntel,60,,,,,,,,,,-0.319862196,-0.0403125,1,0,0,1.648085,unsorted_card,6,0,6,0,1,,,,,,,,,,,,,,,,,,,,,,,,,,,,,,,,,,,,,,,,,,,,,,,,,,,,,,,,,,,,,,,,,,,,,,,,,,,,,,,,,
,,,,,,,,,,W1378087,2020-10-19_13h11.13.598,swahili,2020.2.4,MacIntel,60,,,,,,,,,,0.472276476,0.497595486,1,0,0,2.682385,study_pile,7,0,7,0,1,PARROT - KASUKU,,,,,,,,,,,,,,,,,,,,,,,,,,,,,,,,,,,,,,,,,,,,,,,,,,,,,,,,,,,,,,,,,,,,,,,,,,,,,,,,
,,,,,,,,,,W1378087,2020-10-19_13h11.13.598,swahili,2020.2.4,MacIntel,60,,,,,,,,,,-0.381423611,-0.063524306,1,0,0,0.997985,unsorted_card,8,0,8,0,1,,,,,,,,,,,,,,,,,,,,,,,,,,,,,,,,,,,,,,,,,,,,,,,,,,,,,,,,,,,,,,,,,,,,,,,,,,,,,,,,,
,,,,,,,,,,W1378087,2020-10-19_13h11.13.598,swahili,2020.2.4,MacIntel,60,,,,,,,,,,0.54093967,0.489348958,1,0,0,2.49742,study_pile,9,0,9,0,1,BULL - FAHILI,,,,,,,,,,,,,,,,,,,,,,,,,,,,,,,,,,,,,,,,,,,,,,,,,,,,,,,,,,,,,,,,,,,,,,,,,,,,,,,,
,,,,,,,,,,W1378087,2020-10-19_13h11.13.598,swahili,2020.2.4,MacIntel,60,,,,,,,,,,-0.205571832,-0.002447917,1,0,0,0.949365,unsorted_card,10,0,10,0,1,,,,,,,,,,,,,,,,,,,,,,,,,,,,,,,,,,,,,,,,,,,,,,,,,,,,,,,,,,,,,,,,,,,,,,,,,,,,,,,,,
,,,,,,,,,,W1378087,2020-10-19_13h11.13.598,swahili,2020.2.4,MacIntel,60,,,,,,,,,,0.489729818,0.561961806,1,0,0,4.314755,study_pile,11,0,11,0,1,PLATE - SAHANI,,,,,,,,,,,,,,,,,,,,,,,,,,,,,,,,,,,,,,,,,,,,,,,,,,,,,,,,,,,,,,,,,,,,,,,,,,,,,,,,
,,,,,,,,,,W1378087,2020-10-19_13h11.13.598,swahili,2020.2.4,MacIntel,60,,,,,,,,,,-0.291118707,0.010963542,1,0,0,0.66437,unsorted_card,12,0,12,0,1,,,,,,,,,,,,,,,,,,,,,,,,,,,,,,,,,,,,,,,,,,,,,,,,,,,,,,,,,,,,,,,,,,,,,,,,,,,,,,,,,
,,,,,,,,,,W1378087,2020-10-19_13h11.13.598,swahili,2020.2.4,MacIntel,60,,,,,,,,,,0.551741536,0.463836806,1,0,0,1.88112,study_pile,13,0,13,0,1,YEAST - HAMIRA,,,,,,,,,,,,,,,,,,,,,,,,,,,,,,,,,,,,,,,,,,,,,,,,,,,,,,,,,,,,,,,,,,,,,,,,,,,,,,,,
,,,,,,,,,,W1378087,2020-10-19_13h11.13.598,swahili,2020.2.4,MacIntel,60,,,,,,,,,,-0.425808377,0.023637153,1,0,0,0.99782,unsorted_card,14,0,14,0,1,,,,,,,,,,,,,,,,,,,,,,,,,,,,,,,,,,,,,,,,,,,,,,,,,,,,,,,,,,,,,,,,,,,,,,,,,,,,,,,,,
,,,,,,,,,,W1378087,2020-10-19_13h11.13.598,swahili,2020.2.4,MacIntel,60,,,,,,,,,,0.461165365,0.478923611,1,0,0,6.480245,study_pile,15,0,15,0,1,BLAME - LAWAMA,,,,,,,,,,,,,,,,,,,,,,,,,,,,,,,,,,,,,,,,,,,,,,,,,,,,,,,,,,,,,,,,,,,,,,,,,,,,,,,,
,,,,,,,,,,W1378087,2020-10-19_13h11.13.598,swahili,2020.2.4,MacIntel,60,,,,,,,,,,-0.370605469,-0.082942708,1,0,0,0.616415,unsorted_card,16,0,16,0,1,,,,,,,,,,,,,,,,,,,,,,,,,,,,,,,,,,,,,,,,,,,,,,,,,,,,,,,,,,,,,,,,,,,,,,,,,,,,,,,,,
,,,,,,,,,,W1378087,2020-10-19_13h11.13.598,swahili,2020.2.4,MacIntel,60,,,,,,,,,,0.413058811,0.506267361,1,0,0,1.897745,study_pile,17,0,17,0,1,OATH - YAMINI,,,,,,,,,,,,,,,,,,,,,,,,,,,,,,,,,,,,,,,,,,,,,,,,,,,,,,,,,,,,,,,,,,,,,,,,,,,,,,,,
,,,,,,,,,,W1378087,2020-10-19_13h11.13.598,swahili,2020.2.4,MacIntel,60,,,,,,,,,,-0.462250434,-0.171484375,1,0,0,0.63284,unsorted_card,18,0,18,0,1,,,,,,,,,,,,,,,,,,,,,,,,,,,,,,,,,,,,,,,,,,,,,,,,,,,,,,,,,,,,,,,,,,,,,,,,,,,,,,,,,
,,,,,,,,,,W1378087,2020-10-19_13h11.13.598,swahili,2020.2.4,MacIntel,60,,,,,,,,,,0.462641059,0.422673611,1,0,0,1.915855,study_pile,19,0,19,0,1,CORN - NAFAKA,,,,,,,,,,,,,,,,,,,,,,,,,,,,,,,,,,,,,,,,,,,,,,,,,,,,,,,,,,,,,,,,,,,,,,,,,,,,,,,,
,,,,,,,,,,W1378087,2020-10-19_13h11.13.598,swahili,2020.2.4,MacIntel,60,,,,,,,,,,-0.347694227,-0.093628472,1,0,0,0.53105,unsorted_card,20,0,20,0,1,,,,,,,,,,,,,,,,,,,,,,,,,,,,,,,,,,,,,,,,,,,,,,,,,,,,,,,,,,,,,,,,,,,,,,,,,,,,,,,,,
,,,,,,,,,,W1378087,2020-10-19_13h11.13.598,swahili,2020.2.4,MacIntel,60,,,,,,,,,,0.397542318,0.423706597,1,0,0,3.312685,study_pile,21,0,21,0,1,POEM - UTENZI,,,,,,,,,,,,,,,,,,,,,,,,,,,,,,,,,,,,,,,,,,,,,,,,,,,,,,,,,,,,,,,,,,,,,,,,,,,,,,,,
,,,,,,,,,,W1378087,2020-10-19_13h11.13.598,swahili,2020.2.4,MacIntel,60,,,,,,,,,,-0.231467014,0.059227431,1,0,0,0.59771,unsorted_card,22,0,22,0,1,,,,,,,,,,,,,,,,,,,,,,,,,,,,,,,,,,,,,,,,,,,,,,,,,,,,,,,,,,,,,,,,,,,,,,,,,,,,,,,,,
,,,,,,,,,,W1378087,2020-10-19_13h11.13.598,swahili,2020.2.4,MacIntel,60,,,,,,,,,,0.507156033,0.455598958,1,0,0,2.93247,study_pile,23,0,23,0,1,TAILOR - MSHONI,,,,,,,,,,,,,,,,,,,,,,,,,,,,,,,,,,,,,,,,,,,,,,,,,,,,,,,,,,,,,,,,,,,,,,,,,,,,,,,,
,,,,,,,,,,W1378087,2020-10-19_13h11.13.598,swahili,2020.2.4,MacIntel,60,,,,,,,,,,-0.495507812,-0.152821181,1,0,0,0.532185,unsorted_card,24,0,24,0,1,,,,,,,,,,,,,,,,,,,,,,,,,,,,,,,,,,,,,,,,,,,,,,,,,,,,,,,,,,,,,,,,,,,,,,,,,,,,,,,,,
,,,,,,,,,,W1378087,2020-10-19_13h11.13.598,swahili,2020.2.4,MacIntel,60,,,,,,,,,,0.376063368,0.365703125,1,0,0,1.91478,study_pile,25,0,25,0,1,CHEESE - JIBINI,,,,,,,,,,,,,,,,,,,,,,,,,,,,,,,,,,,,,,,,,,,,,,,,,,,,,,,,,,,,,,,,,,,,,,,,,,,,,,,,
,,,,,,,,,,W1378087,2020-10-19_13h11.13.598,swahili,2020.2.4,MacIntel,60,,,,,,,,,,-0.396229384,-0.0528125,1,0,0,0.53173,unsorted_card,26,0,26,0,1,,,,,,,,,,,,,,,,,,,,,,,,,,,,,,,,,,,,,,,,,,,,,,,,,,,,,,,,,,,,,,,,,,,,,,,,,,,,,,,,,
,,,,,,,,,,W1378087,2020-10-19_13h11.13.598,swahili,2020.2.4,MacIntel,60,,,,,,,,,,0.477105035,0.564973958,1,0,0,3.08142,study_pile,27,0,27,0,1,GRAPES - ZABIBU,,,,,,,,,,,,,,,,,,,,,,,,,,,,,,,,,,,,,,,,,,,,,,,,,,,,,,,,,,,,,,,,,,,,,,,,,,,,,,,,
,,,,,,,,,,W1378087,2020-10-19_13h11.13.598,swahili,2020.2.4,MacIntel,60,,,,,,,,,,-0.340603299,-0.116831597,1,0,0,0.530865,unsorted_card,28,0,28,0,1,,,,,,,,,,,,,,,,,,,,,,,,,,,,,,,,,,,,,,,,,,,,,,,,,,,,,,,,,,,,,,,,,,,,,,,,,,,,,,,,,
,,,,,,,,,,W1378087,2020-10-19_13h11.13.598,swahili,2020.2.4,MacIntel,60,,,,,,,,,,0.477105035,0.604348958,1,0,0,2.28232,study_pile,29,0,29,0,1,GRAVE - KABURI,,,,,,,,,,,,,,,,,,,,,,,,,,,,,,,,,,,,,,,,,,,,,,,,,,,,,,,,,,,,,,,,,,,,,,,,,,,,,,,,
,,,,,,,,,,W1378087,2020-10-19_13h11.13.598,swahili,2020.2.4,MacIntel,60,,,,,,,,,,-0.341840278,-0.057621528,1,0,0,0.598395,unsorted_card,30,0,30,0,1,,,,,,,,,,,,,,,,,,,,,,,,,,,,,,,,,,,,,,,,,,,,,,,,,,,,,,,,,,,,,,,,,,,,,,,,,,,,,,,,,
,,,,,,,,,,W1378087,2020-10-19_13h11.13.598,swahili,2020.2.4,MacIntel,60,,,,,,,,,,0.414073351,0.483576389,1,0,0,2.564325,study_pile,31,0,31,0,1,MANURE - SAMADI,,,,,,,,,,,,,,,,,,,,,,,,,,,,,,,,,,,,,,,,,,,,,,,,,,,,,,,,,,,,,,,,,,,,,,,,,,,,,,,,
,,,,,,,,,,W1378087,2020-10-19_13h11.13.598,swahili,2020.2.4,MacIntel,60,,,,,,,,,,-0.385118273,0.011310764,1,0,0,0.549245,unsorted_card,32,0,32,0,1,,,,,,,,,,,,,,,,,,,,,,,,,,,,,,,,,,,,,,,,,,,,,,,,,,,,,,,,,,,,,,,,,,,,,,,,,,,,,,,,,
,,,,,,,,,,W1378087,2020-10-19_13h11.13.598,swahili,2020.2.4,MacIntel,60,,,,,,,,,,0.607161458,0.645460069,1,0,0,2.081015,study_pile,33,0,33,0,1,AGENT - WAKILI,,,,,,,,,,,,,,,,,,,,,,,,,,,,,,,,,,,,,,,,,,,,,,,,,,,,,,,,,,,,,,,,,,,,,,,,,,,,,,,,
,,,,,,,,,,W1378087,2020-10-19_13h11.13.598,swahili,2020.2.4,MacIntel,60,,,,,,,,,,-0.397526042,-0.255729167,1,0,0,0.547615,unsorted_card,34,0,34,0,1,,,,,,,,,,,,,,,,,,,,,,,,,,,,,,,,,,,,,,,,,,,,,,,,,,,,,,,,,,,,,,,,,,,,,,,,,,,,,,,,,
,,,,,,,,,,W1378087,2020-10-19_13h11.13.598,swahili,2020.2.4,MacIntel,60,,,,,,,,,,0.594677734,0.528810764,1,0,0,2.13195,study_pile,35,0,35,0,1,BRIBE - RUSHWA,,,,,,,,,,,,,,,,,,,,,,,,,,,,,,,,,,,,,,,,,,,,,,,,,,,,,,,,,,,,,,,,,,,,,,,,,,,,,,,,
,,,,,,,,,,W1378087,2020-10-19_13h11.13.598,swahili,2020.2.4,MacIntel,60,,,,,,,,,,-0.483067491,0.011753472,1,0,0,0.514135,unsorted_card,36,0,36,0,1,,,,,,,,,,,,,,,,,,,,,,,,,,,,,,,,,,,,,,,,,,,,,,,,,,,,,,,,,,,,,,,,,,,,,,,,,,,,,,,,,
,,,,,,,,,,W1378087,2020-10-19_13h11.13.598,swahili,2020.2.4,MacIntel,60,,,,,,,,,,0.543733724,0.507196181,1,0,0,1.64898,study_pile,37,0,37,0,1,ORPHAN - YATIMA,,,,,,,,,,,,,,,,,,,,,,,,,,,,,,,,,,,,,,,,,,,,,,,,,,,,,,,,,,,,,,,,,,,,,,,,,,,,,,,,
,,,,,,,,,,W1378087,2020-10-19_13h11.13.598,swahili,2020.2.4,MacIntel,60,,,,,,,,,,-0.232693142,0.035737847,1,0,0,0.549005,unsorted_card,38,0,38,0,1,,,,,,,,,,,,,,,,,,,,,,,,,,,,,,,,,,,,,,,,,,,,,,,,,,,,,,,,,,,,,,,,,,,,,,,,,,,,,,,,,
,,,,,,,,,,W1378087,2020-10-19_13h11.13.598,swahili,2020.2.4,MacIntel,60,,,,,,,,,,0.553613281,0.570625,1,0,0,2.73084,study_pile,39,0,39,0,1,DIVORCE - TALAKA,,,,,,,,,,,,,,,,,,,,,,,,,,,,,,,,,,,,,,,,,,,,,,,,,,,,,,,,,,,,,,,,,,,,,,,,,,,,,,,,
,,,,,,,,,,W1378087,2020-10-19_13h11.13.598,swahili,2020.2.4,MacIntel,60,,,,,,,,,,-0.433810764,-0.077873264,1,0,0,0.615255,unsorted_card,40,0,40,0,1,,,,,,,,,,,,,,,,,,,,,,,,,,,,,,,,,,,,,,,,,,,,,,,,,,,,,,,,,,,,,,,,,,,,,,,,,,,,,,,,,
,,,,,,,,,,W1378087,2020-10-19_13h11.13.598,swahili,2020.2.4,MacIntel,60,,,,,,,,,,0.495567491,0.554210069,1,0,0,2.131945,study_pile,41,0,41,0,1,BOAT - MASHUA,,,,,,,,,,,,,,,,,,,,,,,,,,,,,,,,,,,,,,,,,,,,,,,,,,,,,,,,,,,,,,,,,,,,,,,,,,,,,,,,
,,,,,,,,,,W1378087,2020-10-19_13h11.13.598,swahili,2020.2.4,MacIntel,60,,,,,,,,,,-0.215934245,0.002421875,1,0,0,0.516155,unsorted_card,42,0,42,0,1,,,,,,,,,,,,,,,,,,,,,,,,,,,,,,,,,,,,,,,,,,,,,,,,,,,,,,,,,,,,,,,,,,,,,,,,,,,,,,,,,
,,,,,,,,,,W1378087,2020-10-19_13h11.13.598,swahili,2020.2.4,MacIntel,60,,,,,,,,,,0.542437066,0.511883681,1,0,0,1.44867,study_pile,43,0,43,0,1,TREASURE - DAFINA,,,,,,,,,,,,,,,,,,,,,,,,,,,,,,,,,,,,,,,,,,,,,,,,,,,,,,,,,,,,,,,,,,,,,,,,,,,,,,,,
,,,,,,,,,,W1378087,2020-10-19_13h11.13.598,swahili,2020.2.4,MacIntel,60,,,,,,,,,,,,,,,,,,,,,,TAILOR - MSHONI,,,,,,,,return,4.804915,return,2.2042,0,0,0,0,1,,,,,,,,,,,,,,,,,,,,,,,,,,,,,,,,,,,,,,,,,,,,,,,,,,,,,,,,,,,,,,,,
,,,,,,,,,,W1378087,2020-10-19_13h11.13.598,swahili,2020.2.4,MacIntel,60,,,,,,,,,,,,,,,,,,,,,,GRAVE - KABURI,,,,,,,,,,return,1.55387,1,0,1,0,1,,,,,,,,,,,,,,,,,,,,,,,,,,,,,,,,,,,,,,,,,,,,,,,,,,,,,,,,,,,,,,,,
,,,,,,,,,,W1378087,2020-10-19_13h11.13.598,swahili,2020.2.4,MacIntel,60,,,,,,,,,,,,,,,,,,,,,,MANURE - SAMADI,,,,,,,,,,return,1.44979,2,0,2,0,1,,,,,,,,,,,,,,,,,,,,,,,,,,,,,,,,,,,,,,,,,,,,,,,,,,,,,,,,,,,,,,,,
,,,,,,,,,,W1378087,2020-10-19_13h11.13.598,swahili,2020.2.4,MacIntel,60,,,,,,,,,,,,,,,,,,,,,,BULL - FAHILI,,,,,,,,,,return,1.12216,3,0,3,0,1,,,,,,,,,,,,,,,,,,,,,,,,,,,,,,,,,,,,,,,,,,,,,,,,,,,,,,,,,,,,,,,,
,,,,,,,,,,W1378087,2020-10-19_13h11.13.598,swahili,2020.2.4,MacIntel,60,,,,,,,,,,,,,,,,,,,,,,PLATE - SAHANI,,,,,,,,,,return,1.46237,4,0,4,0,1,,,,,,,,,,,,,,,,,,,,,,,,,,,,,,,,,,,,,,,,,,,,,,,,,,,,,,,,,,,,,,,,
,,,,,,,,,,W1378087,2020-10-19_13h11.13.598,swahili,2020.2.4,MacIntel,60,,,,,,,,,,,,,,,,,,,,,,POEM - UTENZI,,,,,,,,,,return,1.23908,5,0,5,0,1,,,,,,,,,,,,,,,,,,,,,,,,,,,,,,,,,,,,,,,,,,,,,,,,,,,,,,,,,,,,,,,,
,,,,,,,,,,W1378087,2020-10-19_13h11.13.598,swahili,2020.2.4,MacIntel,60,,,,,,,,,,,,,,,,,,,,,,TREASURE - DAFINA,,,,,,,,,,return,1.134345,6,0,6,0,1,,,,,,,,,,,,,,,,,,,,,,,,,,,,,,,,,,,,,,,,,,,,,,,,,,,,,,,,,,,,,,,,
,,,,,,,,,,W1378087,2020-10-19_13h11.13.598,swahili,2020.2.4,MacIntel,60,,,,,,,,,,,,,,,,,,,,,,YEAST - HAMIRA,,,,,,,,,,return,1.633765,7,0,7,0,1,,,,,,,,,,,,,,,,,,,,,,,,,,,,,,,,,,,,,,,,,,,,,,,,,,,,,,,,,,,,,,,,
,,,,,,,,,,W1378087,2020-10-19_13h11.13.598,swahili,2020.2.4,MacIntel,60,,,,,,,,,,,,,,,,,,,,,,PARROT - KASUKU,,,,,,,,,,return,1.1847,8,0,8,0,1,,,,,,,,,,,,,,,,,,,,,,,,,,,,,,,,,,,,,,,,,,,,,,,,,,,,,,,,,,,,,,,,
,,,,,,,,,,W1378087,2020-10-19_13h11.13.598,swahili,2020.2.4,MacIntel,60,,,,,,,,,,,,,,,,,,,,,,GRAPES - ZABIBU,,,,,,,,,,return,1.069935,9,0,9,0,1,,,,,,,,,,,,,,,,,,,,,,,,,,,,,,,,,,,,,,,,,,,,,,,,,,,,,,,,,,,,,,,,
,,,,,,,,,,W1378087,2020-10-19_13h11.13.598,swahili,2020.2.4,MacIntel,60,,,,,,,,,,,,,,,,,,,,,,BLAME - LAWAMA,,,,,,,,,,return,1.201145,10,0,10,0,1,,,,,,,,,,,,,,,,,,,,,,,,,,,,,,,,,,,,,,,,,,,,,,,,,,,,,,,,,,,,,,,,
,,,,,,,,,,W1378087,2020-10-19_13h11.13.598,swahili,2020.2.4,MacIntel,60,,,,,,,,,,,,,,,,,,,,,,ORPHAN - YATIMA,,,,,,,,,,return,1.01648,11,0,11,0,1,,,,,,,,,,,,,,,,,,,,,,,,,,,,,,,,,,,,,,,,,,,,,,,,,,,,,,,,,,,,,,,,
,,,,,,,,,,W1378087,2020-10-19_13h11.13.598,swahili,2020.2.4,MacIntel,60,,,,,,,,,,,,,,,,,,,,,,BOAT - MASHUA,,,,,,,,,,return,1.1173,12,0,12,0,1,,,,,,,,,,,,,,,,,,,,,,,,,,,,,,,,,,,,,,,,,,,,,,,,,,,,,,,,,,,,,,,,
,,,,,,,,,,W1378087,2020-10-19_13h11.13.598,swahili,2020.2.4,MacIntel,60,,,,,,,,,,,,,,,,,,,,,,CORN - NAFAKA,,,,,,,,,,return,1.217555,13,0,13,0,1,,,,,,,,,,,,,,,,,,,,,,,,,,,,,,,,,,,,,,,,,,,,,,,,,,,,,,,,,,,,,,,,
,,,,,,,,,,W1378087,2020-10-19_13h11.13.598,swahili,2020.2.4,MacIntel,60,,,,,,,,,,,,,,,,,,,,,,MERCHANT - TAJIRI,,,,,,,,,,return,0.96776,14,0,14,0,1,,,,,,,,,,,,,,,,,,,,,,,,,,,,,,,,,,,,,,,,,,,,,,,,,,,,,,,,,,,,,,,,
,,,,,,,,,,W1378087,2020-10-19_13h11.13.598,swahili,2020.2.4,MacIntel,60,,,,,,,,,,,,,,,,,,,,,,BRIBE - RUSHWA,,,,,,,,,,return,1.50503,15,0,15,0,1,,,,,,,,,,,,,,,,,,,,,,,,,,,,,,,,,,,,,,,,,,,,,,,,,,,,,,,,,,,,,,,,
,,,,,,,,,,W1378087,2020-10-19_13h11.13.598,swahili,2020.2.4,MacIntel,60,,,,,,,,,,,,,,,,,,,,,,OATH - YAMINI,,,,,,,,,,return,0.954505,16,0,16,0,1,,,,,,,,,,,,,,,,,,,,,,,,,,,,,,,,,,,,,,,,,,,,,,,,,,,,,,,,,,,,,,,,
,,,,,,,,,,W1378087,2020-10-19_13h11.13.598,swahili,2020.2.4,MacIntel,60,,,,,,,,,,,,,,,,,,,,,,AGENT - WAKILI,,,,,,,,,,return,1.168965,17,0,17,0,1,,,,,,,,,,,,,,,,,,,,,,,,,,,,,,,,,,,,,,,,,,,,,,,,,,,,,,,,,,,,,,,,
,,,,,,,,,,W1378087,2020-10-19_13h11.13.598,swahili,2020.2.4,MacIntel,60,,,,,,,,,,,,,,,,,,,,,,CHEESE - JIBINI,,,,,,,,,,return,1.13823,18,0,18,0,1,,,,,,,,,,,,,,,,,,,,,,,,,,,,,,,,,,,,,,,,,,,,,,,,,,,,,,,,,,,,,,,,
,,,,,,,,,,W1378087,2020-10-19_13h11.13.598,swahili,2020.2.4,MacIntel,60,,,,,,,,,,,,,,,,,,,,,,DIVORCE - TALAKA,,,,,,,,,,return,1.182165,19,0,19,0,1,,,,,,,,,,,,,,,,,,,,,,,,,,,,,,,,,,,,,,,,,,,,,,,,,,,,,,,,,,,,,,,,
,,,,,,,,,,W1378087,2020-10-19_13h11.13.598,swahili,2020.2.4,MacIntel,60,,,,,,,,,,,,,,,,,,,,,,,,,,,,,,,,,,,,,,,,0,0,0,0,1,,,,,,,,,,,,,,,,,,,,,,,,,,,,,,,,,,,,,,,,,,,,,,,,,,,,,,,,,,
,,,,,,,,,,W1378087,2020-10-19_13h11.13.598,swahili,2020.2.4,MacIntel,60,,,,,,,,,,,,,,,,,,,,,,,,,,,,,,,,,,,,,,,,1,0,1,0,1,,,,,,,,,,,,,,,,,,,,,,,,,,,,,,,,,,,,,,,,,,,,,,,,,,,,,,,,,,
,,,,,,,,,,W1378087,2020-10-19_13h11.13.598,swahili,2020.2.4,MacIntel,60,,,,,,,,,,,,,,,,,,,,,,,,,,,,,,,,,,,,,,,,,,,,,0,0,0,0,1,,,,,,,,,,,,,,,,,,,,,,,,,,,,,,,,,,,,,,,,,,,,,,,,,,,,,
,,,,,,,,,,W1378087,2020-10-19_13h11.13.598,swahili,2020.2.4,MacIntel,60,,,,,,,,,,0.500558811,0.003446181,1,0,0,1.640205,test_pile,0,0,0,0,1,,,,,,,,,,,,,,,,,,,,,,,,,,,,,,,,,,,,,,,,,,,,,,,,,,,,,,,,,,,,,,,,,,,,,,,,,,,,,,,,,
,,,,,,,,,,W1378087,2020-10-19_13h11.13.598,swahili,2020.2.4,MacIntel,60,,,,,,,,,,-0.175260417,-0.045989583,1,0,0,0.88256,unsorted_card,1,0,1,0,1,,,,,,,,,,,,,,,,,,,,,,,,,,,,,,,,,,,,,,,,,,,,,,,,,,,,,,,,,,,,,,,,,,,,,,,,,,,,,,,,,
,,,,,,,,,,W1378087,2020-10-19_13h11.13.598,swahili,2020.2.4,MacIntel,60,,,,,,,,,,0.488552517,0.046796875,1,0,0,3.549365,test_pile,2,0,2,0,1,MERCHANT - TAJIRI,,,,,,,,,,,,,,,,,,,,,,,,,,,,,,,,,,,,,,,,,,,,,,,,,,,,,,,,,,,,,,,,,,,,,,,,,,,,,,,,
,,,,,,,,,,W1378087,2020-10-19_13h11.13.598,swahili,2020.2.4,MacIntel,60,,,,,,,,,,-0.350916884,-0.055737847,1,0,0,0.66513,unsorted_card,3,0,3,0,1,,,,,,,,,,,,,,,,,,,,,,,,,,,,,,,,,,,,,,,,,,,,,,,,,,,,,,,,,,,,,,,,,,,,,,,,,,,,,,,,,
,,,,,,,,,,W1378087,2020-10-19_13h11.13.598,swahili,2020.2.4,MacIntel,60,,,,,,,,,,0.521218533,-0.009895833,1,0,0,3.615245,test_pile,4,0,4,0,1,PARROT - KASUKU,,,,,,,,,,,,,,,,,,,,,,,,,,,,,,,,,,,,,,,,,,,,,,,,,,,,,,,,,,,,,,,,,,,,,,,,,,,,,,,,
,,,,,,,,,,W1378087,2020-10-19_13h11.13.598,swahili,2020.2.4,MacIntel,60,,,,,,,,,,-0.234418403,-0.030963542,1,0,0,0.54842,unsorted_card,5,0,5,0,1,,,,,,,,,,,,,,,,,,,,,,,,,,,,,,,,,,,,,,,,,,,,,,,,,,,,,,,,,,,,,,,,,,,,,,,,,,,,,,,,,
,,,,,,,,,,W1378087,2020-10-19_13h11.13.598,swahili,2020.2.4,MacIntel,60,,,,,,,,,,0.553645833,-0.027916667,1,0,0,1.51478,test_pile,6,0,6,0,1,BULL - FAHILI,,,,,,,,,,,,,,,,,,,,,,,,,,,,,,,,,,,,,,,,,,,,,,,,,,,,,,,,,,,,,,,,,,,,,,,,,,,,,,,,
,,,,,,,,,,W1378087,2020-10-19_13h11.13.598,swahili,2020.2.4,MacIntel,60,,,,,,,,,,-0.193570964,-0.034861111,1,0,0,0.515175,unsorted_card,7,0,7,0,1,,,,,,,,,,,,,,,,,,,,,,,,,,,,,,,,,,,,,,,,,,,,,,,,,,,,,,,,,,,,,,,,,,,,,,,,,,,,,,,,,
,,,,,,,,,,W1378087,2020-10-19_13h11.13.598,swahili,2020.2.4,MacIntel,60,,,,,,,,,,0.520068359,-0.004869792,1,0,0,0.550275,test_pile,8,0,8,0,1,PLATE - SAHANI,,,,,,,,,,,,,,,,,,,,,,,,,,,,,,,,,,,,,,,,,,,,,,,,,,,,,,,,,,,,,,,,,,,,,,,,,,,,,,,,
,,,,,,,,,,W1378087,2020-10-19_13h11.13.598,swahili,2020.2.4,MacIntel,60,,,,,,,,,,-0.261393229,0.014444444,1,0,0,0.49749,unsorted_card,9,0,9,0,1,,,,,,,,,,,,,,,,,,,,,,,,,,,,,,,,,,,,,,,,,,,,,,,,,,,,,,,,,,,,,,,,,,,,,,,,,,,,,,,,,
,,,,,,,,,,W1378087,2020-10-19_13h11.13.598,swahili,2020.2.4,MacIntel,60,,,,,,,,,,0.497960069,-0.018958333,1,0,0,0.899295,test_pile,10,0,10,0,1,YEAST - HAMIRA,,,,,,,,,,,,,,,,,,,,,,,,,,,,,,,,,,,,,,,,,,,,,,,,,,,,,,,,,,,,,,,,,,,,,,,,,,,,,,,,
,,,,,,,,,,W1378087,2020-10-19_13h11.13.598,swahili,2020.2.4,MacIntel,60,,,,,,,,,,-0.381732856,-0.027708333,1,0,0,0.464895,unsorted_card,11,0,11,0,1,,,,,,,,,,,,,,,,,,,,,,,,,,,,,,,,,,,,,,,,,,,,,,,,,,,,,,,,,,,,,,,,,,,,,,,,,,,,,,,,,
,,,,,,,,,,W1378087,2020-10-19_13h11.13.598,swahili,2020.2.4,MacIntel,60,,,,,,,,,,0.490570747,0.056623264,1,0,0,0.615135,test_pile,12,0,12,0,1,BLAME - LAWAMA,,,,,,,,,,,,,,,,,,,,,,,,,,,,,,,,,,,,,,,,,,,,,,,,,,,,,,,,,,,,,,,,,,,,,,,,,,,,,,,,
,,,,,,,,,,W1378087,2020-10-19_13h11.13.598,swahili,2020.2.4,MacIntel,60,,,,,,,,,,-0.293560113,0.050607639,1,0,0,0.48232,unsorted_card,13,0,13,0,1,,,,,,,,,,,,,,,,,,,,,,,,,,,,,,,,,,,,,,,,,,,,,,,,,,,,,,,,,,,,,,,,,,,,,,,,,,,,,,,,,
,,,,,,,,,,W1378087,2020-10-19_13h11.13.598,swahili,2020.2.4,MacIntel,60,,,,,,,,,,0.474251302,0.080269097,1,0,0,0.814975,test_pile,14,0,14,0,1,OATH - YAMINI,,,,,,,,,,,,,,,,,,,,,,,,,,,,,,,,,,,,,,,,,,,,,,,,,,,,,,,,,,,,,,,,,,,,,,,,,,,,,,,,
,,,,,,,,,,W1378087,2020-10-19_13h11.13.598,swahili,2020.2.4,MacIntel,60,,,,,,,,,,-0.183311632,0.092395833,1,0,0,0.54745,unsorted_card,15,0,15,0,1,,,,,,,,,,,,,,,,,,,,,,,,,,,,,,,,,,,,,,,,,,,,,,,,,,,,,,,,,,,,,,,,,,,,,,,,,,,,,,,,,
,,,,,,,,,,W1378087,2020-10-19_13h11.13.598,swahili,2020.2.4,MacIntel,60,,,,,,,,,,0.516303168,0.036692708,1,0,0,0.86658,test_pile,16,0,16,0,1,CORN - NAFAKA,,,,,,,,,,,,,,,,,,,,,,,,,,,,,,,,,,,,,,,,,,,,,,,,,,,,,,,,,,,,,,,,,,,,,,,,,,,,,,,,
,,,,,,,,,,W1378087,2020-10-19_13h11.13.598,swahili,2020.2.4,MacIntel,60,,,,,,,,,,-0.304399957,0.066215278,1,0,0,0.531475,unsorted_card,17,0,17,0,1,,,,,,,,,,,,,,,,,,,,,,,,,,,,,,,,,,,,,,,,,,,,,,,,,,,,,,,,,,,,,,,,,,,,,,,,,,,,,,,,,
,,,,,,,,,,W1378087,2020-10-19_13h11.13.598,swahili,2020.2.4,MacIntel,60,,,,,,,,,,0.465972222,-0.049904514,1,0,0,1.214815,test_pile,18,0,18,0,1,POEM - UTENZI,,,,,,,,,,,,,,,,,,,,,,,,,,,,,,,,,,,,,,,,,,,,,,,,,,,,,,,,,,,,,,,,,,,,,,,,,,,,,,,,
,,,,,,,,,,W1378087,2020-10-19_13h11.13.598,swahili,2020.2.4,MacIntel,60,,,,,,,,,,-0.298844401,-0.046814236,1,0,0,0.49809,unsorted_card,19,0,19,0,1,,,,,,,,,,,,,,,,,,,,,,,,,,,,,,,,,,,,,,,,,,,,,,,,,,,,,,,,,,,,,,,,,,,,,,,,,,,,,,,,,
,,,,,,,,,,W1378087,2020-10-19_13h11.13.598,swahili,2020.2.4,MacIntel,60,,,,,,,,,,0.540625,-0.004149306,1,0,0,1.366395,test_pile,20,0,20,0,1,TAILOR - MSHONI,,,,,,,,,,,,,,,,,,,,,,,,,,,,,,,,,,,,,,,,,,,,,,,,,,,,,,,,,,,,,,,,,,,,,,,,,,,,,,,,
,,,,,,,,,,W1378087,2020-10-19_13h11.13.598,swahili,2020.2.4,MacIntel,60,,,,,,,,,,-0.345334201,0.021414931,1,0,0,0.51493,unsorted_card,21,0,21,0,1,,,,,,,,,,,,,,,,,,,,,,,,,,,,,,,,,,,,,,,,,,,,,,,,,,,,,,,,,,,,,,,,,,,,,,,,,,,,,,,,,
,,,,,,,,,,W1378087,2020-10-19_13h11.13.598,swahili,2020.2.4,MacIntel,60,,,,,,,,,,0.491753472,0.110911458,1,0,0,0.866195,test_pile,22,0,22,0,1,CHEESE - JIBINI,,,,,,,,,,,,,,,,,,,,,,,,,,,,,,,,,,,,,,,,,,,,,,,,,,,,,,,,,,,,,,,,,,,,,,,,,,,,,,,,
,,,,,,,,,,W1378087,2020-10-19_13h11.13.598,swahili,2020.2.4,MacIntel,60,,,,,,,,,,-0.202045356,0.060920139,1,0,0,0.517315,unsorted_card,23,0,23,0,1,,,,,,,,,,,,,,,,,,,,,,,,,,,,,,,,,,,,,,,,,,,,,,,,,,,,,,,,,,,,,,,,,,,,,,,,,,,,,,,,,
,,,,,,,,,,W1378087,2020-10-19_13h11.13.598,swahili,2020.2.4,MacIntel,60,,,,,,,,,,0.464436849,0.062994792,1,0,0,1.11273,test_pile,24,0,24,0,1,GRAPES - ZABIBU,,,,,,,,,,,,,,,,,,,,,,,,,,,,,,,,,,,,,,,,,,,,,,,,,,,,,,,,,,,,,,,,,,,,,,,,,,,,,,,,
,,,,,,,,,,W1378087,2020-10-19_13h11.13.598,swahili,2020.2.4,MacIntel,60,,,,,,,,,,-0.397477214,-0.065286458,1,0,0,0.500145,unsorted_card,25,0,25,0,1,,,,,,,,,,,,,,,,,,,,,,,,,,,,,,,,,,,,,,,,,,,,,,,,,,,,,,,,,,,,,,,,,,,,,,,,,,,,,,,,,
,,,,,,,,,,W1378087,2020-10-19_13h11.13.598,swahili,2020.2.4,MacIntel,60,,,,,,,,,,0.561523438,0.081354167,1,0,0,1.1813,test_pile,26,0,26,0,1,GRAVE - KABURI,,,,,,,,,,,,,,,,,,,,,,,,,,,,,,,,,,,,,,,,,,,,,,,,,,,,,,,,,,,,,,,,,,,,,,,,,,,,,,,,
,,,,,,,,,,W1378087,2020-10-19_13h11.13.598,swahili,2020.2.4,MacIntel,60,,,,,,,,,,-0.22516276,0.058940972,1,0,0,0.53341,unsorted_card,27,0,27,0,1,,,,,,,,,,,,,,,,,,,,,,,,,,,,,,,,,,,,,,,,,,,,,,,,,,,,,,,,,,,,,,,,,,,,,,,,,,,,,,,,,
,,,,,,,,,,W1378087,2020-10-19_13h11.13.598,swahili,2020.2.4,MacIntel,60,,,,,,,,,,0.44007704,0.052074653,1,0,0,1.54834,test_pile,28,0,28,0,1,MANURE - SAMADI,,,,,,,,,,,,,,,,,,,,,,,,,,,,,,,,,,,,,,,,,,,,,,,,,,,,,,,,,,,,,,,,,,,,,,,,,,,,,,,,
,,,,,,,,,,W1378087,2020-10-19_13h11.13.598,swahili,2020.2.4,MacIntel,60,,,,,,,,,,-0.263840061,-0.040920139,1,0,0,0.5323,unsorted_card,29,0,29,0,1,,,,,,,,,,,,,,,,,,,,,,,,,,,,,,,,,,,,,,,,,,,,,,,,,,,,,,,,,,,,,,,,,,,,,,,,,,,,,,,,,
,,,,,,,,,,W1378087,2020-10-19_13h11.13.598,swahili,2020.2.4,MacIntel,60,,,,,,,,,,0.40257704,0.018862847,1,0,0,1.400375,test_pile,30,0,30,0,1,AGENT - WAKILI,,,,,,,,,,,,,,,,,,,,,,,,,,,,,,,,,,,,,,,,,,,,,,,,,,,,,,,,,,,,,,,,,,,,,,,,,,,,,,,,
,,,,,,,,,,W1378087,2020-10-19_13h11.13.598,swahili,2020.2.4,MacIntel,60,,,,,,,,,,-0.304888238,-0.057057292,1,0,0,0.50022,unsorted_card,31,0,31,0,1,,,,,,,,,,,,,,,,,,,,,,,,,,,,,,,,,,,,,,,,,,,,,,,,,,,,,,,,,,,,,,,,,,,,,,,,,,,,,,,,,
,,,,,,,,,,W1378087,2020-10-19_13h11.13.598,swahili,2020.2.4,MacIntel,60,,,,,,,,,,0.457606337,0.031875,1,0,0,1.614575,test_pile,32,0,32,0,1,BRIBE - RUSHWA,,,,,,,,,,,,,,,,,,,,,,,,,,,,,,,,,,,,,,,,,,,,,,,,,,,,,,,,,,,,,,,,,,,,,,,,,,,,,,,,
,,,,,,,,,,W1378087,2020-10-19_13h11.13.598,swahili,2020.2.4,MacIntel,60,,,,,,,,,,-0.218299696,0.0271875,1,0,0,0.51309,unsorted_card,33,0,33,0,1,,,,,,,,,,,,,,,,,,,,,,,,,,,,,,,,,,,,,,,,,,,,,,,,,,,,,,,,,,,,,,,,,,,,,,,,,,,,,,,,,
,,,,,,,,,,W1378087,2020-10-19_13h11.13.598,swahili,2020.2.4,MacIntel,60,,,,,,,,,,0.459450955,0.025911458,1,0,0,1.032895,test_pile,34,0,34,0,1,ORPHAN - YATIMA,,,,,,,,,,,,,,,,,,,,,,,,,,,,,,,,,,,,,,,,,,,,,,,,,,,,,,,,,,,,,,,,,,,,,,,,,,,,,,,,
,,,,,,,,,,W1378087,2020-10-19_13h11.13.598,swahili,2020.2.4,MacIntel,60,,,,,,,,,,-0.207714844,-0.062630208,1,0,0,0.51485,unsorted_card,35,0,35,0,1,,,,,,,,,,,,,,,,,,,,,,,,,,,,,,,,,,,,,,,,,,,,,,,,,,,,,,,,,,,,,,,,,,,,,,,,,,,,,,,,,
,,,,,,,,,,W1378087,2020-10-19_13h11.13.598,swahili,2020.2.4,MacIntel,60,,,,,,,,,,0.550520833,0.031362847,1,0,0,1.33243,test_pile,36,0,36,0,1,DIVORCE - TALAKA,,,,,,,,,,,,,,,,,,,,,,,,,,,,,,,,,,,,,,,,,,,,,,,,,,,,,,,,,,,,,,,,,,,,,,,,,,,,,,,,
,,,,,,,,,,W1378087,2020-10-19_13h11.13.598,swahili,2020.2.4,MacIntel,60,,,,,,,,,,-0.211083984,-0.001493056,1,0,0,0.51461,unsorted_card,37,0,37,0,1,,,,,,,,,,,,,,,,,,,,,,,,,,,,,,,,,,,,,,,,,,,,,,,,,,,,,,,,,,,,,,,,,,,,,,,,,,,,,,,,,
,,,,,,,,,,W1378087,2020-10-19_13h11.13.598,swahili,2020.2.4,MacIntel,60,,,,,,,,,,0.515657552,0.017795139,1,0,0,0.96544,test_pile,38,0,38,0,1,BOAT - MASHUA,,,,,,,,,,,,,,,,,,,,,,,,,,,,,,,,,,,,,,,,,,,,,,,,,,,,,,,,,,,,,,,,,,,,,,,,,,,,,,,,
,,,,,,,,,,W1378087,2020-10-19_13h11.13.598,swahili,2020.2.4,MacIntel,60,,,,,,,,,,-0.270014106,0.007100694,1,0,0,0.99749,unsorted_card,39,0,39,0,1,,,,,,,,,,,,,,,,,,,,,,,,,,,,,,,,,,,,,,,,,,,,,,,,,,,,,,,,,,,,,,,,,,,,,,,,,,,,,,,,,
,,,,,,,,,,W1378087,2020-10-19_13h11.13.598,swahili,2020.2.4,MacIntel,60,,,,,,,,,,0.501448568,0.004140625,1,0,0,1.098505,test_pile,40,0,40,0,1,TREASURE - DAFINA,,,,,,,,,,,,,,,,,,,,,,,,,,,,,,,,,,,,,,,,,,,,,,,,,,,,,,,,,,,,,,,,,,,,,,,,,,,,,,,,
,,,,,,,,,,W1378087,2020-10-19_13h11.13.598,swahili,2020.2.4,MacIntel,60,,,,,,,,,,,,,,,,,,,,,,,,,,,,,,,,,,0,0,0,0,1,,,,,,,,,,,,,,,,,,,,,,,,,,,,,,,,,,,,,,,,,,,,,,,,,,,,,,,,,,,,,,,,
,,,,,,,,,,W1378087,2020-10-19_13h11.13.598,swahili,2020.2.4,MacIntel,60,,,,,,,,,,,,,,,,,,,,,,,,,,,,,,,,,,,,,,,return,,,,,,,,,,,3.281875,15.23038,0.440749783,-0.04480342,1,0,0,1.666,yes,MERCHANT,TAKIKI,incorrect,0,0,0,0,1,,,,,,,,,,,,,,,,,,,,,,,,,,,,,,,,,,,,
,,,,,,,,,,W1378087,2020-10-19_13h11.13.598,swahili,2020.2.4,MacIntel,60,,,,,,,,,,,,,,,,,,,,,,,,,,,,,,,,,,,,,,,,,,,,,,,,,,,3.4655,0.455007595,-0.107116097,1,0,0,0.88328,yes,PLATE,J,incorrect,1,0,1,0,1,,,,,,,,,,,,,,,,,,,,,,,,,,,,,,,,,,,,
,,,,,,,,,,W1378087,2020-10-19_13h11.13.598,swahili,2020.2.4,MacIntel,60,,,,,,,,,,,,,,,,,,,,,,,,,,,,,,,,,,,,,,,,,,,,,,,,,,,3.599075,0.400981988,-0.117892719,1,0,0,0.96765,yes,AGENT,F,incorrect,2,0,2,0,1,,,,,,,,,,,,,,,,,,,,,,,,,,,,,,,,,,,,
,,,,,,,,,,W1378087,2020-10-19_13h11.13.598,swahili,2020.2.4,MacIntel,60,,,,,,,,,,,,,,,,,,,,,,,,,,,,,,,,,,,,,,,,,,,,,,,,,,,2.231255,0.400981988,-0.117892719,1,0,0,1.14989,yes,MANURE,H,incorrect,3,0,3,0,1,,,,,,,,,,,,,,,,,,,,,,,,,,,,,,,,,,,,
,,,,,,,,,,W1378087,2020-10-19_13h11.13.598,swahili,2020.2.4,MacIntel,60,,,,,,,,,,,,,,,,,,,,,,,,,,,,,,,,,,,,,,,,,,,,,,,,,,,7.398265,0.400981988,-0.117892719,1,0,0,0.71581,yes,BULL,FAJILI,incorrect,4,0,4,0,1,,,,,,,,,,,,,,,,,,,,,,,,,,,,,,,,,,,,
,,,,,,,,,,W1378087,2020-10-19_13h11.13.598,swahili,2020.2.4,MacIntel,60,,,,,,,,,,,,,,,,,,,,,,,,,,,,,,,,,,,,,,,,,,,,,,,,,,,2.898035,0.446706814,-0.082191026,1,0,0,0.86674,yes,ORPHAN,FAD,incorrect,5,0,5,0,1,,,,,,,,,,,,,,,,,,,,,,,,,,,,,,,,,,,,
,,,,,,,,,,W1378087,2020-10-19_13h11.13.598,swahili,2020.2.4,MacIntel,60,,,,,,,,,,,,,,,,,,,,,,,,,,,,,,,,,,,,,,,,,,,,,,,,,,,2.89776,0.429568142,-0.019382493,1,0,0,0.651,yes,BOAT,MAD,incorrect,6,0,6,0,1,,,,,,,,,,,,,,,,,,,,,,,,,,,,,,,,,,,,
,,,,,,,,,,W1378087,2020-10-19_13h11.13.598,swahili,2020.2.4,MacIntel,60,,,,,,,,,,,,,,,,,,,,,,,,,,,,,,,,,,,,,,,,,,,,,,,,,,,2.448095,0.48063151,-0.040307652,1,0,0,0.6508,yes,GRAPES,F,incorrect,7,0,7,0,1,,,,,,,,,,,,,,,,,,,,,,,,,,,,,,,,,,,,
,,,,,,,,,,W1378087,2020-10-19_13h11.13.598,swahili,2020.2.4,MacIntel,60,,,,,,,,,,,,,,,,,,,,,,,,,,,,,,,,,,,,,,,,,,,,,,,,,,,2.982575,0.490890842,0.104537641,1,0,0,0.96565,yes,OATH,YATIMA,incorrect,8,0,8,0,1,,,,,,,,,,,,,,,,,,,,,,,,,,,,,,,,,,,,
,,,,,,,,,,W1378087,2020-10-19_13h11.13.598,swahili,2020.2.4,MacIntel,60,,,,,,,,,,,,,,,,,,,,,,,,,,,,,,,,,,,,,,,,,,,,,,,,,,,2.71413,0.43937717,-0.034643865,1,0,0,0.65013,yes,TREASURE,FEAG,incorrect,9,0,9,0,1,,,,,,,,,,,,,,,,,,,,,,,,,,,,,,,,,,,,
,,,,,,,,,,W1378087,2020-10-19_13h11.13.598,swahili,2020.2.4,MacIntel,60,,,,,,,,,,,,,,,,,,,,,,,,,,,,,,,,,,,,,,,,,,,,,,,,,,,4.265685,0.359868707,-0.011558974,1,0,0,0.600645,yes,CHEESE,IBU,incorrect,10,0,10,0,1,,,,,,,,,,,,,,,,,,,,,,,,,,,,,,,,,,,,
,,,,,,,,,,W1378087,2020-10-19_13h11.13.598,swahili,2020.2.4,MacIntel,60,,,,,,,,,,,,,,,,,,,,,,,,,,,,,,,,,,,,,,,,,,,,,,,,,,,2.02953,0.421435547,-0.119446403,1,0,0,0.58321,yes,GRAVE,G,incorrect,11,0,11,0,1,,,,,,,,,,,,,,,,,,,,,,,,,,,,,,,,,,,,
,,,,,,,,,,W1378087,2020-10-19_13h11.13.598,swahili,2020.2.4,MacIntel,60,,,,,,,,,,,,,,,,,,,,,,,,,,,,,,,,,,,,,,,,,,,,,,,,,,,1.415055,0.458620877,0.074081012,1,0,0,0.599995,yes,CORN,G,incorrect,12,0,12,0,1,,,,,,,,,,,,,,,,,,,,,,,,,,,,,,,,,,,,
,,,,,,,,,,W1378087,2020-10-19_13h11.13.598,swahili,2020.2.4,MacIntel,60,,,,,,,,,,,,,,,,,,,,,,,,,,,,,,,,,,,,,,,,,,,,,,,,,,,2.75139,0.348719618,-0.007658233,1,0,0,0.78008,yes,YEAST,RGA,incorrect,13,0,13,0,1,,,,,,,,,,,,,,,,,,,,,,,,,,,,,,,,,,,,
,,,,,,,,,,W1378087,2020-10-19_13h11.13.598,swahili,2020.2.4,MacIntel,60,,,,,,,,,,,,,,,,,,,,,,,,,,,,,,,,,,,,,,,,,,,,,,,,,,,2.348925,0.452609592,0.051525035,1,0,0,0.66639,yes,DIVORCE,EF,incorrect,14,0,14,0,1,,,,,,,,,,,,,,,,,,,,,,,,,,,,,,,,,,,,
,,,,,,,,,,W1378087,2020-10-19_13h11.13.598,swahili,2020.2.4,MacIntel,60,,,,,,,,,,,,,,,,,,,,,,,,,,,,,,,,,,,,,,,,,,,,,,,,,,,1.731895,0.426746962,-0.064483427,1,0,0,0.616145,yes,POEM,AF,incorrect,15,0,15,0,1,,,,,,,,,,,,,,,,,,,,,,,,,,,,,,,,,,,,
,,,,,,,,,,W1378087,2020-10-19_13h11.13.598,swahili,2020.2.4,MacIntel,60,,,,,,,,,,,,,,,,,,,,,,,,,,,,,,,,,,,,,,,,,,,,,,,,,,,2.14963,0.45054796,-0.067458568,1,0,0,0.5822,yes,BLAME,FGA,incorrect,16,0,16,0,1,,,,,,,,,,,,,,,,,,,,,,,,,,,,,,,,,,,,
,,,,,,,,,,W1378087,2020-10-19_13h11.13.598,swahili,2020.2.4,MacIntel,60,,,,,,,,,,,,,,,,,,,,,,,,,,,,,,,,,,,,,,,,,,,,,,,,,,,6.549335,0.328651259,-0.062544076,1,0,0,0.616685,yes,TAILOR,MSKUKA,incorrect,17,0,17,0,1,,,,,,,,,,,,,,,,,,,,,,,,,,,,,,,,,,,,
,,,,,,,,,,W1378087,2020-10-19_13h11.13.598,swahili,2020.2.4,MacIntel,60,,,,,,,,,,,,,,,,,,,,,,,,,,,,,,,,,,,,,,,,,,,,,,,,,,,1.498055,0.328651259,-0.062544076,1,0,0,0.58217,yes,BRIBE,J,incorrect,18,0,18,0,1,,,,,,,,,,,,,,,,,,,,,,,,,,,,,,,,,,,,
,,,,,,,,,,W1378087,2020-10-19_13h11.13.598,swahili,2020.2.4,MacIntel,60,,,,,,,,,,,,,,,,,,,,,,,,,,,,,,,,,,,,,,,,,,,,,,,,,,,2.913535,0.337440321,-0.043448078,1,0,0,0.700545,yes,PARROT,UKU,incorrect,19,0,19,0,1,,,,,,,,,,,,,,,,,,,,,,,,,,,,,,,,,,,,
,,,,,,,,,,W1378087,2020-10-19_13h11.13.598,swahili,2020.2.4,MacIntel,60,,,,,,,,,,,,,,,,,,,,,,,,,,,,,,,,,,,,,,,,0,0,0,0,1,,,,,,,,,,,,,,,,,,,,,,,,,,,,,,,,,,,,,,,,,,,,,,,,,,,,,,,,,,
,,,,,,,,,,W1378087,2020-10-19_13h11.13.598,swahili,2020.2.4,MacIntel,60,,,,,,,,,,,,,,,,,,,,,,,,,,,,,,,,,,,,,,,,1,0,1,0,1,,,,,,,,,,,,,,,,,,,,,,,,,,,,,,,,,,,,,,,,,,,,,,,,,,,,,,,,,,
,,,,,,,,,,W1378087,2020-10-19_13h11.13.598,swahili,2020.2.4,MacIntel,60,,,,,,,,,,,,,,,,,,,,,,,,,,,,,,,,,,,,,,,,,,,,,1,0,1,0,1,,,,,,,,,,,,,,,,,,,,,,,,,,,,,,,,,,,,,,,,,,,,,,,,,,,,,
,,,,,,,,,,W1378087,2020-10-19_13h11.13.598,swahili,2020.2.4,MacIntel,60,,,,,,,,,,-0.598958333,0.096130113,1,0,0,4.96999,unsorted_card,0,0,0,0,1,,,,,,,,,,,,,,,,,,,,,,,,,,,,,,,,,,,,,,,,,,,,,,,,,,,,,,,,,,,,,,,,,,,,,,,,,,,,,,,,,
,,,,,,,,,,W1378087,2020-10-19_13h11.13.598,swahili,2020.2.4,MacIntel,60,,,,,,,,,,0.505756293,0.131809767,1,0,0,24.26294,test_pile,1,0,1,0,1,MERCHANT - TAJIRI,,,,,,,,,,,,,,,,,,,,,,,,,,,,,,,,,,,,,,,,,,,,,,,,,,,,,,,,,,,,,,,,,,,,,,,,,,,,,,,,
,,,,,,,,,,W1378087,2020-10-19_13h11.13.598,swahili,2020.2.4,MacIntel,60,,,,,,,,,,-0.198269314,-0.023173043,1,0,0,0.89935,unsorted_card,2,0,2,0,1,,,,,,,,,,,,,,,,,,,,,,,,,,,,,,,,,,,,,,,,,,,,,,,,,,,,,,,,,,,,,,,,,,,,,,,,,,,,,,,,,
,,,,,,,,,,W1378087,2020-10-19_13h11.13.598,swahili,2020.2.4,MacIntel,60,,,,,,,,,,-0.198269314,-0.023173043,1,0,0,8.530845,unsorted_card,3,0,3,0,1,PARROT - KASUKU,,,,,,,,,,,,,,,,,,,,,,,,,,,,,,,,,,,,,,,,,,,,,,,,,,,,,,,,,,,,,,,,,,,,,,,,,,,,,,,,
,,,,,,,,,,W1378087,2020-10-19_13h11.13.598,swahili,2020.2.4,MacIntel,60,,,,,,,,,,0.55101454,-0.094113628,1,0,0,1.4991,test_pile,4,0,4,0,1,PARROT - KASUKU,,,,,,,,,,,,,,,,,,,,,,,,,,,,,,,,,,,,,,,,,,,,,,,,,,,,,,,,,,,,,,,,,,,,,,,,,,,,,,,,
,,,,,,,,,,W1378087,2020-10-19_13h11.13.598,swahili,2020.2.4,MacIntel,60,,,,,,,,,,-0.540576172,-0.223091502,1,0,0,0.64909,unsorted_card,5,0,5,0,1,,,,,,,,,,,,,,,,,,,,,,,,,,,,,,,,,,,,,,,,,,,,,,,,,,,,,,,,,,,,,,,,,,,,,,,,,,,,,,,,,
,,,,,,,,,,W1378087,2020-10-19_13h11.13.598,swahili,2020.2.4,MacIntel,60,,,,,,,,,,0.316758898,-0.081078103,1,0,0,6.664595,test_pile,6,0,6,0,1,BULL - FAHILI,,,,,,,,,,,,,,,,,,,,,,,,,,,,,,,,,,,,,,,,,,,,,,,,,,,,,,,,,,,,,,,,,,,,,,,,,,,,,,,,
,,,,,,,,,,W1378087,2020-10-19_13h11.13.598,swahili,2020.2.4,MacIntel,60,,,,,,,,,,-0.340315755,-0.057960155,1,0,0,0.63015,unsorted_card,7,0,7,0,1,,,,,,,,,,,,,,,,,,,,,,,,,,,,,,,,,,,,,,,,,,,,,,,,,,,,,,,,,,,,,,,,,,,,,,,,,,,,,,,,,
,,,,,,,,,,W1378087,2020-10-19_13h11.13.598,swahili,2020.2.4,MacIntel,60,,,,,,,,,,-0.340315755,-0.057960155,1,0,0,6.049405,unsorted_card,8,0,8,0,1,PLATE - SAHANI,,,,,,,,,,,,,,,,,,,,,,,,,,,,,,,,,,,,,,,,,,,,,,,,,,,,,,,,,,,,,,,,,,,,,,,,,,,,,,,,
,,,,,,,,,,W1378087,2020-10-19_13h11.13.598,swahili,2020.2.4,MacIntel,60,,,,,,,,,,0.556163194,0.059238364,1,0,0,0.79963,test_pile,9,0,9,0,1,PLATE - SAHANI,,,,,,,,,,,,,,,,,,,,,,,,,,,,,,,,,,,,,,,,,,,,,,,,,,,,,,,,,,,,,,,,,,,,,,,,,,,,,,,,
,,,,,,,,,,W1378087,2020-10-19_13h11.13.598,swahili,2020.2.4,MacIntel,60,,,,,,,,,,-0.511886936,-0.038764986,1,0,0,0.597205,unsorted_card,10,0,10,0,1,,,,,,,,,,,,,,,,,,,,,,,,,,,,,,,,,,,,,,,,,,,,,,,,,,,,,,,,,,,,,,,,,,,,,,,,,,,,,,,,,
,,,,,,,,,,W1378087,2020-10-19_13h11.13.598,swahili,2020.2.4,MacIntel,60,,,,,,,,,,0.549869792,0.006743653,1,0,0,6.48297,test_pile,11,0,11,0,1,YEAST - HAMIRA,,,,,,,,,,,,,,,,,,,,,,,,,,,,,,,,,,,,,,,,,,,,,,,,,,,,,,,,,,,,,,,,,,,,,,,,,,,,,,,,
,,,,,,,,,,W1378087,2020-10-19_13h11.13.598,swahili,2020.2.4,MacIntel,60,,,,,,,,,,-0.2671875,0.047943847,1,0,0,0.696435,unsorted_card,12,0,12,0,1,,,,,,,,,,,,,,,,,,,,,,,,,,,,,,,,,,,,,,,,,,,,,,,,,,,,,,,,,,,,,,,,,,,,,,,,,,,,,,,,,
,,,,,,,,,,W1378087,2020-10-19_13h11.13.598,swahili,2020.2.4,MacIntel,60,,,,,,,,,,0.627007378,-0.025453984,1,0,0,7.41716,test_pile,13,0,13,0,1,BLAME - LAWAMA,,,,,,,,,,,,,,,,,,,,,,,,,,,,,,,,,,,,,,,,,,,,,,,,,,,,,,,,,,,,,,,,,,,,,,,,,,,,,,,,
,,,,,,,,,,W1378087,2020-10-19_13h11.13.598,swahili,2020.2.4,MacIntel,60,,,,,,,,,,-0.413736979,0.117341767,1,0,0,0.71331,unsorted_card,14,0,14,0,1,,,,,,,,,,,,,,,,,,,,,,,,,,,,,,,,,,,,,,,,,,,,,,,,,,,,,,,,,,,,,,,,,,,,,,,,,,,,,,,,,
,,,,,,,,,,W1378087,2020-10-19_13h11.13.598,swahili,2020.2.4,MacIntel,60,,,,,,,,,,0.483300781,0.007415815,1,0,0,6.34961,test_pile,15,0,15,0,1,OATH - YAMINI,,,,,,,,,,,,,,,,,,,,,,,,,,,,,,,,,,,,,,,,,,,,,,,,,,,,,,,,,,,,,,,,,,,,,,,,,,,,,,,,
,,,,,,,,,,W1378087,2020-10-19_13h11.13.598,swahili,2020.2.4,MacIntel,60,,,,,,,,,,-0.476812066,0.056792137,1,0,0,0.61378,unsorted_card,16,0,16,0,1,,,,,,,,,,,,,,,,,,,,,,,,,,,,,,,,,,,,,,,,,,,,,,,,,,,,,,,,,,,,,,,,,,,,,,,,,,,,,,,,,
,,,,,,,,,,W1378087,2020-10-19_13h11.13.598,swahili,2020.2.4,MacIntel,60,,,,,,,,,,0.428417969,0.002898008,1,0,0,7.68121,test_pile,17,0,17,0,1,CORN - NAFAKA,,,,,,,,,,,,,,,,,,,,,,,,,,,,,,,,,,,,,,,,,,,,,,,,,,,,,,,,,,,,,,,,,,,,,,,,,,,,,,,,
,,,,,,,,,,W1378087,2020-10-19_13h11.13.598,swahili,2020.2.4,MacIntel,60,,,,,,,,,,-0.372612847,-0.133098995,1,0,0,0.631965,unsorted_card,18,0,18,0,1,,,,,,,,,,,,,,,,,,,,,,,,,,,,,,,,,,,,,,,,,,,,,,,,,,,,,,,,,,,,,,,,,,,,,,,,,,,,,,,,,
,,,,,,,,,,W1378087,2020-10-19_13h11.13.598,swahili,2020.2.4,MacIntel,60,,,,,,,,,,0.406266276,0.019327398,1,0,0,6.080785,test_pile,19,0,19,0,1,POEM - UTENZI,,,,,,,,,,,,,,,,,,,,,,,,,,,,,,,,,,,,,,,,,,,,,,,,,,,,,,,,,,,,,,,,,,,,,,,,,,,,,,,,
,,,,,,,,,,W1378087,2020-10-19_13h11.13.598,swahili,2020.2.4,MacIntel,60,,,,,,,,,,-0.311268446,-0.082191026,1,0,0,0.68163,unsorted_card,20,0,20,0,1,,,,,,,,,,,,,,,,,,,,,,,,,,,,,,,,,,,,,,,,,,,,,,,,,,,,,,,,,,,,,,,,,,,,,,,,,,,,,,,,,
,,,,,,,,,,W1378087,2020-10-19_13h11.13.598,swahili,2020.2.4,MacIntel,60,,,,,,,,,,0.346001519,-0.010776622,1,0,0,7.41671,test_pile,21,0,21,0,1,TAILOR - MSHONI,,,,,,,,,,,,,,,,,,,,,,,,,,,,,,,,,,,,,,,,,,,,,,,,,,,,,,,,,,,,,,,,,,,,,,,,,,,,,,,,
,,,,,,,,,,W1378087,2020-10-19_13h11.13.598,swahili,2020.2.4,MacIntel,60,,,,,,,,,,-0.433610026,-0.105540374,1,0,0,0.698005,unsorted_card,22,0,22,0,1,,,,,,,,,,,,,,,,,,,,,,,,,,,,,,,,,,,,,,,,,,,,,,,,,,,,,,,,,,,,,,,,,,,,,,,,,,,,,,,,,
,,,,,,,,,,W1378087,2020-10-19_13h11.13.598,swahili,2020.2.4,MacIntel,60,,,,,,,,,,0.501991102,-0.006236777,1,0,0,9.59771,test_pile,23,0,23,0,1,CHEESE - JIBINI,,,,,,,,,,,,,,,,,,,,,,,,,,,,,,,,,,,,,,,,,,,,,,,,,,,,,,,,,,,,,,,,,,,,,,,,,,,,,,,,
,,,,,,,,,,W1378087,2020-10-19_13h11.13.598,swahili,2020.2.4,MacIntel,60,,,,,,,,,,-0.340760634,-0.144470645,1,0,0,0.5819,unsorted_card,24,0,24,0,1,,,,,,,,,,,,,,,,,,,,,,,,,,,,,,,,,,,,,,,,,,,,,,,,,,,,,,,,,,,,,,,,,,,,,,,,,,,,,,,,,
,,,,,,,,,,W1378087,2020-10-19_13h11.13.598,swahili,2020.2.4,MacIntel,60,,,,,,,,,,0.655566406,-0.051139369,1,0,0,6.515865,test_pile,25,0,25,0,1,GRAPES - ZABIBU,,,,,,,,,,,,,,,,,,,,,,,,,,,,,,,,,,,,,,,,,,,,,,,,,,,,,,,,,,,,,,,,,,,,,,,,,,,,,,,,
,,,,,,,,,,W1378087,2020-10-19_13h11.13.598,swahili,2020.2.4,MacIntel,60,,,,,,,,,,-0.273068576,-0.276291432,1,0,0,0.66535,unsorted_card,26,0,26,0,1,,,,,,,,,,,,,,,,,,,,,,,,,,,,,,,,,,,,,,,,,,,,,,,,,,,,,,,,,,,,,,,,,,,,,,,,,,,,,,,,,
,,,,,,,,,,W1378087,2020-10-19_13h11.13.598,swahili,2020.2.4,MacIntel,60,,,,,,,,,,0.596240234,0.051877645,1,0,0,7.78088,test_pile,27,0,27,0,1,GRAVE - KABURI,,,,,,,,,,,,,,,,,,,,,,,,,,,,,,,,,,,,,,,,,,,,,,,,,,,,,,,,,,,,,,,,,,,,,,,,,,,,,,,,
,,,,,,,,,,W1378087,2020-10-19_13h11.13.598,swahili,2020.2.4,MacIntel,60,,,,,,,,,,-0.257991536,-0.037652063,1,0,0,0.698975,unsorted_card,28,0,28,0,1,,,,,,,,,,,,,,,,,,,,,,,,,,,,,,,,,,,,,,,,,,,,,,,,,,,,,,,,,,,,,,,,,,,,,,,,,,,,,,,,,
,,,,,,,,,,W1378087,2020-10-19_13h11.13.598,swahili,2020.2.4,MacIntel,60,,,,,,,,,,0.363953993,-0.037079073,1,0,0,7.566265,test_pile,29,0,29,0,1,MANURE - SAMADI,,,,,,,,,,,,,,,,,,,,,,,,,,,,,,,,,,,,,,,,,,,,,,,,,,,,,,,,,,,,,,,,,,,,,,,,,,,,,,,,
,,,,,,,,,,W1378087,2020-10-19_13h11.13.598,swahili,2020.2.4,MacIntel,60,,,,,,,,,,-0.325580512,0.00872708,1,0,0,0.661695,unsorted_card,30,0,30,0,1,,,,,,,,,,,,,,,,,,,,,,,,,,,,,,,,,,,,,,,,,,,,,,,,,,,,,,,,,,,,,,,,,,,,,,,,,,,,,,,,,
,,,,,,,,,,W1378087,2020-10-19_13h11.13.598,swahili,2020.2.4,MacIntel,60,,,,,,,,,,0.595106337,-0.102719499,1,0,0,7.730515,test_pile,31,0,31,0,1,AGENT - WAKILI,,,,,,,,,,,,,,,,,,,,,,,,,,,,,,,,,,,,,,,,,,,,,,,,,,,,,,,,,,,,,,,,,,,,,,,,,,,,,,,,
,,,,,,,,,,W1378087,2020-10-19_13h11.13.598,swahili,2020.2.4,MacIntel,60,,,,,,,,,,-0.285801866,0.104879231,1,0,0,0.64862,unsorted_card,32,0,32,0,1,,,,,,,,,,,,,,,,,,,,,,,,,,,,,,,,,,,,,,,,,,,,,,,,,,,,,,,,,,,,,,,,,,,,,,,,,,,,,,,,,
,,,,,,,,,,W1378087,2020-10-19_13h11.13.598,swahili,2020.2.4,MacIntel,60,,,,,,,,,,0.57874349,0.044770363,1,0,0,6.849675,test_pile,33,0,33,0,1,BRIBE - RUSHWA,,,,,,,,,,,,,,,,,,,,,,,,,,,,,,,,,,,,,,,,,,,,,,,,,,,,,,,,,,,,,,,,,,,,,,,,,,,,,,,,
,,,,,,,,,,W1378087,2020-10-19_13h11.13.598,swahili,2020.2.4,MacIntel,60,,,,,,,,,,-0.372531467,0.039238805,1,0,0,0.72988,unsorted_card,34,0,34,0,1,,,,,,,,,,,,,,,,,,,,,,,,,,,,,,,,,,,,,,,,,,,,,,,,,,,,,,,,,,,,,,,,,,,,,,,,,,,,,,,,,
,,,,,,,,,,W1378087,2020-10-19_13h11.13.598,swahili,2020.2.4,MacIntel,60,,,,,,,,,,0.532335069,0.157087447,1,0,0,9.34923,test_pile,35,0,35,0,1,ORPHAN - YATIMA,,,,,,,,,,,,,,,,,,,,,,,,,,,,,,,,,,,,,,,,,,,,,,,,,,,,,,,,,,,,,,,,,,,,,,,,,,,,,,,,
,,,,,,,,,,W1378087,2020-10-19_13h11.13.598,swahili,2020.2.4,MacIntel,60,,,,,,,,,,-0.408452691,0.097066731,1,0,0,0.664835,unsorted_card,36,0,36,0,1,,,,,,,,,,,,,,,,,,,,,,,,,,,,,,,,,,,,,,,,,,,,,,,,,,,,,,,,,,,,,,,,,,,,,,,,,,,,,,,,,
,,,,,,,,,,W1378087,2020-10-19_13h11.13.598,swahili,2020.2.4,MacIntel,60,,,,,,,,,,0.397379557,0.038963329,1,0,0,7.28174,test_pile,37,0,37,0,1,DIVORCE - TALAKA,,,,,,,,,,,,,,,,,,,,,,,,,,,,,,,,,,,,,,,,,,,,,,,,,,,,,,,,,,,,,,,,,,,,,,,,,,,,,,,,
,,,,,,,,,,W1378087,2020-10-19_13h11.13.598,swahili,2020.2.4,MacIntel,60,,,,,,,,,,-0.430875651,-0.089276269,1,0,0,0.59815,unsorted_card,38,0,38,0,1,,,,,,,,,,,,,,,,,,,,,,,,,,,,,,,,,,,,,,,,,,,,,,,,,,,,,,,,,,,,,,,,,,,,,,,,,,,,,,,,,
,,,,,,,,,,W1378087,2020-10-19_13h11.13.598,swahili,2020.2.4,MacIntel,60,,,,,,,,,,0.584136285,0.04113408,1,0,0,6.24678,test_pile,39,0,39,0,1,BOAT - MASHUA,,,,,,,,,,,,,,,,,,,,,,,,,,,,,,,,,,,,,,,,,,,,,,,,,,,,,,,,,,,,,,,,,,,,,,,,,,,,,,,,
,,,,,,,,,,W1378087,2020-10-19_13h11.13.598,swahili,2020.2.4,MacIntel,60,,,,,,,,,,-0.494981554,-0.063601904,1,0,0,0.629035,unsorted_card,40,0,40,0,1,,,,,,,,,,,,,,,,,,,,,,,,,,,,,,,,,,,,,,,,,,,,,,,,,,,,,,,,,,,,,,,,,,,,,,,,,,,,,,,,,
,,,,,,,,,,W1378087,2020-10-19_13h11.13.598,swahili,2020.2.4,MacIntel,60,,,,,,,,,,0.399815538,0.050819817,1,0,0,8.250335,test_pile,41,0,41,0,1,TREASURE - DAFINA,,,,,,,,,,,,,,,,,,,,,,,,,,,,,,,,,,,,,,,,,,,,,,,,,,,,,,,,,,,,,,,,,,,,,,,,,,,,,,,,
,,,,,,,,,,W1378087,2020-10-19_13h11.13.598,swahili,2020.2.4,MacIntel,60,,,,,,,,,,,,,,,,,,,,,,,,,,,,,,,,,,0,0,0,0,1,,,,,,,,,,,,,,,,,,,,,,,,,,,,,,,,,,,,,,,,,,,,,,,,,,,,,,,,,,,,,,,,
,,,,,,,,,,W1378087,2020-10-19_13h11.13.598,swahili,2020.2.4,MacIntel,60,,,,,,,,,,,,,,,,,,,,,,,,,,,,,,,,,,,,,,,return,,,,,,,,,,,3.69723,4.964675,0.317730035,-0.120140603,1,0,0,0.700935,yes,DIVORCE,TALAKA,incorrect,0,0,0,0,1,,,,,,,,,,,,,,,,,,,,,,,,,,,,,,,,,,,,
,,,,,,,,,,W1378087,2020-10-19_13h11.13.598,swahili,2020.2.4,MacIntel,60,,,,,,,,,,,,,,,,,,,,,,,,,,,,,,,,,,,,,,,,,,,,,,,,,,,5.3821,0.382210286,-0.103601023,1,0,0,0.63445,yes,ORPHAN,YATIMA,incorrect,1,0,1,0,1,,,,,,,,,,,,,,,,,,,,,,,,,,,,,,,,,,,,
,,,,,,,,,,W1378087,2020-10-19_13h11.13.598,swahili,2020.2.4,MacIntel,60,,,,,,,,,,,,,,,,,,,,,,,,,,,,,,,,,,,,,,,,,,,,,,,,,,,10.54857,0.387565104,-0.103601023,1,0,0,0.500615,yes,PARROT,JFA,incorrect,2,0,2,0,1,,,,,,,,,,,,,,,,,,,,,,,,,,,,,,,,,,,,
,,,,,,,,,,W1378087,2020-10-19_13h11.13.598,swahili,2020.2.4,MacIntel,60,,,,,,,,,,,,,,,,,,,,,,,,,,,,,,,,,,,,,,,,,,,,,,,,,,,8.297535,0.41725803,0.047260666,1,0,0,0.550215,yes,BOAT,GGE,incorrect,3,0,3,0,1,,,,,,,,,,,,,,,,,,,,,,,,,,,,,,,,,,,,
,,,,,,,,,,W1378087,2020-10-19_13h11.13.598,swahili,2020.2.4,MacIntel,60,,,,,,,,,,,,,,,,,,,,,,,,,,,,,,,,,,,,,,,,,,,,,,,,,,,23.715235,0.41725803,0.047260666,1,0,0,0.8166,yes,CORN,MAFAKA,incorrect,4,0,4,0,1,,,,,,,,,,,,,,,,,,,,,,,,,,,,,,,,,,,,
,,,,,,,,,,W1378087,2020-10-19_13h11.13.598,swahili,2020.2.4,MacIntel,60,,,,,,,,,,,,,,,,,,,,,,,,,,,,,,,,,,,,,,,,,,,,,,,,,,,9.481285,0.380447049,-0.081364598,1,0,0,0.64887,yes,CHEESE,JIBINI,incorrect,5,0,5,0,1,,,,,,,,,,,,,,,,,,,,,,,,,,,,,,,,,,,,
,,,,,,,,,,W1378087,2020-10-19_13h11.13.598,swahili,2020.2.4,MacIntel,60,,,,,,,,,,,,,,,,,,,,,,,,,,,,,,,,,,,,,,,,,,,,,,,,,,,3.53136,0.310514323,0.075204954,1,0,0,1.300715,yes,BLAME,HJ,incorrect,6,0,6,0,1,,,,,,,,,,,,,,,,,,,,,,,,,,,,,,,,,,,,
,,,,,,,,,,W1378087,2020-10-19_13h11.13.598,swahili,2020.2.4,MacIntel,60,,,,,,,,,,,,,,,,,,,,,,,,,,,,,,,,,,,,,,,,,,,,,,,,,,,10.197945,0.348426649,0.052186178,1,0,0,0.584345,yes,PLATE,TAHINI,incorrect,7,0,7,0,1,,,,,,,,,,,,,,,,,,,,,,,,,,,,,,,,,,,,
,,,,,,,,,,W1378087,2020-10-19_13h11.13.598,swahili,2020.2.4,MacIntel,60,,,,,,,,,,,,,,,,,,,,,,,,,,,,,,,,,,,,,,,,,,,,,,,,,,,10.230005,0.348426649,0.052186178,1,0,0,0.56702,yes,GRAPES,ZABUKA,incorrect,8,0,8,0,1,,,,,,,,,,,,,,,,,,,,,,,,,,,,,,,,,,,,
,,,,,,,,,,W1378087,2020-10-19_13h11.13.598,swahili,2020.2.4,MacIntel,60,,,,,,,,,,,,,,,,,,,,,,,,,,,,,,,,,,,,,,,,,,,,,,,,,,,8.215525,0.316167535,-0.058301745,1,0,0,1.03295,yes,POEM,DFAF,incorrect,9,0,9,0,1,,,,,,,,,,,,,,,,,,,,,,,,,,,,,,,,,,,,
,,,,,,,,,,W1378087,2020-10-19_13h11.13.598,swahili,2020.2.4,MacIntel,60,,,,,,,,,,,,,,,,,,,,,,,,,,,,,,,,,,,,,,,,,,,,,,,,,,,9.881795,0.390136719,-0.070676128,1,0,0,0.782485,yes,BRIBE,LAWANA,incorrect,10,0,10,0,1,,,,,,,,,,,,,,,,,,,,,,,,,,,,,,,,,,,,
,,,,,,,,,,W1378087,2020-10-19_13h11.13.598,swahili,2020.2.4,MacIntel,60,,,,,,,,,,,,,,,,,,,,,,,,,,,,,,,,,,,,,,,,,,,,,,,,,,,12.83218,0.390136719,-0.070676128,1,0,0,0.51538,yes,TAILOR,MSUKA,incorrect,11,0,11,0,1,,,,,,,,,,,,,,,,,,,,,,,,,,,,,,,,,,,,
,,,,,,,,,,W1378087,2020-10-19_13h11.13.598,swahili,2020.2.4,MacIntel,60,,,,,,,,,,,,,,,,,,,,,,,,,,,,,,,,,,,,,,,,,,,,,,,,,,,7.730975,0.290266927,-0.125176305,1,0,0,0.933355,yes,AGENT,FA,incorrect,12,0,12,0,1,,,,,,,,,,,,,,,,,,,,,,,,,,,,,,,,,,,,
,,,,,,,,,,W1378087,2020-10-19_13h11.13.598,swahili,2020.2.4,MacIntel,60,,,,,,,,,,,,,,,,,,,,,,,,,,,,,,,,,,,,,,,,,,,,,,,,,,,6.82981,0.290266927,-0.125176305,1,0,0,0.63397,yes,YEAST,F,incorrect,13,0,13,0,1,,,,,,,,,,,,,,,,,,,,,,,,,,,,,,,,,,,,
,,,,,,,,,,W1378087,2020-10-19_13h11.13.598,swahili,2020.2.4,MacIntel,60,,,,,,,,,,,,,,,,,,,,,,,,,,,,,,,,,,,,,,,,,,,,,,,,,,,6.414035,0.290266927,-0.125176305,1,0,0,0.732905,yes,MERCHANT,FA,incorrect,14,0,14,0,1,,,,,,,,,,,,,,,,,,,,,,,,,,,,,,,,,,,,
,,,,,,,,,,W1378087,2020-10-19_13h11.13.598,swahili,2020.2.4,MacIntel,60,,,,,,,,,,,,,,,,,,,,,,,,,,,,,,,,,,,,,,,,,,,,,,,,,,,11.248695,0.290266927,-0.125176305,1,0,0,0.56648,yes,BULL,FAJIRI,incorrect,15,0,15,0,1,,,,,,,,,,,,,,,,,,,,,,,,,,,,,,,,,,,,
,,,,,,,,,,W1378087,2020-10-19_13h11.13.598,swahili,2020.2.4,MacIntel,60,,,,,,,,,,,,,,,,,,,,,,,,,,,,,,,,,,,,,,,,,,,,,,,,,,,9.964585,0.343359375,-0.051073255,1,0,0,1.19987,yes,GRAVE,G,incorrect,16,0,16,0,1,,,,,,,,,,,,,,,,,,,,,,,,,,,,,,,,,,,,
,,,,,,,,,,W1378087,2020-10-19_13h11.13.598,swahili,2020.2.4,MacIntel,60,,,,,,,,,,,,,,,,,,,,,,,,,,,,,,,,,,,,,,,,,,,,,,,,,,,5.581405,0.343359375,-0.051073255,1,0,0,0.66613,yes,MANURE,F,incorrect,17,0,17,0,1,,,,,,,,,,,,,,,,,,,,,,,,,,,,,,,,,,,,
,,,,,,,,,,W1378087,2020-10-19_13h11.13.598,swahili,2020.2.4,MacIntel,60,,,,,,,,,,,,,,,,,,,,,,,,,,,,,,,,,,,,,,,,,,,,,,,,,,,5.18055,0.343359375,-0.051073255,1,0,0,0.51644,yes,OATH,H,incorrect,18,0,18,0,1,,,,,,,,,,,,,,,,,,,,,,,,,,,,,,,,,,,,
,,,,,,,,,,W1378087,2020-10-19_13h11.13.598,swahili,2020.2.4,MacIntel,60,,,,,,,,,,,,,,,,,,,,,,,,,,,,,,,,,,,,,,,,,,,,,,,,,,,4.013325,0.343359375,-0.051073255,1,0,0,1.166605,yes,TREASURE,G,incorrect,19,0,19,0,1,,,,,,,,,,,,,,,,,,,,,,,,,,,,,,,,,,,,
,,,,,,,,,,W1378087,2020-10-19_13h11.13.598,swahili,2020.2.4,MacIntel,60,,,,,,,,,,,,,,,,,,,,,,,,,,,,,,,,,,,,,,,,0,0,0,0,1,,,,,,,,,,,,,,,,,,,,,,,,,,,,,,,,,,,,,,,,,,,,,,,,,,,,,,,,,,
,,,,,,,,,,W1378087,2020-10-19_13h11.13.598,swahili,2020.2.4,MacIntel,60,,,,,,,,,,,,,,,,,,,,,,,,,,,,,,,,,,,,,,,,1,0,1,0,1,,,,,,,,,,,,,,,,,,,,,,,,,,,,,,,,,,,,,,,,,,,,,,,,,,,,,,,,,,
,,,,,,,,,,W1378087,2020-10-19_13h11.13.598,swahili,2020.2.4,MacIntel,60,,,,,,,,,,,,,,,,,,,,,,,,,,,,,,,,,,,,,,,,,,,,,2,0,2,0,1,,,,,,,,,,,,,,,,,,,,,,,,,,,,,,,,,,,,,,,,,,,,,,,,,,,,,
,,,,,,,,,,W1378087,2020-10-19_13h11.13.598,swahili,2020.2.4,MacIntel,60,,,,,,,,,,-0.429866536,-0.138817877,1,0,0,18.851815,unsorted_card,0,0,0,0,1,,,,,,,,,,,,,,,,,,,,,,,,,,,,,,,,,,,,,,,,,,,,,,,,,,,,,,,,,,,,,,,,,,,,,,,,,,,,,,,,,
,,,,,,,,,,W1378087,2020-10-19_13h11.13.598,swahili,2020.2.4,MacIntel,60,,,,,,,,,,-0.300667318,-0.078102962,1,0,0,30.11354,unsorted_card,1,0,1,0,1,MERCHANT - TAJIRI,,,,,,,,,,,,,,,,,,,,,,,,,,,,,,,,,,,,,,,,,,,,,,,,,,,,,,,,,,,,,,,,,,,,,,,,,,,,,,,,
,,,,,,,,,,W1378087,2020-10-19_13h11.13.598,swahili,2020.2.4,MacIntel,60,,,,,,,,,,0.509847005,-0.057960155,1,0,0,1.58228,test_pile,2,0,2,0,1,MERCHANT - TAJIRI,,,,,,,,,,,,,,,,,,,,,,,,,,,,,,,,,,,,,,,,,,,,,,,,,,,,,,,,,,,,,,,,,,,,,,,,,,,,,,,,
,,,,,,,,,,W1378087,2020-10-19_13h11.13.598,swahili,2020.2.4,MacIntel,60,,,,,,,,,,-0.196554905,-0.027790021,1,0,0,0.599645,unsorted_card,3,0,3,0,1,,,,,,,,,,,,,,,,,,,,,,,,,,,,,,,,,,,,,,,,,,,,,,,,,,,,,,,,,,,,,,,,,,,,,,,,,,,,,,,,,
,,,,,,,,,,W1378087,2020-10-19_13h11.13.598,swahili,2020.2.4,MacIntel,60,,,,,,,,,,0.431212023,0.028175688,1,0,0,16.847035,test_pile,4,0,4,0,1,PARROT - KASUKU,,,,,,,,,,,,,,,,,,,,,,,,,,,,,,,,,,,,,,,,,,,,,,,,,,,,,,,,,,,,,,,,,,,,,,,,,,,,,,,,
,,,,,,,,,,W1378087,2020-10-19_13h11.13.598,swahili,2020.2.4,MacIntel,60,,,,,,,,,,-0.270090061,0.034048836,1,0,0,0.54786,unsorted_card,5,0,5,0,1,,,,,,,,,,,,,,,,,,,,,,,,,,,,,,,,,,,,,,,,,,,,,,,,,,,,,,,,,,,,,,,,,,,,,,,,,,,,,,,,,
,,,,,,,,,,W1378087,2020-10-19_13h11.13.598,swahili,2020.2.4,MacIntel,60,,,,,,,,,,0.353667535,-0.044704249,1,0,0,16.88295,test_pile,6,0,6,0,1,BULL - FAHILI,,,,,,,,,,,,,,,,,,,,,,,,,,,,,,,,,,,,,,,,,,,,,,,,,,,,,,,,,,,,,,,,,,,,,,,,,,,,,,,,
,,,,,,,,,,W1378087,2020-10-19_13h11.13.598,swahili,2020.2.4,MacIntel,60,,,,,,,,,,-0.272406684,0.106234573,1,0,0,1.69776,unsorted_card,7,0,7,0,1,,,,,,,,,,,,,,,,,,,,,,,,,,,,,,,,,,,,,,,,,,,,,,,,,,,,,,,,,,,,,,,,,,,,,,,,,,,,,,,,,
,,,,,,,,,,W1378087,2020-10-19_13h11.13.598,swahili,2020.2.4,MacIntel,60,,,,,,,,,,0.601264106,-0.016385314,1,0,0,20.08254,test_pile,8,0,8,0,1,PLATE - SAHANI,,,,,,,,,,,,,,,,,,,,,,,,,,,,,,,,,,,,,,,,,,,,,,,,,,,,,,,,,,,,,,,,,,,,,,,,,,,,,,,,
,,,,,,,,,,W1378087,2020-10-19_13h11.13.598,swahili,2020.2.4,MacIntel,60,,,,,,,,,,-0.458295356,0.087447109,1,0,0,0.564615,unsorted_card,9,0,9,0,1,,,,,,,,,,,,,,,,,,,,,,,,,,,,,,,,,,,,,,,,,,,,,,,,,,,,,,,,,,,,,,,,,,,,,,,,,,,,,,,,,
,,,,,,,,,,W1378087,2020-10-19_13h11.13.598,swahili,2020.2.4,MacIntel,60,,,,,,,,,,0.441064453,-0.008572814,1,0,0,15.59794,test_pile,10,0,10,0,1,YEAST - HAMIRA,,,,,,,,,,,,,,,,,,,,,,,,,,,,,,,,,,,,,,,,,,,,,,,,,,,,,,,,,,,,,,,,,,,,,,,,,,,,,,,,
,,,,,,,,,,W1378087,2020-10-19_13h11.13.598,swahili,2020.2.4,MacIntel,60,,,,,,,,,,-0.605251736,-0.015305448,1,0,0,0.532675,unsorted_card,11,0,11,0,1,,,,,,,,,,,,,,,,,,,,,,,,,,,,,,,,,,,,,,,,,,,,,,,,,,,,,,,,,,,,,,,,,,,,,,,,,,,,,,,,,
,,,,,,,,,,W1378087,2020-10-19_13h11.13.598,swahili,2020.2.4,MacIntel,60,,,,,,,,,,0.567648655,0.066621121,1,0,0,15.880455,test_pile,12,0,12,0,1,BLAME - LAWAMA,,,,,,,,,,,,,,,,,,,,,,,,,,,,,,,,,,,,,,,,,,,,,,,,,,,,,,,,,,,,,,,,,,,,,,,,,,,,,,,,
,,,,,,,,,,W1378087,2020-10-19_13h11.13.598,swahili,2020.2.4,MacIntel,60,,,,,,,,,,-0.517811415,0.149142719,1,0,0,0.749055,unsorted_card,13,0,13,0,1,,,,,,,,,,,,,,,,,,,,,,,,,,,,,,,,,,,,,,,,,,,,,,,,,,,,,,,,,,,,,,,,,,,,,,,,,,,,,,,,,
,,,,,,,,,,W1378087,2020-10-19_13h11.13.598,swahili,2020.2.4,MacIntel,60,,,,,,,,,,0.70820855,-0.040968794,1,0,0,14.632715,test_pile,14,0,14,0,1,OATH - YAMINI,,,,,,,,,,,,,,,,,,,,,,,,,,,,,,,,,,,,,,,,,,,,,,,,,,,,,,,,,,,,,,,,,,,,,,,,,,,,,,,,
,,,,,,,,,,W1378087,2020-10-19_13h11.13.598,swahili,2020.2.4,MacIntel,60,,,,,,,,,,-0.436306424,-0.061431153,1,0,0,0.616275,unsorted_card,15,0,15,0,1,,,,,,,,,,,,,,,,,,,,,,,,,,,,,,,,,,,,,,,,,,,,,,,,,,,,,,,,,,,,,,,,,,,,,,,,,,,,,,,,,
,,,,,,,,,,W1378087,2020-10-19_13h11.13.598,swahili,2020.2.4,MacIntel,60,,,,,,,,,,0.386962891,-0.090697726,1,0,0,15.232045,test_pile,16,0,16,0,1,CORN - NAFAKA,,,,,,,,,,,,,,,,,,,,,,,,,,,,,,,,,,,,,,,,,,,,,,,,,,,,,,,,,,,,,,,,,,,,,,,,,,,,,,,,
,,,,,,,,,,W1378087,2020-10-19_13h11.13.598,swahili,2020.2.4,MacIntel,60,,,,,,,,,,-0.32718099,-0.094697638,1,0,0,0.51322,unsorted_card,17,0,17,0,1,,,,,,,,,,,,,,,,,,,,,,,,,,,,,,,,,,,,,,,,,,,,,,,,,,,,,,,,,,,,,,,,,,,,,,,,,,,,,,,,,
,,,,,,,,,,W1378087,2020-10-19_13h11.13.598,swahili,2020.2.4,MacIntel,60,,,,,,,,,,0.511561415,0.133242243,1,0,0,15.53171,test_pile,18,0,18,0,1,POEM - UTENZI,,,,,,,,,,,,,,,,,,,,,,,,,,,,,,,,,,,,,,,,,,,,,,,,,,,,,,,,,,,,,,,,,,,,,,,,,,,,,,,,
,,,,,,,,,,W1378087,2020-10-19_13h11.13.598,swahili,2020.2.4,MacIntel,60,,,,,,,,,,-0.419151476,-0.029685296,1,0,0,0.632335,unsorted_card,19,0,19,0,1,,,,,,,,,,,,,,,,,,,,,,,,,,,,,,,,,,,,,,,,,,,,,,,,,,,,,,,,,,,,,,,,,,,,,,,,,,,,,,,,,
,,,,,,,,,,W1378087,2020-10-19_13h11.13.598,swahili,2020.2.4,MacIntel,60,,,,,,,,,,0.61187066,0.087689528,1,0,0,14.565005,test_pile,20,0,20,0,1,TAILOR - MSHONI,,,,,,,,,,,,,,,,,,,,,,,,,,,,,,,,,,,,,,,,,,,,,,,,,,,,,,,,,,,,,,,,,,,,,,,,,,,,,,,,
,,,,,,,,,,W1378087,2020-10-19_13h11.13.598,swahili,2020.2.4,MacIntel,60,,,,,,,,,,-0.666227214,0.283002028,1,0,0,0.629515,unsorted_card,21,0,21,0,1,,,,,,,,,,,,,,,,,,,,,,,,,,,,,,,,,,,,,,,,,,,,,,,,,,,,,,,,,,,,,,,,,,,,,,,,,,,,,,,,,
,,,,,,,,,,W1378087,2020-10-19_13h11.13.598,swahili,2020.2.4,MacIntel,60,,,,,,,,,,0.550558811,0.071425423,1,0,0,14.7993,test_pile,22,0,22,0,1,CHEESE - JIBINI,,,,,,,,,,,,,,,,,,,,,,,,,,,,,,,,,,,,,,,,,,,,,,,,,,,,,,,,,,,,,,,,,,,,,,,,,,,,,,,,
,,,,,,,,,,W1378087,2020-10-19_13h11.13.598,swahili,2020.2.4,MacIntel,60,,,,,,,,,,-0.190256076,0.042136812,1,0,0,0.63233,unsorted_card,23,0,23,0,1,,,,,,,,,,,,,,,,,,,,,,,,,,,,,,,,,,,,,,,,,,,,,,,,,,,,,,,,,,,,,,,,,,,,,,,,,,,,,,,,,
,,,,,,,,,,W1378087,2020-10-19_13h11.13.598,swahili,2020.2.4,MacIntel,60,,,,,,,,,,0.522911241,-0.002336037,1,0,0,15.882245,test_pile,24,0,24,0,1,GRAPES - ZABIBU,,,,,,,,,,,,,,,,,,,,,,,,,,,,,,,,,,,,,,,,,,,,,,,,,,,,,,,,,,,,,,,,,,,,,,,,,,,,,,,,
,,,,,,,,,,W1378087,2020-10-19_13h11.13.598,swahili,2020.2.4,MacIntel,60,,,,,,,,,,-0.102956814,-0.040109309,1,0,0,0.64776,unsorted_card,25,0,25,0,1,,,,,,,,,,,,,,,,,,,,,,,,,,,,,,,,,,,,,,,,,,,,,,,,,,,,,,,,,,,,,,,,,,,,,,,,,,,,,,,,,
,,,,,,,,,,W1378087,2020-10-19_13h11.13.598,swahili,2020.2.4,MacIntel,60,,,,,,,,,,0.524527995,0.064483427,1,0,0,16.04973,test_pile,26,0,26,0,1,GRAVE - KABURI,,,,,,,,,,,,,,,,,,,,,,,,,,,,,,,,,,,,,,,,,,,,,,,,,,,,,,,,,,,,,,,,,,,,,,,,,,,,,,,,
,,,,,,,,,,W1378087,2020-10-19_13h11.13.598,swahili,2020.2.4,MacIntel,60,,,,,,,,,,-0.386159939,0.036902768,1,0,0,0.579965,unsorted_card,27,0,27,0,1,,,,,,,,,,,,,,,,,,,,,,,,,,,,,,,,,,,,,,,,,,,,,,,,,,,,,,,,,,,,,,,,,,,,,,,,,,,,,,,,,
,,,,,,,,,,W1378087,2020-10-19_13h11.13.598,swahili,2020.2.4,MacIntel,60,,,,,,,,,,0.492811415,-0.006953015,1,0,0,20.93268,test_pile,28,0,28,0,1,MANURE - SAMADI,,,,,,,,,,,,,,,,,,,,,,,,,,,,,,,,,,,,,,,,,,,,,,,,,,,,,,,,,,,,,,,,,,,,,,,,,,,,,,,,
,,,,,,,,,,W1378087,2020-10-19_13h11.13.598,swahili,2020.2.4,MacIntel,60,,,,,,,,,,-0.361431207,0.15843177,1,0,0,0.565035,unsorted_card,29,0,29,0,1,,,,,,,,,,,,,,,,,,,,,,,,,,,,,,,,,,,,,,,,,,,,,,,,,,,,,,,,,,,,,,,,,,,,,,,,,,,,,,,,,
,,,,,,,,,,W1378087,2020-10-19_13h11.13.598,swahili,2020.2.4,MacIntel,60,,,,,,,,,,0.412559679,0.012616802,1,0,0,15.866095,test_pile,30,0,30,0,1,AGENT - WAKILI,,,,,,,,,,,,,,,,,,,,,,,,,,,,,,,,,,,,,,,,,,,,,,,,,,,,,,,,,,,,,,,,,,,,,,,,,,,,,,,,
,,,,,,,,,,W1378087,2020-10-19_13h11.13.598,swahili,2020.2.4,MacIntel,60,,,,,,,,,,-0.400651042,0.06169561,1,0,0,0.581135,unsorted_card,31,0,31,0,1,,,,,,,,,,,,,,,,,,,,,,,,,,,,,,,,,,,,,,,,,,,,,,,,,,,,,,,,,,,,,,,,,,,,,,,,,,,,,,,,,
,,,,,,,,,,W1378087,2020-10-19_13h11.13.598,swahili,2020.2.4,MacIntel,60,,,,,,,,,,0.510693359,-0.106653297,1,0,0,17.831885,test_pile,32,0,32,0,1,BRIBE - RUSHWA,,,,,,,,,,,,,,,,,,,,,,,,,,,,,,,,,,,,,,,,,,,,,,,,,,,,,,,,,,,,,,,,,,,,,,,,,,,,,,,,
,,,,,,,,,,W1378087,2020-10-19_13h11.13.598,swahili,2020.2.4,MacIntel,60,,,,,,,,,,-0.323583984,-0.026291432,1,0,0,0.648155,unsorted_card,33,0,33,0,1,,,,,,,,,,,,,,,,,,,,,,,,,,,,,,,,,,,,,,,,,,,,,,,,,,,,,,,,,,,,,,,,,,,,,,,,,,,,,,,,,
,,,,,,,,,,W1378087,2020-10-19_13h11.13.598,swahili,2020.2.4,MacIntel,60,,,,,,,,,,0.465207248,-0.047503085,1,0,0,20.914615,test_pile,34,0,34,0,1,ORPHAN - YATIMA,,,,,,,,,,,,,,,,,,,,,,,,,,,,,,,,,,,,,,,,,,,,,,,,,,,,,,,,,,,,,,,,,,,,,,,,,,,,,,,,
,,,,,,,,,,W1378087,2020-10-19_13h11.13.598,swahili,2020.2.4,MacIntel,60,,,,,,,,,,-0.442089844,-0.032550247,1,0,0,0.513775,unsorted_card,35,0,35,0,1,,,,,,,,,,,,,,,,,,,,,,,,,,,,,,,,,,,,,,,,,,,,,,,,,,,,,,,,,,,,,,,,,,,,,,,,,,,,,,,,,
,,,,,,,,,,W1378087,2020-10-19_13h11.13.598,swahili,2020.2.4,MacIntel,60,,,,,,,,,,0.454568142,0.094543371,1,0,0,14.86678,test_pile,36,0,36,0,1,DIVORCE - TALAKA,,,,,,,,,,,,,,,,,,,,,,,,,,,,,,,,,,,,,,,,,,,,,,,,,,,,,,,,,,,,,,,,,,,,,,,,,,,,,,,,
,,,,,,,,,,W1378087,2020-10-19_13h11.13.598,swahili,2020.2.4,MacIntel,60,,,,,,,,,,-0.290440538,-0.155489686,1,0,0,0.513965,unsorted_card,37,0,37,0,1,,,,,,,,,,,,,,,,,,,,,,,,,,,,,,,,,,,,,,,,,,,,,,,,,,,,,,,,,,,,,,,,,,,,,,,,,,,,,,,,,
,,,,,,,,,,W1378087,2020-10-19_13h11.13.598,swahili,2020.2.4,MacIntel,60,,,,,,,,,,0.43530816,0.068835949,1,0,0,15.41532,test_pile,38,0,38,0,1,BOAT - MASHUA,,,,,,,,,,,,,,,,,,,,,,,,,,,,,,,,,,,,,,,,,,,,,,,,,,,,,,,,,,,,,,,,,,,,,,,,,,,,,,,,
,,,,,,,,,,W1378087,2020-10-19_13h11.13.598,swahili,2020.2.4,MacIntel,60,,,,,,,,,,-0.357866753,0.001895275,1,0,0,0.54819,unsorted_card,39,0,39,0,1,,,,,,,,,,,,,,,,,,,,,,,,,,,,,,,,,,,,,,,,,,,,,,,,,,,,,,,,,,,,,,,,,,,,,,,,,,,,,,,,,
,,,,,,,,,,W1378087,2020-10-19_13h11.13.598,swahili,2020.2.4,MacIntel,60,,,,,,,,,,0.430029297,-0.039161671,1,0,0,40.048885,test_pile,40,0,40,0,1,TREASURE - DAFINA,,,,,,,,,,,,,,,,,,,,,,,,,,,,,,,,,,,,,,,,,,,,,,,,,,,,,,,,,,,,,,,,,,,,,,,,,,,,,,,,
,,,,,,,,,,W1378087,2020-10-19_13h11.13.598,swahili,2020.2.4,MacIntel,60,,,,,,,,,,,,,,,,,,,,,,,,,,,,,,,,,,0,0,0,0,1,,,,,,,,,,,,,,,,,,,,,,,,,,,,,,,,,,,,,,,,,,,,,,,,,,,,,,,,,,,,,,,,
,,,,,,,,,,W1378087,2020-10-19_13h11.13.598,swahili,2020.2.4,MacIntel,60,,,,,,,,,,,,,,,,,,,,,,,,,,,,,,,,,,,,,,,return,,,,,,,,,,,3.98861,8.047655,0.468299696,-0.010732546,1,0,0,0.66628,yes,AGENT,WAKILI,incorrect,0,0,0,0,1,,,,,,,,,,,,,,,,,,,,,,,,,,,,,,,,,,,,
,,,,,,,,,,W1378087,2020-10-19_13h11.13.598,swahili,2020.2.4,MacIntel,60,,,,,,,,,,,,,,,,,,,,,,,,,,,,,,,,,,,,,,,,,,,,,,,,,,,6.69719,0.506011285,0.030798219,1,0,0,0.53311,yes,PARROT,F,incorrect,1,0,1,0,1,,,,,,,,,,,,,,,,,,,,,,,,,,,,,,,,,,,,
,,,,,,,,,,W1378087,2020-10-19_13h11.13.598,swahili,2020.2.4,MacIntel,60,,,,,,,,,,,,,,,,,,,,,,,,,,,,,,,,,,,,,,,,,,,,,,,,,,,5.480675,0.386653646,-0.109275829,1,0,0,0.584895,yes,GRAVE,KABURI,incorrect,2,0,2,0,1,,,,,,,,,,,,,,,,,,,,,,,,,,,,,,,,,,,,
,,,,,,,,,,W1378087,2020-10-19_13h11.13.598,swahili,2020.2.4,MacIntel,60,,,,,,,,,,,,,,,,,,,,,,,,,,,,,,,,,,,,,,,,,,,,,,,,,,,7.52997,0.386653646,-0.108614686,1,0,0,0.63493,yes,BULL,FAHILI,incorrect,3,0,3,0,1,,,,,,,,,,,,,,,,,,,,,,,,,,,,,,,,,,,,
,,,,,,,,,,W1378087,2020-10-19_13h11.13.598,swahili,2020.2.4,MacIntel,60,,,,,,,,,,,,,,,,,,,,,,,,,,,,,,,,,,,,,,,,,,,,,,,,,,,5.59705,0.386653646,-0.108614686,1,0,0,0.865845,yes,TAILOR,MSHUA,incorrect,4,0,4,0,1,,,,,,,,,,,,,,,,,,,,,,,,,,,,,,,,,,,,
,,,,,,,,,,W1378087,2020-10-19_13h11.13.598,swahili,2020.2.4,MacIntel,60,,,,,,,,,,,,,,,,,,,,,,,,,,,,,,,,,,,,,,,,,,,,,,,,,,,9.514725,0.386653646,-0.108614686,1,0,0,0.41713,yes,DIVORCE,TALAKA,incorrect,5,0,5,0,1,,,,,,,,,,,,,,,,,,,,,,,,,,,,,,,,,,,,
,,,,,,,,,,W1378087,2020-10-19_13h11.13.598,swahili,2020.2.4,MacIntel,60,,,,,,,,,,,,,,,,,,,,,,,,,,,,,,,,,,,,,,,,,,,,,,,,,,,4.99807,0.450743273,0.120956012,1,0,0,0.54968,yes,CORN,FABIRI,incorrect,6,0,6,0,1,,,,,,,,,,,,,,,,,,,,,,,,,,,,,,,,,,,,
,,,,,,,,,,W1378087,2020-10-19_13h11.13.598,swahili,2020.2.4,MacIntel,60,,,,,,,,,,,,,,,,,,,,,,,,,,,,,,,,,,,,,,,,,,,,,,,,,,,8.71592,0.450743273,0.120956012,1,0,0,0.532675,yes,BRIBE,RUSHWA,incorrect,7,0,7,0,1,,,,,,,,,,,,,,,,,,,,,,,,,,,,,,,,,,,,
,,,,,,,,,,W1378087,2020-10-19_13h11.13.598,swahili,2020.2.4,MacIntel,60,,,,,,,,,,,,,,,,,,,,,,,,,,,,,,,,,,,,,,,,,,,,,,,,,,,3.53048,0.42804362,-0.034291255,1,0,0,0.533255,yes,BLAME,LAWAMA,incorrect,8,0,8,0,1,,,,,,,,,,,,,,,,,,,,,,,,,,,,,,,,,,,,
,,,,,,,,,,W1378087,2020-10-19_13h11.13.598,swahili,2020.2.4,MacIntel,60,,,,,,,,,,,,,,,,,,,,,,,,,,,,,,,,,,,,,,,,,,,,,,,,,,,4.164955,0.506184896,-0.0158564,1,0,0,0.516305,yes,POEM,UTENZI,incorrect,9,0,9,0,1,,,,,,,,,,,,,,,,,,,,,,,,,,,,,,,,,,,,
,,,,,,,,,,W1378087,2020-10-19_13h11.13.598,swahili,2020.2.4,MacIntel,60,,,,,,,,,,,,,,,,,,,,,,,,,,,,,,,,,,,,,,,,,,,,,,,,,,,6.797725,0.385009766,-0.14475714,1,0,0,0.7994,yes,GRAPES,FE,incorrect,10,0,10,0,1,,,,,,,,,,,,,,,,,,,,,,,,,,,,,,,,,,,,
,,,,,,,,,,W1378087,2020-10-19_13h11.13.598,swahili,2020.2.4,MacIntel,60,,,,,,,,,,,,,,,,,,,,,,,,,,,,,,,,,,,,,,,,,,,,,,,,,,,5.34928,0.390804036,-0.14475714,1,0,0,0.465835,yes,YEAST,YATIMA,incorrect,11,0,11,0,1,,,,,,,,,,,,,,,,,,,,,,,,,,,,,,,,,,,,
,,,,,,,,,,W1378087,2020-10-19_13h11.13.598,swahili,2020.2.4,MacIntel,60,,,,,,,,,,,,,,,,,,,,,,,,,,,,,,,,,,,,,,,,,,,,,,,,,,,6.115075,0.390804036,-0.14475714,1,0,0,0.54984,yes,BOAT,MUSHUA,incorrect,12,0,12,0,1,,,,,,,,,,,,,,,,,,,,,,,,,,,,,,,,,,,,
,,,,,,,,,,W1378087,2020-10-19_13h11.13.598,swahili,2020.2.4,MacIntel,60,,,,,,,,,,,,,,,,,,,,,,,,,,,,,,,,,,,,,,,,,,,,,,,,,,,4.8479,0.395122613,-0.146332863,1,0,0,0.432775,yes,ORPHAN,YATIMA,incorrect,13,0,13,0,1,,,,,,,,,,,,,,,,,,,,,,,,,,,,,,,,,,,,
,,,,,,,,,,W1378087,2020-10-19_13h11.13.598,swahili,2020.2.4,MacIntel,60,,,,,,,,,,,,,,,,,,,,,,,,,,,,,,,,,,,,,,,,,,,,,,,,,,,4.099675,0.375927734,-0.12971615,1,0,0,0.698535,yes,CHEESE,JIBINI,incorrect,14,0,14,0,1,,,,,,,,,,,,,,,,,,,,,,,,,,,,,,,,,,,,
,,,,,,,,,,W1378087,2020-10-19_13h11.13.598,swahili,2020.2.4,MacIntel,60,,,,,,,,,,,,,,,,,,,,,,,,,,,,,,,,,,,,,,,,,,,,,,,,,,,5.281165,0.467833116,-0.035492331,1,0,0,0.56628,yes,MANURE,FE,incorrect,15,0,15,0,1,,,,,,,,,,,,,,,,,,,,,,,,,,,,,,,,,,,,
,,,,,,,,,,W1378087,2020-10-19_13h11.13.598,swahili,2020.2.4,MacIntel,60,,,,,,,,,,,,,,,,,,,,,,,,,,,,,,,,,,,,,,,,,,,,,,,,,,,9.06587,0.334863281,-0.194882757,1,0,0,0.466175,yes,PLATE,MAHINI,incorrect,16,0,16,0,1,,,,,,,,,,,,,,,,,,,,,,,,,,,,,,,,,,,,
,,,,,,,,,,W1378087,2020-10-19_13h11.13.598,swahili,2020.2.4,MacIntel,60,,,,,,,,,,,,,,,,,,,,,,,,,,,,,,,,,,,,,,,,,,,,,,,,,,,4.34904,0.468722873,-0.084394834,1,0,0,0.466035,yes,OATH,DE,incorrect,17,0,17,0,1,,,,,,,,,,,,,,,,,,,,,,,,,,,,,,,,,,,,
,,,,,,,,,,W1378087,2020-10-19_13h11.13.598,swahili,2020.2.4,MacIntel,60,,,,,,,,,,,,,,,,,,,,,,,,,,,,,,,,,,,,,,,,,,,,,,,,,,,8.713715,0.496934679,-0.092515867,1,0,0,0.43517,yes,MERCHANT,FABRIKI,incorrect,18,0,18,0,1,,,,,,,,,,,,,,,,,,,,,,,,,,,,,,,,,,,,
,,,,,,,,,,W1378087,2020-10-19_13h11.13.598,swahili,2020.2.4,MacIntel,60,,,,,,,,,,,,,,,,,,,,,,,,,,,,,,,,,,,,,,,,,,,,,,,,,,,6.448585,0.496934679,-0.092515867,1,0,0,0.814835,yes,TREASURE,FE,incorrect,19,0,19,0,1,,,,,,,,,,,,,,,,,,,,,,,,,,,,,,,,,,,,
,,,,,,,,,,W1378087,2020-10-19_13h11.13.598,swahili,2020.2.4,MacIntel,60,,,,,,,,,,,,,,,,,,,,,,,,,,,,,,,,,,,,,,,,0,0,0,0,1,,,,,,,,,,,,,,,,,,,,,,,,,,,,,,,,,,,,,,,,,,,,,,,,,,,,,,,,,,
,,,,,,,,,,W1378087,2020-10-19_13h11.13.598,swahili,2020.2.4,MacIntel,60,,,,,,,,,,,,,,,,,,,,,,,,,,,,,,,,,,,,,,,,1,0,1,0,1,,,,,,,,,,,,,,,,,,,,,,,,,,,,,,,,,,,,,,,,,,,,,,,,,,,,,,,,,,
,,,,,,,,,,W1378087,2020-10-19_13h11.13.598,swahili,2020.2.4,MacIntel,60,,,,,,,,,,,,,,,,,,,,,,,,,,,,,,,,,,,,,,,,,,,,,3,0,3,0,1,,,,,,,,,,,,,,,,,,,,,,,,,,,,,,,,,,,,,,,,,,,,,,,,,,,,,
,,,,,,,,,,W1378087,2020-10-19_13h11.13.598,swahili,2020.2.4,MacIntel,60,,,,,,,,,,-0.277446832,-0.14706012,1,0,0,4.28638,unsorted_card,0,0,0,0,1,,,,,,,,,,,,,,,,,,,,,,,,,,,,,,,,,,,,,,,,,,,,,,,,,,,,,,,,,,,,,,,,,,,,,,,,,,,,,,,,,
,,,,,,,,,,W1378087,2020-10-19_13h11.13.598,swahili,2020.2.4,MacIntel,60,,,,,,,,,,0.673866102,0.0002314,1,0,0,1.479625,test_pile,1,0,1,0,1,MERCHANT - TAJIRI,,,,,,,,,,,,,,,,,,,,,,,,,,,,,,,,,,,,,,,,,,,,,,,,,,,,,,,,,,,,,,,,,,,,,,,,,,,,,,,,
,,,,,,,,,,W1378087,2020-10-19_13h11.13.598,swahili,2020.2.4,MacIntel,60,,,,,,,,,,-0.277875434,-0.096119094,1,0,0,0.48072,unsorted_card,2,0,2,0,1,,,,,,,,,,,,,,,,,,,,,,,,,,,,,,,,,,,,,,,,,,,,,,,,,,,,,,,,,,,,,,,,,,,,,,,,,,,,,,,,,
,,,,,,,,,,W1378087,2020-10-19_13h11.13.598,swahili,2020.2.4,MacIntel,60,,,,,,,,,,0.479307726,0.017432123,1,0,0,1.099475,test_pile,3,0,3,0,1,PARROT - KASUKU,,,,,,,,,,,,,,,,,,,,,,,,,,,,,,,,,,,,,,,,,,,,,,,,,,,,,,,,,,,,,,,,,,,,,,,,,,,,,,,,
,,,,,,,,,,W1378087,2020-10-19_13h11.13.598,swahili,2020.2.4,MacIntel,60,,,,,,,,,,-0.441672092,-0.038434415,1,0,0,0.449065,unsorted_card,4,0,4,0,1,,,,,,,,,,,,,,,,,,,,,,,,,,,,,,,,,,,,,,,,,,,,,,,,,,,,,,,,,,,,,,,,,,,,,,,,,,,,,,,,,
,,,,,,,,,,W1378087,2020-10-19_13h11.13.598,swahili,2020.2.4,MacIntel,60,,,,,,,,,,0.460894097,-0.728490832,1,0,0,4.081005,done_pile,5,0,5,0,1,BULL - FAHILI,,,,,,,,,,,,,,,,,,,,,,,,,,,,,,,,,,,,,,,,,,,,,,,,,,,,,,,,,,,,,,,,,,,,,,,,,,,,,,,,
,,,,,,,,,,W1378087,2020-10-19_13h11.13.598,swahili,2020.2.4,MacIntel,60,,,,,,,,,,-0.231309679,-0.038798043,1,0,0,2.963615,unsorted_card,6,0,6,0,1,,,,,,,,,,,,,,,,,,,,,,,,,,,,,,,,,,,,,,,,,,,,,,,,,,,,,,,,,,,,,,,,,,,,,,,,,,,,,,,,,
,,,,,,,,,,W1378087,2020-10-19_13h11.13.598,swahili,2020.2.4,MacIntel,60,,,,,,,,,,0.566943359,-0.006236777,1,0,0,1.264745,test_pile,7,0,7,0,1,PLATE - SAHANI,,,,,,,,,,,,,,,,,,,,,,,,,,,,,,,,,,,,,,,,,,,,,,,,,,,,,,,,,,,,,,,,,,,,,,,,,,,,,,,,
,,,,,,,,,,W1378087,2020-10-19_13h11.13.598,swahili,2020.2.4,MacIntel,60,,,,,,,,,,-0.256890191,-0.005961301,1,0,0,0.549375,unsorted_card,8,0,8,0,1,,,,,,,,,,,,,,,,,,,,,,,,,,,,,,,,,,,,,,,,,,,,,,,,,,,,,,,,,,,,,,,,,,,,,,,,,,,,,,,,,
,,,,,,,,,,W1378087,2020-10-19_13h11.13.598,swahili,2020.2.4,MacIntel,60,,,,,,,,,,0.41936849,-0.091039316,1,0,0,1.016255,test_pile,9,0,9,0,1,YEAST - HAMIRA,,,,,,,,,,,,,,,,,,,,,,,,,,,,,,,,,,,,,,,,,,,,,,,,,,,,,,,,,,,,,,,,,,,,,,,,,,,,,,,,
,,,,,,,,,,W1378087,2020-10-19_13h11.13.598,swahili,2020.2.4,MacIntel,60,,,,,,,,,,-0.321576606,-0.0710067,1,0,0,0.479975,unsorted_card,10,0,10,0,1,,,,,,,,,,,,,,,,,,,,,,,,,,,,,,,,,,,,,,,,,,,,,,,,,,,,,,,,,,,,,,,,,,,,,,,,,,,,,,,,,
,,,,,,,,,,W1378087,2020-10-19_13h11.13.598,swahili,2020.2.4,MacIntel,60,,,,,,,,,,0.421522352,-0.586598642,1,0,0,0.93355,done_pile,11,0,11,0,1,BLAME - LAWAMA,,,,,,,,,,,,,,,,,,,,,,,,,,,,,,,,,,,,,,,,,,,,,,,,,,,,,,,,,,,,,,,,,,,,,,,,,,,,,,,,
,,,,,,,,,,W1378087,2020-10-19_13h11.13.598,swahili,2020.2.4,MacIntel,60,,,,,,,,,,-0.227560764,-0.162497796,1,0,0,0.54836,unsorted_card,12,0,12,0,1,,,,,,,,,,,,,,,,,,,,,,,,,,,,,,,,,,,,,,,,,,,,,,,,,,,,,,,,,,,,,,,,,,,,,,,,,,,,,,,,,
,,,,,,,,,,W1378087,2020-10-19_13h11.13.598,swahili,2020.2.4,MacIntel,60,,,,,,,,,,0.369873047,0.169032087,1,0,0,1.214915,test_pile,13,0,13,0,1,OATH - YAMINI,,,,,,,,,,,,,,,,,,,,,,,,,,,,,,,,,,,,,,,,,,,,,,,,,,,,,,,,,,,,,,,,,,,,,,,,,,,,,,,,
,,,,,,,,,,W1378087,2020-10-19_13h11.13.598,swahili,2020.2.4,MacIntel,60,,,,,,,,,,-0.35952691,0.022313558,1,0,0,0.53123,unsorted_card,14,0,14,0,1,,,,,,,,,,,,,,,,,,,,,,,,,,,,,,,,,,,,,,,,,,,,,,,,,,,,,,,,,,,,,,,,,,,,,,,,,,,,,,,,,
,,,,,,,,,,W1378087,2020-10-19_13h11.13.598,swahili,2020.2.4,MacIntel,60,,,,,,,,,,0.44624566,0.034511636,1,0,0,0.799325,test_pile,15,0,15,0,1,CORN - NAFAKA,,,,,,,,,,,,,,,,,,,,,,,,,,,,,,,,,,,,,,,,,,,,,,,,,,,,,,,,,,,,,,,,,,,,,,,,,,,,,,,,
,,,,,,,,,,W1378087,2020-10-19_13h11.13.598,swahili,2020.2.4,MacIntel,60,,,,,,,,,,-0.292285156,-0.030665991,1,0,0,0.46478,unsorted_card,16,0,16,0,1,,,,,,,,,,,,,,,,,,,,,,,,,,,,,,,,,,,,,,,,,,,,,,,,,,,,,,,,,,,,,,,,,,,,,,,,,,,,,,,,,
,,,,,,,,,,W1378087,2020-10-19_13h11.13.598,swahili,2020.2.4,MacIntel,60,,,,,,,,,,0.405571832,-0.552836301,1,0,0,0.933485,done_pile,17,0,17,0,1,POEM - UTENZI,,,,,,,,,,,,,,,,,,,,,,,,,,,,,,,,,,,,,,,,,,,,,,,,,,,,,,,,,,,,,,,,,,,,,,,,,,,,,,,,
,,,,,,,,,,W1378087,2020-10-19_13h11.13.598,swahili,2020.2.4,MacIntel,60,,,,,,,,,,-0.260378689,-0.12603579,1,0,0,0.463125,unsorted_card,18,0,18,0,1,,,,,,,,,,,,,,,,,,,,,,,,,,,,,,,,,,,,,,,,,,,,,,,,,,,,,,,,,,,,,,,,,,,,,,,,,,,,,,,,,
,,,,,,,,,,W1378087,2020-10-19_13h11.13.598,swahili,2020.2.4,MacIntel,60,,,,,,,,,,0.357991536,-0.055778385,1,0,0,1.249805,test_pile,19,0,19,0,1,TAILOR - MSHONI,,,,,,,,,,,,,,,,,,,,,,,,,,,,,,,,,,,,,,,,,,,,,,,,,,,,,,,,,,,,,,,,,,,,,,,,,,,,,,,,
,,,,,,,,,,W1378087,2020-10-19_13h11.13.598,swahili,2020.2.4,MacIntel,60,,,,,,,,,,-0.36281467,-0.071568671,1,0,0,0.498325,unsorted_card,20,0,20,0,1,,,,,,,,,,,,,,,,,,,,,,,,,,,,,,,,,,,,,,,,,,,,,,,,,,,,,,,,,,,,,,,,,,,,,,,,,,,,,,,,,
,,,,,,,,,,W1378087,2020-10-19_13h11.13.598,swahili,2020.2.4,MacIntel,60,,,,,,,,,,0.496419271,-0.539282881,1,0,0,0.999085,done_pile,21,0,21,0,1,CHEESE - JIBINI,,,,,,,,,,,,,,,,,,,,,,,,,,,,,,,,,,,,,,,,,,,,,,,,,,,,,,,,,,,,,,,,,,,,,,,,,,,,,,,,
,,,,,,,,,,W1378087,2020-10-19_13h11.13.598,swahili,2020.2.4,MacIntel,60,,,,,,,,,,-0.175119358,-0.113595293,1,0,0,0.46477,unsorted_card,22,0,22,0,1,,,,,,,,,,,,,,,,,,,,,,,,,,,,,,,,,,,,,,,,,,,,,,,,,,,,,,,,,,,,,,,,,,,,,,,,,,,,,,,,,
,,,,,,,,,,W1378087,2020-10-19_13h11.13.598,swahili,2020.2.4,MacIntel,60,,,,,,,,,,0.474235026,-0.109275829,1,0,0,1.198855,test_pile,23,0,23,0,1,GRAPES - ZABIBU,,,,,,,,,,,,,,,,,,,,,,,,,,,,,,,,,,,,,,,,,,,,,,,,,,,,,,,,,,,,,,,,,,,,,,,,,,,,,,,,
,,,,,,,,,,W1378087,2020-10-19_13h11.13.598,swahili,2020.2.4,MacIntel,60,,,,,,,,,,-0.374652778,0.03216458,1,0,0,0.49761,unsorted_card,24,0,24,0,1,,,,,,,,,,,,,,,,,,,,,,,,,,,,,,,,,,,,,,,,,,,,,,,,,,,,,,,,,,,,,,,,,,,,,,,,,,,,,,,,,
,,,,,,,,,,W1378087,2020-10-19_13h11.13.598,swahili,2020.2.4,MacIntel,60,,,,,,,,,,0.277718099,-0.631049453,1,0,0,1.1167,done_pile,25,0,25,0,1,GRAVE - KABURI,,,,,,,,,,,,,,,,,,,,,,,,,,,,,,,,,,,,,,,,,,,,,,,,,,,,,,,,,,,,,,,,,,,,,,,,,,,,,,,,
,,,,,,,,,,W1378087,2020-10-19_13h11.13.598,swahili,2020.2.4,MacIntel,60,,,,,,,,,,-0.24609375,-0.066169341,1,0,0,0.481005,unsorted_card,26,0,26,0,1,,,,,,,,,,,,,,,,,,,,,,,,,,,,,,,,,,,,,,,,,,,,,,,,,,,,,,,,,,,,,,,,,,,,,,,,,,,,,,,,,
,,,,,,,,,,W1378087,2020-10-19_13h11.13.598,swahili,2020.2.4,MacIntel,60,,,,,,,,,,0.466373698,-0.015018953,1,0,0,1.899435,test_pile,27,0,27,0,1,MANURE - SAMADI,,,,,,,,,,,,,,,,,,,,,,,,,,,,,,,,,,,,,,,,,,,,,,,,,,,,,,,,,,,,,,,,,,,,,,,,,,,,,,,,
,,,,,,,,,,W1378087,2020-10-19_13h11.13.598,swahili,2020.2.4,MacIntel,60,,,,,,,,,,-0.337000868,-0.10374427,1,0,0,0.51452,unsorted_card,28,0,28,0,1,,,,,,,,,,,,,,,,,,,,,,,,,,,,,,,,,,,,,,,,,,,,,,,,,,,,,,,,,,,,,,,,,,,,,,,,,,,,,,,,,
,,,,,,,,,,W1378087,2020-10-19_13h11.13.598,swahili,2020.2.4,MacIntel,60,,,,,,,,,,0.354079861,-0.510853755,1,0,0,1.566005,done_pile,29,0,29,0,1,AGENT - WAKILI,,,,,,,,,,,,,,,,,,,,,,,,,,,,,,,,,,,,,,,,,,,,,,,,,,,,,,,,,,,,,,,,,,,,,,,,,,,,,,,,
,,,,,,,,,,W1378087,2020-10-19_13h11.13.598,swahili,2020.2.4,MacIntel,60,,,,,,,,,,-0.389583333,0.009487394,1,0,0,0.616805,unsorted_card,30,0,30,0,1,,,,,,,,,,,,,,,,,,,,,,,,,,,,,,,,,,,,,,,,,,,,,,,,,,,,,,,,,,,,,,,,,,,,,,,,,,,,,,,,,
,,,,,,,,,,W1378087,2020-10-19_13h11.13.598,swahili,2020.2.4,MacIntel,60,,,,,,,,,,0.232763672,-0.444342824,1,0,0,2.99727,done_pile,31,0,31,0,1,BRIBE - RUSHWA,,,,,,,,,,,,,,,,,,,,,,,,,,,,,,,,,,,,,,,,,,,,,,,,,,,,,,,,,,,,,,,,,,,,,,,,,,,,,,,,
,,,,,,,,,,W1378087,2020-10-19_13h11.13.598,swahili,2020.2.4,MacIntel,60,,,,,,,,,,-0.341612413,-0.028340973,1,0,0,0.5319,unsorted_card,32,0,32,0,1,,,,,,,,,,,,,,,,,,,,,,,,,,,,,,,,,,,,,,,,,,,,,,,,,,,,,,,,,,,,,,,,,,,,,,,,,,,,,,,,,
,,,,,,,,,,W1378087,2020-10-19_13h11.13.598,swahili,2020.2.4,MacIntel,60,,,,,,,,,,0.467784288,-0.050907969,1,0,0,2.749135,test_pile,33,0,33,0,1,ORPHAN - YATIMA,,,,,,,,,,,,,,,,,,,,,,,,,,,,,,,,,,,,,,,,,,,,,,,,,,,,,,,,,,,,,,,,,,,,,,,,,,,,,,,,
,,,,,,,,,,W1378087,2020-10-19_13h11.13.598,swahili,2020.2.4,MacIntel,60,,,,,,,,,,-0.254003906,0.203279267,1,0,0,0.831365,unsorted_card,34,0,34,0,1,,,,,,,,,,,,,,,,,,,,,,,,,,,,,,,,,,,,,,,,,,,,,,,,,,,,,,,,,,,,,,,,,,,,,,,,,,,,,,,,,
,,,,,,,,,,W1378087,2020-10-19_13h11.13.598,swahili,2020.2.4,MacIntel,60,,,,,,,,,,0.417740885,-0.664282881,1,0,0,1.182035,done_pile,35,0,35,0,1,DIVORCE - TALAKA,,,,,,,,,,,,,,,,,,,,,,,,,,,,,,,,,,,,,,,,,,,,,,,,,,,,,,,,,,,,,,,,,,,,,,,,,,,,,,,,
,,,,,,,,,,W1378087,2020-10-19_13h11.13.598,swahili,2020.2.4,MacIntel,60,,,,,,,,,,-0.184868707,-0.088626146,1,0,0,1.17925,unsorted_card,36,0,36,0,1,,,,,,,,,,,,,,,,,,,,,,,,,,,,,,,,,,,,,,,,,,,,,,,,,,,,,,,,,,,,,,,,,,,,,,,,,,,,,,,,,
,,,,,,,,,,W1378087,2020-10-19_13h11.13.598,swahili,2020.2.4,MacIntel,60,,,,,,,,,,0.45281033,-0.018996827,1,0,0,1.08226,test_pile,37,0,37,0,1,BOAT - MASHUA,,,,,,,,,,,,,,,,,,,,,,,,,,,,,,,,,,,,,,,,,,,,,,,,,,,,,,,,,,,,,,,,,,,,,,,,,,,,,,,,
,,,,,,,,,,W1378087,2020-10-19_13h11.13.598,swahili,2020.2.4,MacIntel,60,,,,,,,,,,-0.44773763,-0.00631391,1,0,0,0.53116,unsorted_card,38,0,38,0,1,,,,,,,,,,,,,,,,,,,,,,,,,,,,,,,,,,,,,,,,,,,,,,,,,,,,,,,,,,,,,,,,,,,,,,,,,,,,,,,,,
,,,,,,,,,,W1378087,2020-10-19_13h11.13.598,swahili,2020.2.4,MacIntel,60,,,,,,,,,,0.575287543,0.029960772,1,0,0,0.96723,test_pile,39,0,39,0,1,TREASURE - DAFINA,,,,,,,,,,,,,,,,,,,,,,,,,,,,,,,,,,,,,,,,,,,,,,,,,,,,,,,,,,,,,,,,,,,,,,,,,,,,,,,,
,,,,,,,,,,W1378087,2020-10-19_13h11.13.598,swahili,2020.2.4,MacIntel,60,,,,,,,,,,,,,,,,,,,,,,,,,,,,,,,,,,0,0,0,0,1,,,,,,,,,,,,,,,,,,,,,,,,,,,,,,,,,,,,,,,,,,,,,,,,,,,,,,,,,,,,,,,,
,,,,,,,,,,W1378087,2020-10-19_13h11.13.598,swahili,2020.2.4,MacIntel,60,,,,,,,,,,,,,,,,,,,,,,,,,,,,,,,,,,,,,,,return,,,,,,,,,,,1.082555,3.600065,0.481689453,0.099777415,1,0,0,0.63355,yes,CORN,NAFAKA,incorrect,0,0,0,0,1,,,,,,,,,,,,,,,,,,,,,,,,,,,,,,,,,,,,
,,,,,,,,,,W1378087,2020-10-19_13h11.13.598,swahili,2020.2.4,MacIntel,60,,,,,,,,,,,,,,,,,,,,,,,,,,,,,,,,,,,,,,,,,,,,,,,,,,,3.44678,0.451139323,-0.048362571,1,0,0,0.550995,yes,PLATE,SAHINI,incorrect,1,0,1,0,1,,,,,,,,,,,,,,,,,,,,,,,,,,,,,,,,,,,,
,,,,,,,,,,W1378087,2020-10-19_13h11.13.598,swahili,2020.2.4,MacIntel,60,,,,,,,,,,,,,,,,,,,,,,,,,,,,,,,,,,,,,,,,,,,,,,,,,,,3.78121,0.451139323,-0.048362571,1,0,0,0.53238,yes,TREASURE,DAFINA,incorrect,2,0,2,0,1,,,,,,,,,,,,,,,,,,,,,,,,,,,,,,,,,,,,
,,,,,,,,,,W1378087,2020-10-19_13h11.13.598,swahili,2020.2.4,MacIntel,60,,,,,,,,,,,,,,,,,,,,,,,,,,,,,,,,,,,,,,,,,,,,,,,,,,,5.23023,0.34718967,-0.19381391,1,0,0,0.55106,yes,MERCHANT,TAJIRI,incorrect,3,0,3,0,1,,,,,,,,,,,,,,,,,,,,,,,,,,,,,,,,,,,,
,,,,,,,,,,W1378087,2020-10-19_13h11.13.598,swahili,2020.2.4,MacIntel,60,,,,,,,,,,,,,,,,,,,,,,,,,,,,,,,,,,,,,,,,,,,,,,,,,,,4.915825,0.516845703,0.027106841,1,0,0,0.54915,yes,YEAST,FE,incorrect,4,0,4,0,1,,,,,,,,,,,,,,,,,,,,,,,,,,,,,,,,,,,,
,,,,,,,,,,W1378087,2020-10-19_13h11.13.598,swahili,2020.2.4,MacIntel,60,,,,,,,,,,,,,,,,,,,,,,,,,,,,,,,,,,,,,,,,,,,,,,,,,,,7.297915,0.516845703,0.027106841,1,0,0,0.59995,yes,GRAPES,ZABUBU,incorrect,5,0,5,0,1,,,,,,,,,,,,,,,,,,,,,,,,,,,,,,,,,,,,
,,,,,,,,,,W1378087,2020-10-19_13h11.13.598,swahili,2020.2.4,MacIntel,60,,,,,,,,,,,,,,,,,,,,,,,,,,,,,,,,,,,,,,,,,,,,,,,,,,,6.03121,0.675075955,0.015988628,1,0,0,0.682225,yes,OATH,YATIMU,incorrect,6,0,6,0,1,,,,,,,,,,,,,,,,,,,,,,,,,,,,,,,,,,,,
,,,,,,,,,,W1378087,2020-10-19_13h11.13.598,swahili,2020.2.4,MacIntel,60,,,,,,,,,,,,,,,,,,,,,,,,,,,,,,,,,,,,,,,,,,,,,,,,,,,2.71289,0.501079644,-0.133429566,1,0,0,0.55139,yes,PARROT,HJ,incorrect,7,0,7,0,1,,,,,,,,,,,,,,,,,,,,,,,,,,,,,,,,,,,,
,,,,,,,,,,W1378087,2020-10-19_13h11.13.598,swahili,2020.2.4,MacIntel,60,,,,,,,,,,,,,,,,,,,,,,,,,,,,,,,,,,,,,,,,,,,,,,,,,,,1.83292,0.517480469,-0.125958657,1,0,0,0.43305,yes,MANURE,DF,incorrect,8,0,8,0,1,,,,,,,,,,,,,,,,,,,,,,,,,,,,,,,,,,,,
,,,,,,,,,,W1378087,2020-10-19_13h11.13.598,swahili,2020.2.4,MacIntel,60,,,,,,,,,,,,,,,,,,,,,,,,,,,,,,,,,,,,,,,,,,,,,,,,,,,3.814835,0.461127387,-0.071326252,1,0,0,0.500105,yes,TAILOR,MSHONI,incorrect,9,0,9,0,1,,,,,,,,,,,,,,,,,,,,,,,,,,,,,,,,,,,,
,,,,,,,,,,W1378087,2020-10-19_13h11.13.598,swahili,2020.2.4,MacIntel,60,,,,,,,,,,,,,,,,,,,,,,,,,,,,,,,,,,,,,,,,,,,,,,,,,,,5.5324,0.520838759,-0.080956894,1,0,0,0.532235,yes,ORPHAN,YATIMA,incorrect,10,0,10,0,1,,,,,,,,,,,,,,,,,,,,,,,,,,,,,,,,,,,,
,,,,,,,,,,W1378087,2020-10-19_13h11.13.598,swahili,2020.2.4,MacIntel,60,,,,,,,,,,,,,,,,,,,,,,,,,,,,,,,,,,,,,,,,,,,,,,,,,,,12.114105,0.604351128,-0.092504848,1,0,0,0.50063,yes,BOAT,FAE,incorrect,11,0,11,0,1,,,,,,,,,,,,,,,,,,,,,,,,,,,,,,,,,,,,
,,,,,,,,,,W1378087,2020-10-19_13h11.13.598,swahili,2020.2.4,MacIntel,60,,,,,,,,,,,,,,,,,,,,,,,,,,,,,,,,,,,,,,,,0,0,0,0,1,,,,,,,,,,,,,,,,,,,,,,,,,,,,,,,,,,,,,,,,,,,,,,,,,,,,,,,,,,
,,,,,,,,,,W1378087,2020-10-19_13h11.13.598,swahili,2020.2.4,MacIntel,60,,,,,,,,,,,,,,,,,,,,,,,,,,,,,,,,,,,,,,,,1,0,1,0,1,,,,,,,,,,,,,,,,,,,,,,,,,,,,,,,,,,,,,,,,,,,,,,,,,,,,,,,,,,
,,,,,,,,,,W1378087,2020-10-19_13h11.13.598,swahili,2020.2.4,MacIntel,60,,,,,,,,,,,,,,,,,,,,,,,,,,,,,,,,,,,,,,,,,,,,,4,0,4,0,1,,,,,,,,,,,,,,,,,,,,,,,,,,,,,,,,,,,,,,,,,,,,,,,,,,,,,
,,,,,,,,,,W1378087,2020-10-19_13h11.13.598,swahili,2020.2.4,MacIntel,60,,,,,,,,,,-0.325037977,-0.069772567,1,0,0,1.337205,unsorted_card,0,0,0,0,1,,,,,,,,,,,,,,,,,,,,,,,,,,,,,,,,,,,,,,,,,,,,,,,,,,,,,,,,,,,,,,,,,,,,,,,,,,,,,,,,,
,,,,,,,,,,W1378087,2020-10-19_13h11.13.598,swahili,2020.2.4,MacIntel,60,,,,,,,,,,0.445643446,-0.634663699,1,0,0,1.34705,done_pile,1,0,1,0,1,MERCHANT - TAJIRI,,,,,,,,,,,,,,,,,,,,,,,,,,,,,,,,,,,,,,,,,,,,,,,,,,,,,,,,,,,,,,,,,,,,,,,,,,,,,,,,
,,,,,,,,,,W1378087,2020-10-19_13h11.13.598,swahili,2020.2.4,MacIntel,60,,,,,,,,,,-0.336903212,-0.142707599,1,0,0,0.58377,unsorted_card,2,0,2,0,1,,,,,,,,,,,,,,,,,,,,,,,,,,,,,,,,,,,,,,,,,,,,,,,,,,,,,,,,,,,,,,,,,,,,,,,,,,,,,,,,,
,,,,,,,,,,W1378087,2020-10-19_13h11.13.598,swahili,2020.2.4,MacIntel,60,,,,,,,,,,0.606342231,-0.102510138,1,0,0,1.18194,test_pile,3,0,3,0,1,PARROT - KASUKU,,,,,,,,,,,,,,,,,,,,,,,,,,,,,,,,,,,,,,,,,,,,,,,,,,,,,,,,,,,,,,,,,,,,,,,,,,,,,,,,
,,,,,,,,,,W1378087,2020-10-19_13h11.13.598,swahili,2020.2.4,MacIntel,60,,,,,,,,,,-0.25500217,-0.032649418,1,0,0,0.447985,unsorted_card,4,0,4,0,1,,,,,,,,,,,,,,,,,,,,,,,,,,,,,,,,,,,,,,,,,,,,,,,,,,,,,,,,,,,,,,,,,,,,,,,,,,,,,,,,,
,,,,,,,,,,W1378087,2020-10-19_13h11.13.598,swahili,2020.2.4,MacIntel,60,,,,,,,,,,0.466899957,-0.147776358,1,0,0,1.63352,test_pile,5,0,5,0,1,PLATE - SAHANI,,,,,,,,,,,,,,,,,,,,,,,,,,,,,,,,,,,,,,,,,,,,,,,,,,,,,,,,,,,,,,,,,,,,,,,,,,,,,,,,
,,,,,,,,,,W1378087,2020-10-19_13h11.13.598,swahili,2020.2.4,MacIntel,60,,,,,,,,,,-0.414089627,-0.140228315,1,0,0,0.64709,unsorted_card,6,0,6,0,1,,,,,,,,,,,,,,,,,,,,,,,,,,,,,,,,,,,,,,,,,,,,,,,,,,,,,,,,,,,,,,,,,,,,,,,,,,,,,,,,,
,,,,,,,,,,W1378087,2020-10-19_13h11.13.598,swahili,2020.2.4,MacIntel,60,,,,,,,,,,0.489371745,0.050191731,1,0,0,3.649895,test_pile,7,0,7,0,1,YEAST - HAMIRA,,,,,,,,,,,,,,,,,,,,,,,,,,,,,,,,,,,,,,,,,,,,,,,,,,,,,,,,,,,,,,,,,,,,,,,,,,,,,,,,
,,,,,,,,,,W1378087,2020-10-19_13h11.13.598,swahili,2020.2.4,MacIntel,60,,,,,,,,,,-0.42601454,0.074742154,1,0,0,0.564775,unsorted_card,8,0,8,0,1,,,,,,,,,,,,,,,,,,,,,,,,,,,,,,,,,,,,,,,,,,,,,,,,,,,,,,,,,,,,,,,,,,,,,,,,,,,,,,,,,
,,,,,,,,,,W1378087,2020-10-19_13h11.13.598,swahili,2020.2.4,MacIntel,60,,,,,,,,,,0.518511285,0.036230606,1,0,0,3.798905,test_pile,9,0,9,0,1,OATH - YAMINI,,,,,,,,,,,,,,,,,,,,,,,,,,,,,,,,,,,,,,,,,,,,,,,,,,,,,,,,,,,,,,,,,,,,,,,,,,,,,,,,
,,,,,,,,,,W1378087,2020-10-19_13h11.13.598,swahili,2020.2.4,MacIntel,60,,,,,,,,,,-0.319721137,-0.057387165,1,0,0,0.56305,unsorted_card,10,0,10,0,1,,,,,,,,,,,,,,,,,,,,,,,,,,,,,,,,,,,,,,,,,,,,,,,,,,,,,,,,,,,,,,,,,,,,,,,,,,,,,,,,,
,,,,,,,,,,W1378087,2020-10-19_13h11.13.598,swahili,2020.2.4,MacIntel,60,,,,,,,,,,0.487749566,-0.663445434,1,0,0,1.01488,done_pile,11,0,11,0,1,CORN - NAFAKA,,,,,,,,,,,,,,,,,,,,,,,,,,,,,,,,,,,,,,,,,,,,,,,,,,,,,,,,,,,,,,,,,,,,,,,,,,,,,,,,
,,,,,,,,,,W1378087,2020-10-19_13h11.13.598,swahili,2020.2.4,MacIntel,60,,,,,,,,,,-0.30897895,0.02424189,1,0,0,0.88278,unsorted_card,12,0,12,0,1,,,,,,,,,,,,,,,,,,,,,,,,,,,,,,,,,,,,,,,,,,,,,,,,,,,,,,,,,,,,,,,,,,,,,,,,,,,,,,,,,
,,,,,,,,,,W1378087,2020-10-19_13h11.13.598,swahili,2020.2.4,MacIntel,60,,,,,,,,,,0.508517795,-0.661979901,1,0,0,1.69854,done_pile,13,0,13,0,1,TAILOR - MSHONI,,,,,,,,,,,,,,,,,,,,,,,,,,,,,,,,,,,,,,,,,,,,,,,,,,,,,,,,,,,,,,,,,,,,,,,,,,,,,,,,
,,,,,,,,,,W1378087,2020-10-19_13h11.13.598,swahili,2020.2.4,MacIntel,60,,,,,,,,,,-0.281005859,-0.014236601,1,0,0,0.78286,unsorted_card,14,0,14,0,1,,,,,,,,,,,,,,,,,,,,,,,,,,,,,,,,,,,,,,,,,,,,,,,,,,,,,,,,,,,,,,,,,,,,,,,,,,,,,,,,,
,,,,,,,,,,W1378087,2020-10-19_13h11.13.598,swahili,2020.2.4,MacIntel,60,,,,,,,,,,0.498372396,0.018743389,1,0,0,2.81547,test_pile,15,0,15,0,1,GRAPES - ZABIBU,,,,,,,,,,,,,,,,,,,,,,,,,,,,,,,,,,,,,,,,,,,,,,,,,,,,,,,,,,,,,,,,,,,,,,,,,,,,,,,,
,,,,,,,,,,W1378087,2020-10-19_13h11.13.598,swahili,2020.2.4,MacIntel,60,,,,,,,,,,-0.473491753,-0.025189528,1,0,0,0.54821,unsorted_card,16,0,16,0,1,,,,,,,,,,,,,,,,,,,,,,,,,,,,,,,,,,,,,,,,,,,,,,,,,,,,,,,,,,,,,,,,,,,,,,,,,,,,,,,,,
,,,,,,,,,,W1378087,2020-10-19_13h11.13.598,swahili,2020.2.4,MacIntel,60,,,,,,,,,,0.485259332,-0.019470645,1,0,0,1.46565,test_pile,17,0,17,0,1,MANURE - SAMADI,,,,,,,,,,,,,,,,,,,,,,,,,,,,,,,,,,,,,,,,,,,,,,,,,,,,,,,,,,,,,,,,,,,,,,,,,,,,,,,,
,,,,,,,,,,W1378087,2020-10-19_13h11.13.598,swahili,2020.2.4,MacIntel,60,,,,,,,,,,-0.388020833,-0.001906294,1,0,0,0.56701,unsorted_card,18,0,18,0,1,,,,,,,,,,,,,,,,,,,,,,,,,,,,,,,,,,,,,,,,,,,,,,,,,,,,,,,,,,,,,,,,,,,,,,,,,,,,,,,,,
,,,,,,,,,,W1378087,2020-10-19_13h11.13.598,swahili,2020.2.4,MacIntel,60,,,,,,,,,,0.444075521,-0.620581365,1,0,0,1.28211,done_pile,19,0,19,0,1,ORPHAN - YATIMA,,,,,,,,,,,,,,,,,,,,,,,,,,,,,,,,,,,,,,,,,,,,,,,,,,,,,,,,,,,,,,,,,,,,,,,,,,,,,,,,
,,,,,,,,,,W1378087,2020-10-19_13h11.13.598,swahili,2020.2.4,MacIntel,60,,,,,,,,,,-0.340125868,-0.099138311,1,0,0,0.614975,unsorted_card,20,0,20,0,1,,,,,,,,,,,,,,,,,,,,,,,,,,,,,,,,,,,,,,,,,,,,,,,,,,,,,,,,,,,,,,,,,,,,,,,,,,,,,,,,,
,,,,,,,,,,W1378087,2020-10-19_13h11.13.598,swahili,2020.2.4,MacIntel,60,,,,,,,,,,0.435118273,0.004859397,1,0,0,1.26528,test_pile,21,0,21,0,1,BOAT - MASHUA,,,,,,,,,,,,,,,,,,,,,,,,,,,,,,,,,,,,,,,,,,,,,,,,,,,,,,,,,,,,,,,,,,,,,,,,,,,,,,,,
,,,,,,,,,,W1378087,2020-10-19_13h11.13.598,swahili,2020.2.4,MacIntel,60,,,,,,,,,,-0.383951823,0.06927671,1,0,0,0.54792,unsorted_card,22,0,22,0,1,,,,,,,,,,,,,,,,,,,,,,,,,,,,,,,,,,,,,,,,,,,,,,,,,,,,,,,,,,,,,,,,,,,,,,,,,,,,,,,,,
,,,,,,,,,,W1378087,2020-10-19_13h11.13.598,swahili,2020.2.4,MacIntel,60,,,,,,,,,,0.439577908,-0.632680272,1,0,0,1.232235,done_pile,23,0,23,0,1,TREASURE - DAFINA,,,,,,,,,,,,,,,,,,,,,,,,,,,,,,,,,,,,,,,,,,,,,,,,,,,,,,,,,,,,,,,,,,,,,,,,,,,,,,,,
,,,,,,,,,,W1378087,2020-10-19_13h11.13.598,swahili,2020.2.4,MacIntel,60,,,,,,,,,,,,,,,,,,,,,,,,,,,,,,,,,,0,0,0,0,1,,,,,,,,,,,,,,,,,,,,,,,,,,,,,,,,,,,,,,,,,,,,,,,,,,,,,,,,,,,,,,,,
,,,,,,,,,,W1378087,2020-10-19_13h11.13.598,swahili,2020.2.4,MacIntel,60,,,,,,,,,,,,,,,,,,,,,,,,,,,,,,,,,,,,,,,return,,,,,,,,,,,1.64988,5.781405,0.548236762,0.172205571,1,0,0,0.61506,yes,GRAPES,ZABIBU,incorrect,0,0,0,0,1,,,,,,,,,,,,,,,,,,,,,,,,,,,,,,,,,,,,
,,,,,,,,,,W1378087,2020-10-19_13h11.13.598,swahili,2020.2.4,MacIntel,60,,,,,,,,,,,,,,,,,,,,,,,,,,,,,,,,,,,,,,,,,,,,,,,,,,,8.34726,0.605745443,-0.076725582,1,0,0,0.5185,yes,PARROT,KASUKU,incorrect,1,0,1,0,1,,,,,,,,,,,,,,,,,,,,,,,,,,,,,,,,,,,,
,,,,,,,,,,W1378087,2020-10-19_13h11.13.598,swahili,2020.2.4,MacIntel,60,,,,,,,,,,,,,,,,,,,,,,,,,,,,,,,,,,,,,,,,,,,,,,,,,,,2.79734,0.67101237,-0.083348025,1,0,0,0.467085,yes,MANURE,FE,incorrect,2,0,2,0,1,,,,,,,,,,,,,,,,,,,,,,,,,,,,,,,,,,,,
,,,,,,,,,,W1378087,2020-10-19_13h11.13.598,swahili,2020.2.4,MacIntel,60,,,,,,,,,,,,,,,,,,,,,,,,,,,,,,,,,,,,,,,,,,,,,,,,,,,7.063435,0.738867188,-0.118509785,1,0,0,0.468835,yes,OATH,FE,incorrect,3,0,3,0,1,,,,,,,,,,,,,,,,,,,,,,,,,,,,,,,,,,,,
,,,,,,,,,,W1378087,2020-10-19_13h11.13.598,swahili,2020.2.4,MacIntel,60,,,,,,,,,,,,,,,,,,,,,,,,,,,,,,,,,,,,,,,,,,,,,,,,,,,2.349235,0.608414714,0.164613452,1,0,0,0.467545,yes,YEAST,FE,incorrect,4,0,4,0,1,,,,,,,,,,,,,,,,,,,,,,,,,,,,,,,,,,,,
,,,,,,,,,,W1378087,2020-10-19_13h11.13.598,swahili,2020.2.4,MacIntel,60,,,,,,,,,,,,,,,,,,,,,,,,,,,,,,,,,,,,,,,,,,,,,,,,,,,3.797935,0.299213325,-0.188326428,1,0,0,0.516295,yes,PLATE,SAHINI,incorrect,5,0,5,0,1,,,,,,,,,,,,,,,,,,,,,,,,,,,,,,,,,,,,
,,,,,,,,,,W1378087,2020-10-19_13h11.13.598,swahili,2020.2.4,MacIntel,60,,,,,,,,,,,,,,,,,,,,,,,,,,,,,,,,,,,,,,,,,,,,,,,,,,,3.69698,0.44984809,-0.102278738,1,0,0,0.466965,yes,BOAT,MASHUA,incorrect,6,0,6,0,1,,,,,,,,,,,,,,,,,,,,,,,,,,,,,,,,,,,,
,,,,,,,,,,W1378087,2020-10-19_13h11.13.598,swahili,2020.2.4,MacIntel,60,,,,,,,,,,,,,,,,,,,,,,,,,,,,,,,,,,,,,,,,0,0,0,0,1,,,,,,,,,,,,,,,,,,,,,,,,,,,,,,,,,,,,,,,,,,,,,,,,,,,,,,,,,,
,,,,,,,,,,W1378087,2020-10-19_13h11.13.598,swahili,2020.2.4,MacIntel,60,,,,,,,,,,,,,,,,,,,,,,,,,,,,,,,,,,,,,,,,1,0,1,0,1,,,,,,,,,,,,,,,,,,,,,,,,,,,,,,,,,,,,,,,,,,,,,,,,,,,,,,,,,,
,,,,,,,,,,W1378087,2020-10-19_13h11.13.598,swahili,2020.2.4,MacIntel,60,,,,,,,,,,,,,,,,,,,,,,,,,,,,,,,,,,,,,,,,,,,,,5,0,5,0,1,,,,,,,,,,,,,,,,,,,,,,,,,,,,,,,,,,,,,,,,,,,,,,,,,,,,,
,,,,,,,,,,W1378087,2020-10-19_13h11.13.598,swahili,2020.2.4,MacIntel,60,,,,,,,,,,-0.527322049,-0.126961389,1,0,0,3.02269,unsorted_card,0,0,0,0,1,,,,,,,,,,,,,,,,,,,,,,,,,,,,,,,,,,,,,,,,,,,,,,,,,,,,,,,,,,,,,,,,,,,,,,,,,,,,,,,,,
,,,,,,,,,,W1378087,2020-10-19_13h11.13.598,swahili,2020.2.4,MacIntel,60,,,,,,,,,,0.427067057,-0.616989157,1,0,0,1.397335,done_pile,1,0,1,0,1,PARROT - KASUKU,,,,,,,,,,,,,,,,,,,,,,,,,,,,,,,,,,,,,,,,,,,,,,,,,,,,,,,,,,,,,,,,,,,,,,,,,,,,,,,,
,,,,,,,,,,W1378087,2020-10-19_13h11.13.598,swahili,2020.2.4,MacIntel,60,,,,,,,,,,-0.268728299,-0.23587359,1,0,0,0.68166,unsorted_card,2,0,2,0,1,,,,,,,,,,,,,,,,,,,,,,,,,,,,,,,,,,,,,,,,,,,,,,,,,,,,,,,,,,,,,,,,,,,,,,,,,,,,,,,,,
,,,,,,,,,,W1378087,2020-10-19_13h11.13.598,swahili,2020.2.4,MacIntel,60,,,,,,,,,,0.49913737,-0.030743124,1,0,0,0.965345,test_pile,3,0,3,0,1,PLATE - SAHANI,,,,,,,,,,,,,,,,,,,,,,,,,,,,,,,,,,,,,,,,,,,,,,,,,,,,,,,,,,,,,,,,,,,,,,,,,,,,,,,,
,,,,,,,,,,W1378087,2020-10-19_13h11.13.598,swahili,2020.2.4,MacIntel,60,,,,,,,,,,-0.283317057,0.023051834,1,0,0,0.56696,unsorted_card,4,0,4,0,1,,,,,,,,,,,,,,,,,,,,,,,,,,,,,,,,,,,,,,,,,,,,,,,,,,,,,,,,,,,,,,,,,,,,,,,,,,,,,,,,,
,,,,,,,,,,W1378087,2020-10-19_13h11.13.598,swahili,2020.2.4,MacIntel,60,,,,,,,,,,0.615771484,-0.018445874,1,0,0,1.014605,test_pile,5,0,5,0,1,YEAST - HAMIRA,,,,,,,,,,,,,,,,,,,,,,,,,,,,,,,,,,,,,,,,,,,,,,,,,,,,,,,,,,,,,,,,,,,,,,,,,,,,,,,,
,,,,,,,,,,W1378087,2020-10-19_13h11.13.598,swahili,2020.2.4,MacIntel,60,,,,,,,,,,-0.342616102,0.016253085,1,0,0,0.5157,unsorted_card,6,0,6,0,1,,,,,,,,,,,,,,,,,,,,,,,,,,,,,,,,,,,,,,,,,,,,,,,,,,,,,,,,,,,,,,,,,,,,,,,,,,,,,,,,,
,,,,,,,,,,W1378087,2020-10-19_13h11.13.598,swahili,2020.2.4,MacIntel,60,,,,,,,,,,0.499338108,-0.027977345,1,0,0,1.031455,test_pile,7,0,7,0,1,OATH - YAMINI,,,,,,,,,,,,,,,,,,,,,,,,,,,,,,,,,,,,,,,,,,,,,,,,,,,,,,,,,,,,,,,,,,,,,,,,,,,,,,,,
,,,,,,,,,,W1378087,2020-10-19_13h11.13.598,swahili,2020.2.4,MacIntel,60,,,,,,,,,,-0.43219401,0.043481135,1,0,0,0.499755,unsorted_card,8,0,8,0,1,,,,,,,,,,,,,,,,,,,,,,,,,,,,,,,,,,,,,,,,,,,,,,,,,,,,,,,,,,,,,,,,,,,,,,,,,,,,,,,,,
,,,,,,,,,,W1378087,2020-10-19_13h11.13.598,swahili,2020.2.4,MacIntel,60,,,,,,,,,,0.429009332,-0.568549453,1,0,0,1.13149,done_pile,9,0,9,0,1,GRAPES - ZABIBU,,,,,,,,,,,,,,,,,,,,,,,,,,,,,,,,,,,,,,,,,,,,,,,,,,,,,,,,,,,,,,,,,,,,,,,,,,,,,,,,
,,,,,,,,,,W1378087,2020-10-19_13h11.13.598,swahili,2020.2.4,MacIntel,60,,,,,,,,,,-0.470317925,0.085276358,1,0,0,0.566415,unsorted_card,10,0,10,0,1,,,,,,,,,,,,,,,,,,,,,,,,,,,,,,,,,,,,,,,,,,,,,,,,,,,,,,,,,,,,,,,,,,,,,,,,,,,,,,,,,
,,,,,,,,,,W1378087,2020-10-19_13h11.13.598,swahili,2020.2.4,MacIntel,60,,,,,,,,,,0.586886936,0.004165197,1,0,0,1.166515,test_pile,11,0,11,0,1,MANURE - SAMADI,,,,,,,,,,,,,,,,,,,,,,,,,,,,,,,,,,,,,,,,,,,,,,,,,,,,,,,,,,,,,,,,,,,,,,,,,,,,,,,,
,,,,,,,,,,W1378087,2020-10-19_13h11.13.598,swahili,2020.2.4,MacIntel,60,,,,,,,,,,-0.443218316,0.11431153,1,0,0,0.497675,unsorted_card,12,0,12,0,1,,,,,,,,,,,,,,,,,,,,,,,,,,,,,,,,,,,,,,,,,,,,,,,,,,,,,,,,,,,,,,,,,,,,,,,,,,,,,,,,,
,,,,,,,,,,W1378087,2020-10-19_13h11.13.598,swahili,2020.2.4,MacIntel,60,,,,,,,,,,0.459711372,-0.600196139,1,0,0,1.332655,done_pile,13,0,13,0,1,BOAT - MASHUA,,,,,,,,,,,,,,,,,,,,,,,,,,,,,,,,,,,,,,,,,,,,,,,,,,,,,,,,,,,,,,,,,,,,,,,,,,,,,,,,
,,,,,,,,,,W1378087,2020-10-19_13h11.13.598,swahili,2020.2.4,MacIntel,60,,,,,,,,,,,,,,,,,,,,,,,,,,,,,,,,,,0,0,0,0,1,,,,,,,,,,,,,,,,,,,,,,,,,,,,,,,,,,,,,,,,,,,,,,,,,,,,,,,,,,,,,,,,
,,,,,,,,,,W1378087,2020-10-19_13h11.13.598,swahili,2020.2.4,MacIntel,60,,,,,,,,,,,,,,,,,,,,,,,,,,,,,,,,,,,,,,,return,,,,,,,,,,,1.08143,5.73123,0.440402561,-0.033398713,1,0,0,0.551995,yes,YEAST,HAMIDA,incorrect,0,0,0,0,1,,,,,,,,,,,,,,,,,,,,,,,,,,,,,,,,,,,,
,,,,,,,,,,W1378087,2020-10-19_13h11.13.598,swahili,2020.2.4,MacIntel,60,,,,,,,,,,,,,,,,,,,,,,,,,,,,,,,,,,,,,,,,,,,,,,,,,,,3.081895,0.520106337,-0.068527415,1,0,0,0.64854,yes,OATH,YAMINI,incorrect,1,0,1,0,1,,,,,,,,,,,,,,,,,,,,,,,,,,,,,,,,,,,,
,,,,,,,,,,W1378087,2020-10-19_13h11.13.598,swahili,2020.2.4,MacIntel,60,,,,,,,,,,,,,,,,,,,,,,,,,,,,,,,,,,,,,,,,,,,,,,,,,,,4.130395,0.520106337,-0.068527415,1,0,0,0.68337,yes,PLATE,SAHINI,incorrect,2,0,2,0,1,,,,,,,,,,,,,,,,,,,,,,,,,,,,,,,,,,,,
,,,,,,,,,,W1378087,2020-10-19_13h11.13.598,swahili,2020.2.4,MacIntel,60,,,,,,,,,,,,,,,,,,,,,,,,,,,,,,,,,,,,,,,,,,,,,,,,,,,2.11465,0.520106337,-0.068527415,1,0,0,1.66642,yes,MANURE,FE,incorrect,3,0,3,0,1,,,,,,,,,,,,,,,,,,,,,,,,,,,,,,,,,,,,
,,,,,,,,,,W1378087,2020-10-19_13h11.13.598,swahili,2020.2.4,MacIntel,60,,,,,,,,,,,,,,,,,,,,,,,,,,,,,,,,,,,,,,,,0,0,0,0,1,,,,,,,,,,,,,,,,,,,,,,,,,,,,,,,,,,,,,,,,,,,,,,,,,,,,,,,,,,
,,,,,,,,,,W1378087,2020-10-19_13h11.13.598,swahili,2020.2.4,MacIntel,60,,,,,,,,,,,,,,,,,,,,,,,,,,,,,,,,,,,,,,,,1,0,1,0,1,,,,,,,,,,,,,,,,,,,,,,,,,,,,,,,,,,,,,,,,,,,,,,,,,,,,,,,,,,
,,,,,,,,,,W1378087,2020-10-19_13h11.13.598,swahili,2020.2.4,MacIntel,60,,,,,,,,,,,,,,,,,,,,,,,,,,,,,,,,,,,,,,,,,,,,,6,0,6,0,1,,,,,,,,,,,,,,,,,,,,,,,,,,,,,,,,,,,,,,,,,,,,,,,,,,,,,
,,,,,,,,,,W1378087,2020-10-19_13h11.13.598,swahili,2020.2.4,MacIntel,60,,,,,,,,,,-0.442317708,-0.050125617,1,0,0,1.64162,unsorted_card,0,0,0,0,1,,,,,,,,,,,,,,,,,,,,,,,,,,,,,,,,,,,,,,,,,,,,,,,,,,,,,,,,,,,,,,,,,,,,,,,,,,,,,,,,,
,,,,,,,,,,W1378087,2020-10-19_13h11.13.598,swahili,2020.2.4,MacIntel,60,,,,,,,,,,0.481608073,-0.052924453,1,0,0,1.297805,test_pile,1,0,1,0,1,PLATE - SAHANI,,,,,,,,,,,,,,,,,,,,,,,,,,,,,,,,,,,,,,,,,,,,,,,,,,,,,,,,,,,,,,,,,,,,,,,,,,,,,,,,
,,,,,,,,,,W1378087,2020-10-19_13h11.13.598,swahili,2020.2.4,MacIntel,60,,,,,,,,,,-0.350108507,-0.01596659,1,0,0,0.448245,unsorted_card,2,0,2,0,1,,,,,,,,,,,,,,,,,,,,,,,,,,,,,,,,,,,,,,,,,,,,,,,,,,,,,,,,,,,,,,,,,,,,,,,,,,,,,,,,,
,,,,,,,,,,W1378087,2020-10-19_13h11.13.598,swahili,2020.2.4,MacIntel,60,,,,,,,,,,0.483165148,-0.526037994,1,0,0,2.46541,done_pile,3,0,3,0,1,YEAST - HAMIRA,,,,,,,,,,,,,,,,,,,,,,,,,,,,,,,,,,,,,,,,,,,,,,,,,,,,,,,,,,,,,,,,,,,,,,,,,,,,,,,,
,,,,,,,,,,W1378087,2020-10-19_13h11.13.598,swahili,2020.2.4,MacIntel,60,,,,,,,,,,-0.388726128,0.012142983,1,0,0,0.49976,unsorted_card,4,0,4,0,1,,,,,,,,,,,,,,,,,,,,,,,,,,,,,,,,,,,,,,,,,,,,,,,,,,,,,,,,,,,,,,,,,,,,,,,,,,,,,,,,,
,,,,,,,,,,W1378087,2020-10-19_13h11.13.598,swahili,2020.2.4,MacIntel,60,,,,,,,,,,0.521299913,0.027646774,1,0,0,1.282035,test_pile,5,0,5,0,1,OATH - YAMINI,,,,,,,,,,,,,,,,,,,,,,,,,,,,,,,,,,,,,,,,,,,,,,,,,,,,,,,,,,,,,,,,,,,,,,,,,,,,,,,,
,,,,,,,,,,W1378087,2020-10-19_13h11.13.598,swahili,2020.2.4,MacIntel,60,,,,,,,,,,-0.37687717,0.003592207,1,0,0,0.46501,unsorted_card,6,0,6,0,1,,,,,,,,,,,,,,,,,,,,,,,,,,,,,,,,,,,,,,,,,,,,,,,,,,,,,,,,,,,,,,,,,,,,,,,,,,,,,,,,,
,,,,,,,,,,W1378087,2020-10-19_13h11.13.598,swahili,2020.2.4,MacIntel,60,,,,,,,,,,0.511420356,-0.015558886,1,0,0,0.9825,test_pile,7,0,7,0,1,MANURE - SAMADI,,,,,,,,,,,,,,,,,,,,,,,,,,,,,,,,,,,,,,,,,,,,,,,,,,,,,,,,,,,,,,,,,,,,,,,,,,,,,,,,
,,,,,,,,,,W1378087,2020-10-19_13h11.13.598,swahili,2020.2.4,MacIntel,60,,,,,,,,,,,,,,,,,,,,,,,,,,,,,,,,,,0,0,0,0,1,,,,,,,,,,,,,,,,,,,,,,,,,,,,,,,,,,,,,,,,,,,,,,,,,,,,,,,,,,,,,,,,
,,,,,,,,,,W1378087,2020-10-19_13h11.13.598,swahili,2020.2.4,MacIntel,60,,,,,,,,,,,,,,,,,,,,,,,,,,,,,,,,,,,,,,,return,,,,,,,,,,,1.14778,9.948015,0.460329861,-0.002942084,1,0,0,0.6012,yes,PLATE,SAHANI,incorrect,0,0,0,0,1,,,,,,,,,,,,,,,,,,,,,,,,,,,,,,,,,,,,
,,,,,,,,,,W1378087,2020-10-19_13h11.13.598,swahili,2020.2.4,MacIntel,60,,,,,,,,,,,,,,,,,,,,,,,,,,,,,,,,,,,,,,,,,,,,,,,,,,,4.04827,0.560899523,-0.036109397,1,0,0,0.51637,yes,MANURE,SAMARA,incorrect,1,0,1,0,1,,,,,,,,,,,,,,,,,,,,,,,,,,,,,,,,,,,,
,,,,,,,,,,W1378087,2020-10-19_13h11.13.598,swahili,2020.2.4,MacIntel,60,,,,,,,,,,,,,,,,,,,,,,,,,,,,,,,,,,,,,,,,,,,,,,,,,,,3.18184,0.455989583,-0.057045575,1,0,0,0.482825,yes,OATH,FE,incorrect,2,0,2,0,1,,,,,,,,,,,,,,,,,,,,,,,,,,,,,,,,,,,,
,,,,,,,,,,W1378087,2020-10-19_13h11.13.598,swahili,2020.2.4,MacIntel,60,,,,,,,,,,,,,,,,,,,,,,,,,,,,,,,,,,,,,,,,0,0,0,0,1,,,,,,,,,,,,,,,,,,,,,,,,,,,,,,,,,,,,,,,,,,,,,,,,,,,,,,,,,,
,,,,,,,,,,W1378087,2020-10-19_13h11.13.598,swahili,2020.2.4,MacIntel,60,,,,,,,,,,,,,,,,,,,,,,,,,,,,,,,,,,,,,,,,1,0,1,0,1,,,,,,,,,,,,,,,,,,,,,,,,,,,,,,,,,,,,,,,,,,,,,,,,,,,,,,,,,,
,,,,,,,,,,W1378087,2020-10-19_13h11.13.598,swahili,2020.2.4,MacIntel,60,,,,,,,,,,,,,,,,,,,,,,,,,,,,,,,,,,,,,,,,,,,,,7,0,7,0,1,,,,,,,,,,,,,,,,,,,,,,,,,,,,,,,,,,,,,,,,,,,,,,,,,,,,,
,,,,,,,,,,W1378087,2020-10-19_13h11.13.598,swahili,2020.2.4,MacIntel,60,,,,,,,,,,-0.372759332,-0.162530853,1,0,0,0.85472,unsorted_card,0,0,0,0,1,,,,,,,,,,,,,,,,,,,,,,,,,,,,,,,,,,,,,,,,,,,,,,,,,,,,,,,,,,,,,,,,,,,,,,,,,,,,,,,,,
,,,,,,,,,,W1378087,2020-10-19_13h11.13.598,swahili,2020.2.4,MacIntel,60,,,,,,,,,,0.527034505,-0.64786451,1,0,0,1.63296,done_pile,1,0,1,0,1,PLATE - SAHANI,,,,,,,,,,,,,,,,,,,,,,,,,,,,,,,,,,,,,,,,,,,,,,,,,,,,,,,,,,,,,,,,,,,,,,,,,,,,,,,,
,,,,,,,,,,W1378087,2020-10-19_13h11.13.598,swahili,2020.2.4,MacIntel,60,,,,,,,,,,-0.302837457,-0.028539316,1,0,0,0.629615,unsorted_card,2,0,2,0,1,,,,,,,,,,,,,,,,,,,,,,,,,,,,,,,,,,,,,,,,,,,,,,,,,,,,,,,,,,,,,,,,,,,,,,,,,,,,,,,,,
,,,,,,,,,,W1378087,2020-10-19_13h11.13.598,swahili,2020.2.4,MacIntel,60,,,,,,,,,,0.531911892,-0.015834362,1,0,0,0.49954,test_pile,3,0,3,0,1,OATH - YAMINI,,,,,,,,,,,,,,,,,,,,,,,,,,,,,,,,,,,,,,,,,,,,,,,,,,,,,,,,,,,,,,,,,,,,,,,,,,,,,,,,
,,,,,,,,,,W1378087,2020-10-19_13h11.13.598,swahili,2020.2.4,MacIntel,60,,,,,,,,,,-0.325455729,-0.016726904,1,0,0,0.400435,unsorted_card,4,0,4,0,1,,,,,,,,,,,,,,,,,,,,,,,,,,,,,,,,,,,,,,,,,,,,,,,,,,,,,,,,,,,,,,,,,,,,,,,,,,,,,,,,,
,,,,,,,,,,W1378087,2020-10-19_13h11.13.598,swahili,2020.2.4,MacIntel,60,,,,,,,,,,0.608810764,0.085122091,1,0,0,0.748665,test_pile,5,0,5,0,1,MANURE - SAMADI,,,,,,,,,,,,,,,,,,,,,,,,,,,,,,,,,,,,,,,,,,,,,,,,,,,,,,,,,,,,,,,,,,,,,,,,,,,,,,,,
,,,,,,,,,,W1378087,2020-10-19_13h11.13.598,swahili,2020.2.4,MacIntel,60,,,,,,,,,,,,,,,,,,,,,,,,,,,,,,,,,,0,0,0,0,1,,,,,,,,,,,,,,,,,,,,,,,,,,,,,,,,,,,,,,,,,,,,,,,,,,,,,,,,,,,,,,,,
,,,,,,,,,,W1378087,2020-10-19_13h11.13.598,swahili,2020.2.4,MacIntel,60,,,,,,,,,,,,,,,,,,,,,,,,,,,,,,,,,,,,,,,return,,,,,,,,,,,0.83237,2.832925,0.734874132,0.172503085,1,0,0,0.4994,yes,OATH,YAMINI,incorrect,0,0,0,0,1,,,,,,,,,,,,,,,,,,,,,,,,,,,,,,,,,,,,
,,,,,,,,,,W1378087,2020-10-19_13h11.13.598,swahili,2020.2.4,MacIntel,60,,,,,,,,,,,,,,,,,,,,,,,,,,,,,,,,,,,,,,,,,,,,,,,,,,,2.01315,0.52109375,0.102223642,1,0,0,0.50016,yes,MANURE,SAMADI,incorrect,1,0,1,0,1,,,,,,,,,,,,,,,,,,,,,,,,,,,,,,,,,,,,
,,,,,,,,,,W1378087,2020-10-19_13h11.13.598,swahili,2020.2.4,MacIntel,60,,,,,,,,,,,,,,,,,,,,,,,,,,,,,,,,,,,,,,,,0,0,0,0,1,,,,,,,,,,,,,,,,,,,,,,,,,,,,,,,,,,,,,,,,,,,,,,,,,,,,,,,,,,
,,,,,,,,,,W1378087,2020-10-19_13h11.13.598,swahili,2020.2.4,MacIntel,60,,,,,,,,,,,,,,,,,,,,,,,,,,,,,,,,,,,,,,,,1,0,1,0,1,,,,,,,,,,,,,,,,,,,,,,,,,,,,,,,,,,,,,,,,,,,,,,,,,,,,,,,,,,
,,,,,,,,,,W1378087,2020-10-19_13h11.13.598,swahili,2020.2.4,MacIntel,60,,,,,,,,,,,,,,,,,,,,,,,,,,,,,,,,,,,,,,,,,,,,,8,0,8,0,1,,,,,,,,,,,,,,,,,,,,,,,,,,,,,,,,,,,,,,,,,,,,,,,,,,,,,
,,,,,,,,,,W1378087,2020-10-19_13h11.13.598,swahili,2020.2.4,MacIntel,60,,,,,,,,,,-0.340852865,-0.066378702,1,0,0,0.906455,unsorted_card,0,0,0,0,1,,,,,,,,,,,,,,,,,,,,,,,,,,,,,,,,,,,,,,,,,,,,,,,,,,,,,,,,,,,,,,,,,,,,,,,,,,,,,,,,,
,,,,,,,,,,W1378087,2020-10-19_13h11.13.598,swahili,2020.2.4,MacIntel,60,,,,,,,,,,0.568093533,0.01861116,1,0,0,0.498405,test_pile,1,0,1,0,1,OATH - YAMINI,,,,,,,,,,,,,,,,,,,,,,,,,,,,,,,,,,,,,,,,,,,,,,,,,,,,,,,,,,,,,,,,,,,,,,,,,,,,,,,,
,,,,,,,,,,W1378087,2020-10-19_13h11.13.598,swahili,2020.2.4,MacIntel,60,,,,,,,,,,-0.366764323,0.007052186,1,0,0,0.41691,unsorted_card,2,0,2,0,1,,,,,,,,,,,,,,,,,,,,,,,,,,,,,,,,,,,,,,,,,,,,,,,,,,,,,,,,,,,,,,,,,,,,,,,,,,,,,,,,,
,,,,,,,,,,W1378087,2020-10-19_13h11.13.598,swahili,2020.2.4,MacIntel,60,,,,,,,,,,0.701860894,0.080989951,1,0,0,0.480885,test_pile,3,0,3,0,1,MANURE - SAMADI,,,,,,,,,,,,,,,,,,,,,,,,,,,,,,,,,,,,,,,,,,,,,,,,,,,,,,,,,,,,,,,,,,,,,,,,,,,,,,,,
,,,,,,,,,,W1378087,2020-10-19_13h11.13.598,swahili,2020.2.4,MacIntel,60,,,,,,,,,,,,,,,,,,,,,,,,,,,,,,,,,,0,0,0,0,1,,,,,,,,,,,,,,,,,,,,,,,,,,,,,,,,,,,,,,,,,,,,,,,,,,,,,,,,,,,,,,,,
,,,,,,,,,,W1378087,2020-10-19_13h11.13.598,swahili,2020.2.4,MacIntel,60,,,,,,,,,,,,,,,,,,,,,,,,,,,,,,,,,,,,,,,return,,,,,,,,,,,1.836795,2.699705,0.476850043,-0.019680007,1,0,0,0.516315,yes,OATH,YAMINI,incorrect,0,0,0,0,1,,,,,,,,,,,,,,,,,,,,,,,,,,,,,,,,,,,,
,,,,,,,,,,W1378087,2020-10-19_13h11.13.598,swahili,2020.2.4,MacIntel,60,,,,,,,,,,,,,,,,,,,,,,,,,,,,,,,,,,,,,,,,,,,,,,,,,,,1.765155,0.289984809,-0.042291079,1,0,0,0.550495,yes,MANURE,SAMADI,incorrect,1,0,1,0,1,,,,,,,,,,,,,,,,,,,,,,,,,,,,,,,,,,,,
