condition,consent_key.keys,consent_key.rt,done_with_instructions.keys,done_with_instructions.rt,instr_loop.thisRepN,instr_loop.thisTrialN,instr_loop.thisN,instr_loop.thisIndex,instr_loop.ran,Student ID #,date,expName,psychopyVersion,OS,frameRate,instr_learning_key.keys,instr_learning_key.rt,card_gen_loop.thisRepN,card_gen_loop.thisTrialN,card_gen_loop.thisN,card_gen_loop.thisIndex,card_gen_loop.ran,swa,eng,choose_pile.x,choose_pile.y,choose_pile.leftButton,choose_pile.midButton,choose_pile.rightButton,choose_pile.time,choose_pile.clicked_name,choices.thisRepN,choices.thisTrialN,choices.thisN,choices.thisIndex,choices.ran,card_to_show,mouse_pick.x,mouse_pick.y,mouse_pick.leftButton,mouse_pick.midButton,mouse_pick.rightButton,mouse_pick.time,mouse_pick.clicked_name,key_instr_study.keys,key_instr_study.rt,next_study.keys,next_study.rt,study_loop.thisRepN,study_loop.thisTrialN,study_loop.thisN,study_loop.thisIndex,study_loop.ran,key_instr_test.keys,learn_loop.thisRepN,learn_loop.thisTrialN,learn_loop.thisN,learn_loop.thisIndex,learn_loop.ran,key_instr_test.rt,duration,yes_or_no.x,yes_or_no.y,yes_or_no.leftButton,yes_or_no.midButton,yes_or_no.rightButton,yes_or_no.time,yes_or_no.clicked_name,test_response.stim,test_response.resp,test_response.eval,test_loop.thisRepN,test_loop.thisTrialN,test_loop.thisN,test_loop.thisIndex,test_loop.ran,trials.thisRepN,trials.thisTrialN,trials.thisN,trials.thisIndex,trials.ran,instr_movie_key.keys,instr_movie_key.rt,return_to_exp.keys,return_to_exp.rt,instr_assess_key.keys,instr_assess_key.rt,assess_loop.thisRepN,assess_loop.thisTrialN,assess_loop.thisN,assess_loop.thisIndex,assess_loop.ran,ans_gen_loop.thisRepN,ans_gen_loop.thisTrialN,ans_gen_loop.thisN,ans_gen_loop.thisIndex,ans_gen_loop.ran,sen,ans,instr_transfer_key.keys,instr_transfer_key.rt,transfer_response.resp,transfer_response.eval,select_word.x,select_word.y,select_word.leftButton,select_word.midButton,select_word.rightButton,select_word.time,select_word.clicked_name,transfers.thisRepN,transfers.thisTrialN,transfers.thisN,transfers.thisIndex,transfers.ran,end_experiment.keys,end_experiment.rt
2,return,22.18139,return,13.82127,0,0,0,0,1,00001472129,2020-10-12_16h02.59.793,swahili,2020.2.4,Win32,60,,,,,,,,,,,,,,,,,,,,,,,,,,,,,,,,,,,,,,,,,,,,,,,,,,,,,,,,,,,,,,,,,,,,,,,,,,,,,,,,,,,,,,,,,,,,,,,,,,,,,,
,,,return,32.652615,1,0,1,0,1,00001472129,2020-10-12_16h02.59.793,swahili,2020.2.4,Win32,60,,,,,,,,,,,,,,,,,,,,,,,,,,,,,,,,,,,,,,,,,,,,,,,,,,,,,,,,,,,,,,,,,,,,,,,,,,,,,,,,,,,,,,,,,,,,,,,,,,,,,,
,,,,,,,,,,00001472129,2020-10-12_16h02.59.793,swahili,2020.2.4,Win32,60,return,4.93481,0,0,0,0,1,TAJIRI,MERCHANT,,,,,,,,,,,,,,,,,,,,,,,,,,,,,,,,,,,,,,,,,,,,,,,,,,,,,,,,,,,,,,,,,,,,,,,,,,,,,,,,,,,,,,,,,,,,,
,,,,,,,,,,00001472129,2020-10-12_16h02.59.793,swahili,2020.2.4,Win32,60,,,0,1,1,1,1,KASUKU,PARROT,,,,,,,,,,,,,,,,,,,,,,,,,,,,,,,,,,,,,,,,,,,,,,,,,,,,,,,,,,,,,,,,,,,,,,,,,,,,,,,,,,,,,,,,,,,,,
,,,,,,,,,,00001472129,2020-10-12_16h02.59.793,swahili,2020.2.4,Win32,60,,,0,2,2,2,1,FAHILI,BULL,,,,,,,,,,,,,,,,,,,,,,,,,,,,,,,,,,,,,,,,,,,,,,,,,,,,,,,,,,,,,,,,,,,,,,,,,,,,,,,,,,,,,,,,,,,,,
,,,,,,,,,,00001472129,2020-10-12_16h02.59.793,swahili,2020.2.4,Win32,60,,,0,3,3,3,1,SAHANI,PLATE,,,,,,,,,,,,,,,,,,,,,,,,,,,,,,,,,,,,,,,,,,,,,,,,,,,,,,,,,,,,,,,,,,,,,,,,,,,,,,,,,,,,,,,,,,,,,
,,,,,,,,,,00001472129,2020-10-12_16h02.59.793,swahili,2020.2.4,Win32,60,,,0,4,4,4,1,HAMIRA,YEAST,,,,,,,,,,,,,,,,,,,,,,,,,,,,,,,,,,,,,,,,,,,,,,,,,,,,,,,,,,,,,,,,,,,,,,,,,,,,,,,,,,,,,,,,,,,,,
,,,,,,,,,,00001472129,2020-10-12_16h02.59.793,swahili,2020.2.4,Win32,60,,,0,5,5,5,1,LAWAMA,BLAME,,,,,,,,,,,,,,,,,,,,,,,,,,,,,,,,,,,,,,,,,,,,,,,,,,,,,,,,,,,,,,,,,,,,,,,,,,,,,,,,,,,,,,,,,,,,,
,,,,,,,,,,00001472129,2020-10-12_16h02.59.793,swahili,2020.2.4,Win32,60,,,0,6,6,6,1,YAMINI,OATH,,,,,,,,,,,,,,,,,,,,,,,,,,,,,,,,,,,,,,,,,,,,,,,,,,,,,,,,,,,,,,,,,,,,,,,,,,,,,,,,,,,,,,,,,,,,,
,,,,,,,,,,00001472129,2020-10-12_16h02.59.793,swahili,2020.2.4,Win32,60,,,0,7,7,7,1,NAFAKA,CORN,,,,,,,,,,,,,,,,,,,,,,,,,,,,,,,,,,,,,,,,,,,,,,,,,,,,,,,,,,,,,,,,,,,,,,,,,,,,,,,,,,,,,,,,,,,,,
,,,,,,,,,,00001472129,2020-10-12_16h02.59.793,swahili,2020.2.4,Win32,60,,,0,8,8,8,1,UTENZI,POEM,,,,,,,,,,,,,,,,,,,,,,,,,,,,,,,,,,,,,,,,,,,,,,,,,,,,,,,,,,,,,,,,,,,,,,,,,,,,,,,,,,,,,,,,,,,,,
,,,,,,,,,,00001472129,2020-10-12_16h02.59.793,swahili,2020.2.4,Win32,60,,,0,9,9,9,1,MSHONI,TAILOR,,,,,,,,,,,,,,,,,,,,,,,,,,,,,,,,,,,,,,,,,,,,,,,,,,,,,,,,,,,,,,,,,,,,,,,,,,,,,,,,,,,,,,,,,,,,,
,,,,,,,,,,00001472129,2020-10-12_16h02.59.793,swahili,2020.2.4,Win32,60,,,0,10,10,10,1,JIBINI,CHEESE,,,,,,,,,,,,,,,,,,,,,,,,,,,,,,,,,,,,,,,,,,,,,,,,,,,,,,,,,,,,,,,,,,,,,,,,,,,,,,,,,,,,,,,,,,,,,
,,,,,,,,,,00001472129,2020-10-12_16h02.59.793,swahili,2020.2.4,Win32,60,,,0,11,11,11,1,ZABIBU,GRAPES,,,,,,,,,,,,,,,,,,,,,,,,,,,,,,,,,,,,,,,,,,,,,,,,,,,,,,,,,,,,,,,,,,,,,,,,,,,,,,,,,,,,,,,,,,,,,
,,,,,,,,,,00001472129,2020-10-12_16h02.59.793,swahili,2020.2.4,Win32,60,,,0,12,12,12,1,KABURI,GRAVE,,,,,,,,,,,,,,,,,,,,,,,,,,,,,,,,,,,,,,,,,,,,,,,,,,,,,,,,,,,,,,,,,,,,,,,,,,,,,,,,,,,,,,,,,,,,,
,,,,,,,,,,00001472129,2020-10-12_16h02.59.793,swahili,2020.2.4,Win32,60,,,0,13,13,13,1,SAMADI,MANURE,,,,,,,,,,,,,,,,,,,,,,,,,,,,,,,,,,,,,,,,,,,,,,,,,,,,,,,,,,,,,,,,,,,,,,,,,,,,,,,,,,,,,,,,,,,,,
,,,,,,,,,,00001472129,2020-10-12_16h02.59.793,swahili,2020.2.4,Win32,60,,,0,14,14,14,1,WAKILI,AGENT,,,,,,,,,,,,,,,,,,,,,,,,,,,,,,,,,,,,,,,,,,,,,,,,,,,,,,,,,,,,,,,,,,,,,,,,,,,,,,,,,,,,,,,,,,,,,
,,,,,,,,,,00001472129,2020-10-12_16h02.59.793,swahili,2020.2.4,Win32,60,,,0,15,15,15,1,RUSHWA,BRIBE,,,,,,,,,,,,,,,,,,,,,,,,,,,,,,,,,,,,,,,,,,,,,,,,,,,,,,,,,,,,,,,,,,,,,,,,,,,,,,,,,,,,,,,,,,,,,
,,,,,,,,,,00001472129,2020-10-12_16h02.59.793,swahili,2020.2.4,Win32,60,,,0,16,16,16,1,YATIMA,ORPHAN,,,,,,,,,,,,,,,,,,,,,,,,,,,,,,,,,,,,,,,,,,,,,,,,,,,,,,,,,,,,,,,,,,,,,,,,,,,,,,,,,,,,,,,,,,,,,
,,,,,,,,,,00001472129,2020-10-12_16h02.59.793,swahili,2020.2.4,Win32,60,,,0,17,17,17,1,TALAKA,DIVORCE,,,,,,,,,,,,,,,,,,,,,,,,,,,,,,,,,,,,,,,,,,,,,,,,,,,,,,,,,,,,,,,,,,,,,,,,,,,,,,,,,,,,,,,,,,,,,
,,,,,,,,,,00001472129,2020-10-12_16h02.59.793,swahili,2020.2.4,Win32,60,,,0,18,18,18,1,MASHUA,BOAT,,,,,,,,,,,,,,,,,,,,,,,,,,,,,,,,,,,,,,,,,,,,,,,,,,,,,,,,,,,,,,,,,,,,,,,,,,,,,,,,,,,,,,,,,,,,,
,,,,,,,,,,00001472129,2020-10-12_16h02.59.793,swahili,2020.2.4,Win32,60,,,0,19,19,19,1,DAFINA,TREASURE,,,,,,,,,,,,,,,,,,,,,,,,,,,,,,,,,,,,,,,,,,,,,,,,,,,,,,,,,,,,,,,,,,,,,,,,,,,,,,,,,,,,,,,,,,,,,
,,,,,,,,,,00001472129,2020-10-12_16h02.59.793,swahili,2020.2.4,Win32,60,,,,,,,,,,-0.386458333,-0.018518519,1,0,0,7.649855,unsorted_card,0,0,0,0,1,,,,,,,,,,,,,,,,,,,,,,,,,,,,,,,,,,,,,,,,,,,,,,,,,,,,,,,,,,,,,,,,,,,,,,,,,,,,,,,,,
,,,,,,,,,,00001472129,2020-10-12_16h02.59.793,swahili,2020.2.4,Win32,60,,,,,,,,,,0.4,0.437037037,1,0,0,2.82861,study_pile,1,0,1,0,1,MERCHANT - TAJIRI,,,,,,,,,,,,,,,,,,,,,,,,,,,,,,,,,,,,,,,,,,,,,,,,,,,,,,,,,,,,,,,,,,,,,,,,,,,,,,,,
,,,,,,,,,,00001472129,2020-10-12_16h02.59.793,swahili,2020.2.4,Win32,60,,,,,,,,,,-0.29375,-0.133333333,1,0,0,1.62873,unsorted_card,2,0,2,0,1,,,,,,,,,,,,,,,,,,,,,,,,,,,,,,,,,,,,,,,,,,,,,,,,,,,,,,,,,,,,,,,,,,,,,,,,,,,,,,,,,
,,,,,,,,,,00001472129,2020-10-12_16h02.59.793,swahili,2020.2.4,Win32,60,,,,,,,,,,0.470833333,0.542592593,1,0,0,2.379125,study_pile,3,0,3,0,1,PARROT - KASUKU,,,,,,,,,,,,,,,,,,,,,,,,,,,,,,,,,,,,,,,,,,,,,,,,,,,,,,,,,,,,,,,,,,,,,,,,,,,,,,,,
,,,,,,,,,,00001472129,2020-10-12_16h02.59.793,swahili,2020.2.4,Win32,60,,,,,,,,,,-0.2625,-0.072222222,1,0,0,0.880695,unsorted_card,4,0,4,0,1,,,,,,,,,,,,,,,,,,,,,,,,,,,,,,,,,,,,,,,,,,,,,,,,,,,,,,,,,,,,,,,,,,,,,,,,,,,,,,,,,
,,,,,,,,,,00001472129,2020-10-12_16h02.59.793,swahili,2020.2.4,Win32,60,,,,,,,,,,0.490625,0.516666667,1,0,0,1.39794,study_pile,5,0,5,0,1,BULL - FAHILI,,,,,,,,,,,,,,,,,,,,,,,,,,,,,,,,,,,,,,,,,,,,,,,,,,,,,,,,,,,,,,,,,,,,,,,,,,,,,,,,
,,,,,,,,,,00001472129,2020-10-12_16h02.59.793,swahili,2020.2.4,Win32,60,,,,,,,,,,-0.329166667,0.046296296,1,0,0,0.827505,unsorted_card,6,0,6,0,1,,,,,,,,,,,,,,,,,,,,,,,,,,,,,,,,,,,,,,,,,,,,,,,,,,,,,,,,,,,,,,,,,,,,,,,,,,,,,,,,,
,,,,,,,,,,00001472129,2020-10-12_16h02.59.793,swahili,2020.2.4,Win32,60,,,,,,,,,,0.445833333,0.485185185,1,0,0,1.54935,study_pile,7,0,7,0,1,PLATE - SAHANI,,,,,,,,,,,,,,,,,,,,,,,,,,,,,,,,,,,,,,,,,,,,,,,,,,,,,,,,,,,,,,,,,,,,,,,,,,,,,,,,
,,,,,,,,,,00001472129,2020-10-12_16h02.59.793,swahili,2020.2.4,Win32,60,,,,,,,,,,-0.428125,-0.087037037,1,0,0,0.87987,unsorted_card,8,0,8,0,1,,,,,,,,,,,,,,,,,,,,,,,,,,,,,,,,,,,,,,,,,,,,,,,,,,,,,,,,,,,,,,,,,,,,,,,,,,,,,,,,,
,,,,,,,,,,00001472129,2020-10-12_16h02.59.793,swahili,2020.2.4,Win32,60,,,,,,,,,,0.520833333,0.485185185,1,0,0,1.697615,study_pile,9,0,9,0,1,YEAST - HAMIRA,,,,,,,,,,,,,,,,,,,,,,,,,,,,,,,,,,,,,,,,,,,,,,,,,,,,,,,,,,,,,,,,,,,,,,,,,,,,,,,,
,,,,,,,,,,00001472129,2020-10-12_16h02.59.793,swahili,2020.2.4,Win32,60,,,,,,,,,,-0.325,0.053703704,1,0,0,0.730755,unsorted_card,10,0,10,0,1,,,,,,,,,,,,,,,,,,,,,,,,,,,,,,,,,,,,,,,,,,,,,,,,,,,,,,,,,,,,,,,,,,,,,,,,,,,,,,,,,
,,,,,,,,,,00001472129,2020-10-12_16h02.59.793,swahili,2020.2.4,Win32,60,,,,,,,,,,0.547916667,0.596296296,1,0,0,1.830895,study_pile,11,0,11,0,1,BLAME - LAWAMA,,,,,,,,,,,,,,,,,,,,,,,,,,,,,,,,,,,,,,,,,,,,,,,,,,,,,,,,,,,,,,,,,,,,,,,,,,,,,,,,
,,,,,,,,,,00001472129,2020-10-12_16h02.59.793,swahili,2020.2.4,Win32,60,,,,,,,,,,-0.282291667,0.037037037,1,0,0,0.814955,unsorted_card,12,0,12,0,1,,,,,,,,,,,,,,,,,,,,,,,,,,,,,,,,,,,,,,,,,,,,,,,,,,,,,,,,,,,,,,,,,,,,,,,,,,,,,,,,,
,,,,,,,,,,00001472129,2020-10-12_16h02.59.793,swahili,2020.2.4,Win32,60,,,,,,,,,,0.411458333,0.47037037,1,0,0,2.578885,study_pile,13,0,13,0,1,OATH - YAMINI,,,,,,,,,,,,,,,,,,,,,,,,,,,,,,,,,,,,,,,,,,,,,,,,,,,,,,,,,,,,,,,,,,,,,,,,,,,,,,,,
,,,,,,,,,,00001472129,2020-10-12_16h02.59.793,swahili,2020.2.4,Win32,60,,,,,,,,,,-0.377083333,-0.161111111,1,0,0,0.9149,unsorted_card,14,0,14,0,1,,,,,,,,,,,,,,,,,,,,,,,,,,,,,,,,,,,,,,,,,,,,,,,,,,,,,,,,,,,,,,,,,,,,,,,,,,,,,,,,,
,,,,,,,,,,00001472129,2020-10-12_16h02.59.793,swahili,2020.2.4,Win32,60,,,,,,,,,,0.477083333,0.453703704,1,0,0,1.567235,study_pile,15,0,15,0,1,CORN - NAFAKA,,,,,,,,,,,,,,,,,,,,,,,,,,,,,,,,,,,,,,,,,,,,,,,,,,,,,,,,,,,,,,,,,,,,,,,,,,,,,,,,
,,,,,,,,,,00001472129,2020-10-12_16h02.59.793,swahili,2020.2.4,Win32,60,,,,,,,,,,-0.289583333,-0.003703704,1,0,0,0.82928,unsorted_card,16,0,16,0,1,,,,,,,,,,,,,,,,,,,,,,,,,,,,,,,,,,,,,,,,,,,,,,,,,,,,,,,,,,,,,,,,,,,,,,,,,,,,,,,,,
,,,,,,,,,,00001472129,2020-10-12_16h02.59.793,swahili,2020.2.4,Win32,60,,,,,,,,,,0.440625,0.481481481,1,0,0,1.34758,study_pile,17,0,17,0,1,POEM - UTENZI,,,,,,,,,,,,,,,,,,,,,,,,,,,,,,,,,,,,,,,,,,,,,,,,,,,,,,,,,,,,,,,,,,,,,,,,,,,,,,,,
,,,,,,,,,,00001472129,2020-10-12_16h02.59.793,swahili,2020.2.4,Win32,60,,,,,,,,,,-0.346875,-0.005555556,1,0,0,0.74724,unsorted_card,18,0,18,0,1,,,,,,,,,,,,,,,,,,,,,,,,,,,,,,,,,,,,,,,,,,,,,,,,,,,,,,,,,,,,,,,,,,,,,,,,,,,,,,,,,
,,,,,,,,,,00001472129,2020-10-12_16h02.59.793,swahili,2020.2.4,Win32,60,,,,,,,,,,0.410416667,0.431481481,1,0,0,2.148385,study_pile,19,0,19,0,1,TAILOR - MSHONI,,,,,,,,,,,,,,,,,,,,,,,,,,,,,,,,,,,,,,,,,,,,,,,,,,,,,,,,,,,,,,,,,,,,,,,,,,,,,,,,
,,,,,,,,,,00001472129,2020-10-12_16h02.59.793,swahili,2020.2.4,Win32,60,,,,,,,,,,-0.305208333,0.042592593,1,0,0,1.41391,unsorted_card,20,0,20,0,1,,,,,,,,,,,,,,,,,,,,,,,,,,,,,,,,,,,,,,,,,,,,,,,,,,,,,,,,,,,,,,,,,,,,,,,,,,,,,,,,,
,,,,,,,,,,00001472129,2020-10-12_16h02.59.793,swahili,2020.2.4,Win32,60,,,,,,,,,,0.4,0.059259259,1,0,0,2.44914,test_pile,21,0,21,0,1,CHEESE - JIBINI,,,,,,,,,,,,,,,,,,,,,,,,,,,,,,,,,,,,,,,,,,,,,,,,,,,,,,,,,,,,,,,,,,,,,,,,,,,,,,,,
,,,,,,,,,,00001472129,2020-10-12_16h02.59.793,swahili,2020.2.4,Win32,60,,,,,,,,,,-0.289583333,0.018518519,1,0,0,0.84894,unsorted_card,22,0,22,0,1,,,,,,,,,,,,,,,,,,,,,,,,,,,,,,,,,,,,,,,,,,,,,,,,,,,,,,,,,,,,,,,,,,,,,,,,,,,,,,,,,
,,,,,,,,,,00001472129,2020-10-12_16h02.59.793,swahili,2020.2.4,Win32,60,,,,,,,,,,0.419791667,0.02037037,1,0,0,1.230975,test_pile,23,0,23,0,1,GRAPES - ZABIBU,,,,,,,,,,,,,,,,,,,,,,,,,,,,,,,,,,,,,,,,,,,,,,,,,,,,,,,,,,,,,,,,,,,,,,,,,,,,,,,,
,,,,,,,,,,00001472129,2020-10-12_16h02.59.793,swahili,2020.2.4,Win32,60,,,,,,,,,,-0.289583333,-0.031481481,1,0,0,0.71601,unsorted_card,24,0,24,0,1,,,,,,,,,,,,,,,,,,,,,,,,,,,,,,,,,,,,,,,,,,,,,,,,,,,,,,,,,,,,,,,,,,,,,,,,,,,,,,,,,
,,,,,,,,,,00001472129,2020-10-12_16h02.59.793,swahili,2020.2.4,Win32,60,,,,,,,,,,0.501041667,0.022222222,1,0,0,1.41458,test_pile,25,0,25,0,1,GRAVE - KABURI,,,,,,,,,,,,,,,,,,,,,,,,,,,,,,,,,,,,,,,,,,,,,,,,,,,,,,,,,,,,,,,,,,,,,,,,,,,,,,,,
,,,,,,,,,,00001472129,2020-10-12_16h02.59.793,swahili,2020.2.4,Win32,60,,,,,,,,,,-0.351041667,-0.051851852,1,0,0,0.664905,unsorted_card,26,0,26,0,1,,,,,,,,,,,,,,,,,,,,,,,,,,,,,,,,,,,,,,,,,,,,,,,,,,,,,,,,,,,,,,,,,,,,,,,,,,,,,,,,,
,,,,,,,,,,00001472129,2020-10-12_16h02.59.793,swahili,2020.2.4,Win32,60,,,,,,,,,,0.384375,0.035185185,1,0,0,1.34981,test_pile,27,0,27,0,1,MANURE - SAMADI,,,,,,,,,,,,,,,,,,,,,,,,,,,,,,,,,,,,,,,,,,,,,,,,,,,,,,,,,,,,,,,,,,,,,,,,,,,,,,,,
,,,,,,,,,,00001472129,2020-10-12_16h02.59.793,swahili,2020.2.4,Win32,60,,,,,,,,,,-0.340625,0.103703704,1,0,0,0.882535,unsorted_card,28,0,28,0,1,,,,,,,,,,,,,,,,,,,,,,,,,,,,,,,,,,,,,,,,,,,,,,,,,,,,,,,,,,,,,,,,,,,,,,,,,,,,,,,,,
,,,,,,,,,,00001472129,2020-10-12_16h02.59.793,swahili,2020.2.4,Win32,60,,,,,,,,,,0.452083333,-0.018518519,1,0,0,1.83485,test_pile,29,0,29,0,1,AGENT - WAKILI,,,,,,,,,,,,,,,,,,,,,,,,,,,,,,,,,,,,,,,,,,,,,,,,,,,,,,,,,,,,,,,,,,,,,,,,,,,,,,,,
,,,,,,,,,,00001472129,2020-10-12_16h02.59.793,swahili,2020.2.4,Win32,60,,,,,,,,,,-0.347916667,0.040740741,1,0,0,0.71426,unsorted_card,30,0,30,0,1,,,,,,,,,,,,,,,,,,,,,,,,,,,,,,,,,,,,,,,,,,,,,,,,,,,,,,,,,,,,,,,,,,,,,,,,,,,,,,,,,
,,,,,,,,,,00001472129,2020-10-12_16h02.59.793,swahili,2020.2.4,Win32,60,,,,,,,,,,0.420833333,0.012962963,1,0,0,1.435525,test_pile,31,0,31,0,1,BRIBE - RUSHWA,,,,,,,,,,,,,,,,,,,,,,,,,,,,,,,,,,,,,,,,,,,,,,,,,,,,,,,,,,,,,,,,,,,,,,,,,,,,,,,,
,,,,,,,,,,00001472129,2020-10-12_16h02.59.793,swahili,2020.2.4,Win32,60,,,,,,,,,,-0.442708333,0.046296296,1,0,0,0.696555,unsorted_card,32,0,32,0,1,,,,,,,,,,,,,,,,,,,,,,,,,,,,,,,,,,,,,,,,,,,,,,,,,,,,,,,,,,,,,,,,,,,,,,,,,,,,,,,,,
,,,,,,,,,,00001472129,2020-10-12_16h02.59.793,swahili,2020.2.4,Win32,60,,,,,,,,,,0.41875,0.044444444,1,0,0,1.051605,test_pile,33,0,33,0,1,ORPHAN - YATIMA,,,,,,,,,,,,,,,,,,,,,,,,,,,,,,,,,,,,,,,,,,,,,,,,,,,,,,,,,,,,,,,,,,,,,,,,,,,,,,,,
,,,,,,,,,,00001472129,2020-10-12_16h02.59.793,swahili,2020.2.4,Win32,60,,,,,,,,,,-0.091666667,-0.007407407,1,0,0,0.68133,unsorted_card,34,0,34,0,1,,,,,,,,,,,,,,,,,,,,,,,,,,,,,,,,,,,,,,,,,,,,,,,,,,,,,,,,,,,,,,,,,,,,,,,,,,,,,,,,,
,,,,,,,,,,00001472129,2020-10-12_16h02.59.793,swahili,2020.2.4,Win32,60,,,,,,,,,,0.559375,0.003703704,1,0,0,1.901925,test_pile,35,0,35,0,1,DIVORCE - TALAKA,,,,,,,,,,,,,,,,,,,,,,,,,,,,,,,,,,,,,,,,,,,,,,,,,,,,,,,,,,,,,,,,,,,,,,,,,,,,,,,,
,,,,,,,,,,00001472129,2020-10-12_16h02.59.793,swahili,2020.2.4,Win32,60,,,,,,,,,,-0.432291667,0.035185185,1,0,0,0.713385,unsorted_card,36,0,36,0,1,,,,,,,,,,,,,,,,,,,,,,,,,,,,,,,,,,,,,,,,,,,,,,,,,,,,,,,,,,,,,,,,,,,,,,,,,,,,,,,,,
,,,,,,,,,,00001472129,2020-10-12_16h02.59.793,swahili,2020.2.4,Win32,60,,,,,,,,,,0.448958333,0.035185185,1,0,0,1.25069,test_pile,37,0,37,0,1,BOAT - MASHUA,,,,,,,,,,,,,,,,,,,,,,,,,,,,,,,,,,,,,,,,,,,,,,,,,,,,,,,,,,,,,,,,,,,,,,,,,,,,,,,,
,,,,,,,,,,00001472129,2020-10-12_16h02.59.793,swahili,2020.2.4,Win32,60,,,,,,,,,,-0.247916667,0.135185185,1,0,0,0.683405,unsorted_card,38,0,38,0,1,,,,,,,,,,,,,,,,,,,,,,,,,,,,,,,,,,,,,,,,,,,,,,,,,,,,,,,,,,,,,,,,,,,,,,,,,,,,,,,,,
,,,,,,,,,,00001472129,2020-10-12_16h02.59.793,swahili,2020.2.4,Win32,60,,,,,,,,,,0.433333333,0.077777778,1,0,0,1.267505,test_pile,39,0,39,0,1,TREASURE - DAFINA,,,,,,,,,,,,,,,,,,,,,,,,,,,,,,,,,,,,,,,,,,,,,,,,,,,,,,,,,,,,,,,,,,,,,,,,,,,,,,,,
,,,,,,,,,,00001472129,2020-10-12_16h02.59.793,swahili,2020.2.4,Win32,60,,,,,,,,,,,,,,,,,,,,,,OATH - YAMINI,-0.517708333,0.02962963,1,0,0,1.12053,study_first,return,6.439475,return,3.87919,0,0,0,0,1,,,,,,,,,,,,,,,,,,,,,,,,,,,,,,,,,,,,,,,,,,,,,,,,,,,,,,,,,,,,,,,,
,,,,,,,,,,00001472129,2020-10-12_16h02.59.793,swahili,2020.2.4,Win32,60,,,,,,,,,,,,,,,,,,,,,,PARROT - KASUKU,,,,,,,,,,return,2.13455,1,0,1,0,1,,,,,,,,,,,,,,,,,,,,,,,,,,,,,,,,,,,,,,,,,,,,,,,,,,,,,,,,,,,,,,,,
,,,,,,,,,,00001472129,2020-10-12_16h02.59.793,swahili,2020.2.4,Win32,60,,,,,,,,,,,,,,,,,,,,,,CORN - NAFAKA,,,,,,,,,,return,1.918495,2,0,2,0,1,,,,,,,,,,,,,,,,,,,,,,,,,,,,,,,,,,,,,,,,,,,,,,,,,,,,,,,,,,,,,,,,
,,,,,,,,,,00001472129,2020-10-12_16h02.59.793,swahili,2020.2.4,Win32,60,,,,,,,,,,,,,,,,,,,,,,MERCHANT - TAJIRI,,,,,,,,,,return,2.20707,3,0,3,0,1,,,,,,,,,,,,,,,,,,,,,,,,,,,,,,,,,,,,,,,,,,,,,,,,,,,,,,,,,,,,,,,,
,,,,,,,,,,00001472129,2020-10-12_16h02.59.793,swahili,2020.2.4,Win32,60,,,,,,,,,,,,,,,,,,,,,,TAILOR - MSHONI,,,,,,,,,,return,3.476155,4,0,4,0,1,,,,,,,,,,,,,,,,,,,,,,,,,,,,,,,,,,,,,,,,,,,,,,,,,,,,,,,,,,,,,,,,
,,,,,,,,,,00001472129,2020-10-12_16h02.59.793,swahili,2020.2.4,Win32,60,,,,,,,,,,,,,,,,,,,,,,BLAME - LAWAMA,,,,,,,,,,return,2.275945,5,0,5,0,1,,,,,,,,,,,,,,,,,,,,,,,,,,,,,,,,,,,,,,,,,,,,,,,,,,,,,,,,,,,,,,,,
,,,,,,,,,,00001472129,2020-10-12_16h02.59.793,swahili,2020.2.4,Win32,60,,,,,,,,,,,,,,,,,,,,,,BULL - FAHILI,,,,,,,,,,return,1.68656,6,0,6,0,1,,,,,,,,,,,,,,,,,,,,,,,,,,,,,,,,,,,,,,,,,,,,,,,,,,,,,,,,,,,,,,,,
,,,,,,,,,,00001472129,2020-10-12_16h02.59.793,swahili,2020.2.4,Win32,60,,,,,,,,,,,,,,,,,,,,,,PLATE - SAHANI,,,,,,,,,,return,1.08761,7,0,7,0,1,,,,,,,,,,,,,,,,,,,,,,,,,,,,,,,,,,,,,,,,,,,,,,,,,,,,,,,,,,,,,,,,
,,,,,,,,,,00001472129,2020-10-12_16h02.59.793,swahili,2020.2.4,Win32,60,,,,,,,,,,,,,,,,,,,,,,POEM - UTENZI,,,,,,,,,,return,1.97065,8,0,8,0,1,,,,,,,,,,,,,,,,,,,,,,,,,,,,,,,,,,,,,,,,,,,,,,,,,,,,,,,,,,,,,,,,
,,,,,,,,,,00001472129,2020-10-12_16h02.59.793,swahili,2020.2.4,Win32,60,,,,,,,,,,,,,,,,,,,,,,YEAST - HAMIRA,,,,,,,,,,return,1.823915,9,0,9,0,1,,,,,,,,,,,,,,,,,,,,,,,,,,,,,,,,,,,,,,,,,,,,,,,,,,,,,,,,,,,,,,,,
,,,,,,,,,,00001472129,2020-10-12_16h02.59.793,swahili,2020.2.4,Win32,60,,,,,,,,,,,,,,,,,,,,,,,,,,,,,,,,,,,,,,,,0,0,0,0,1,,,,,,,,,,,,,,,,,,,,,,,,,,,,,,,,,,,,,,,,,,,,,,,,,,,,,,,,,,
,,,,,,,,,,00001472129,2020-10-12_16h02.59.793,swahili,2020.2.4,Win32,60,,,,,,,,,,,,,,,,,,,,,,,,,,,,,,,,,,0,0,0,0,1,,,,,,,,,,,,,,,,,,,,,,,,,,,,,,,,,,,,,,,,,,,,,,,,,,,,,,,,,,,,,,,,
,,,,,,,,,,00001472129,2020-10-12_16h02.59.793,swahili,2020.2.4,Win32,60,,,,,,,,,,,,,,,,,,,,,,,,,,,,,,,,,,,,,,,return,,,,,,2.40318,22.281605,0.548958333,-0.209259259,1,0,0,2.057445,yes,AGENT,WAKIKI,incorrect,0,0,0,0,1,,,,,,,,,,,,,,,,,,,,,,,,,,,,,,,,,,,,,,,,,
,,,,,,,,,,00001472129,2020-10-12_16h02.59.793,swahili,2020.2.4,Win32,60,,,,,,,,,,,,,,,,,,,,,,,,,,,,,,,,,,,,,,,,,,,,,,5.66642,0.409375,-0.016666667,1,0,0,1.517105,yes,ORPHAN,MUL,incorrect,1,0,1,0,1,,,,,,,,,,,,,,,,,,,,,,,,,,,,,,,,,,,,,,,,,
,,,,,,,,,,00001472129,2020-10-12_16h02.59.793,swahili,2020.2.4,Win32,60,,,,,,,,,,,,,,,,,,,,,,,,,,,,,,,,,,,,,,,,,,,,,,8.182925,0.498958333,0.035185185,1,0,0,1.95069,yes,GRAPES,MUSHLI,incorrect,2,0,2,0,1,,,,,,,,,,,,,,,,,,,,,,,,,,,,,,,,,,,,,,,,,
,,,,,,,,,,00001472129,2020-10-12_16h02.59.793,swahili,2020.2.4,Win32,60,,,,,,,,,,,,,,,,,,,,,,,,,,,,,,,,,,,,,,,,,,,,,,4.500175,0.492708333,-0.033333333,1,0,0,1.334145,yes,DIVORCE,F,incorrect,3,0,3,0,1,,,,,,,,,,,,,,,,,,,,,,,,,,,,,,,,,,,,,,,,,
,,,,,,,,,,00001472129,2020-10-12_16h02.59.793,swahili,2020.2.4,Win32,60,,,,,,,,,,,,,,,,,,,,,,,,,,,,,,,,,,,,,,,,,,,,,,4.767385,0.492708333,-0.033333333,1,0,0,1.066935,yes,CHEESE,MANUBA,incorrect,4,0,4,0,1,,,,,,,,,,,,,,,,,,,,,,,,,,,,,,,,,,,,,,,,,
,,,,,,,,,,00001472129,2020-10-12_16h02.59.793,swahili,2020.2.4,Win32,60,,,,,,,,,,,,,,,,,,,,,,,,,,,,,,,,,,,,,,,,,,,,,,11.50083,0.492708333,-0.033333333,1,0,0,1.167285,yes,BRIBE,PILUA,incorrect,5,0,5,0,1,,,,,,,,,,,,,,,,,,,,,,,,,,,,,,,,,,,,,,,,,
,,,,,,,,,,00001472129,2020-10-12_16h02.59.793,swahili,2020.2.4,Win32,60,,,,,,,,,,,,,,,,,,,,,,,,,,,,,,,,,,,,,,,,,,,,,,4.71623,0.492708333,-0.033333333,1,0,0,1.16693,yes,MANURE,FARIBA,incorrect,6,0,6,0,1,,,,,,,,,,,,,,,,,,,,,,,,,,,,,,,,,,,,,,,,,
,,,,,,,,,,00001472129,2020-10-12_16h02.59.793,swahili,2020.2.4,Win32,60,,,,,,,,,,,,,,,,,,,,,,,,,,,,,,,,,,,,,,,,,,,,,,7.234875,0.492708333,-0.033333333,1,0,0,1.036225,yes,BOAT,MANJURA,incorrect,7,0,7,0,1,,,,,,,,,,,,,,,,,,,,,,,,,,,,,,,,,,,,,,,,,
,,,,,,,,,,00001472129,2020-10-12_16h02.59.793,swahili,2020.2.4,Win32,60,,,,,,,,,,,,,,,,,,,,,,,,,,,,,,,,,,,,,,,,,,,,,,11.42442,0.492708333,-0.033333333,1,0,0,1.069875,yes,TREASURE,MANULA,incorrect,8,0,8,0,1,,,,,,,,,,,,,,,,,,,,,,,,,,,,,,,,,,,,,,,,,
,,,,,,,,,,00001472129,2020-10-12_16h02.59.793,swahili,2020.2.4,Win32,60,,,,,,,,,,,,,,,,,,,,,,,,,,,,,,,,,,,,,,,,,,,,,,4.265705,0.492708333,-0.033333333,1,0,0,1.01664,yes,GRAVE,JAFINA,incorrect,9,0,9,0,1,,,,,,,,,,,,,,,,,,,,,,,,,,,,,,,,,,,,,,,,,
,,,,,,,,,,00001472129,2020-10-12_16h02.59.793,swahili,2020.2.4,Win32,60,,,,,,,,,,,,,,,,,,,,,,,,,,,,,,,,,,,,,,,,1,0,1,0,1,,,,,,,,,,,,,,,,,,,,,,,,,,,,,,,,,,,,,,,,,,,,,,,,,,,,,,,,,,
,,,,,,,,,,00001472129,2020-10-12_16h02.59.793,swahili,2020.2.4,Win32,60,,,,,,,,,,,,,,,,,,,,,,,,,,,,,,,,,,,,,,,,,,,,,,,,,,,,,,,,,,,,,,0,0,0,0,1,,,,,,,,,,,,,,,,,,,,,,,,,,,,,,,,,,,,
,,,,,,,,,,00001472129,2020-10-12_16h02.59.793,swahili,2020.2.4,Win32,60,,,,,,,,,,-0.285416667,0.118518519,1,0,0,1.9982,unsorted_card,0,0,0,0,1,,,,,,,,,,,,,,,,,,,,,,,,,,,,,,,,,,,,,,,,,,,,,,,,,,,,,,,,,,,,,,,,,,,,,,,,,,,,,,,,,
,,,,,,,,,,00001472129,2020-10-12_16h02.59.793,swahili,2020.2.4,Win32,60,,,,,,,,,,0.436458333,0.505555556,1,0,0,1.11642,study_pile,1,0,1,0,1,MERCHANT - TAJIRI,,,,,,,,,,,,,,,,,,,,,,,,,,,,,,,,,,,,,,,,,,,,,,,,,,,,,,,,,,,,,,,,,,,,,,,,,,,,,,,,
,,,,,,,,,,00001472129,2020-10-12_16h02.59.793,swahili,2020.2.4,Win32,60,,,,,,,,,,-0.344791667,0.011111111,1,0,0,0.547635,unsorted_card,2,0,2,0,1,,,,,,,,,,,,,,,,,,,,,,,,,,,,,,,,,,,,,,,,,,,,,,,,,,,,,,,,,,,,,,,,,,,,,,,,,,,,,,,,,
,,,,,,,,,,00001472129,2020-10-12_16h02.59.793,swahili,2020.2.4,Win32,60,,,,,,,,,,0.520833333,0.477777778,1,0,0,0.516325,study_pile,3,0,3,0,1,PARROT - KASUKU,,,,,,,,,,,,,,,,,,,,,,,,,,,,,,,,,,,,,,,,,,,,,,,,,,,,,,,,,,,,,,,,,,,,,,,,,,,,,,,,
,,,,,,,,,,00001472129,2020-10-12_16h02.59.793,swahili,2020.2.4,Win32,60,,,,,,,,,,-0.315625,-0.005555556,1,0,0,0.41568,unsorted_card,4,0,4,0,1,,,,,,,,,,,,,,,,,,,,,,,,,,,,,,,,,,,,,,,,,,,,,,,,,,,,,,,,,,,,,,,,,,,,,,,,,,,,,,,,,
,,,,,,,,,,00001472129,2020-10-12_16h02.59.793,swahili,2020.2.4,Win32,60,,,,,,,,,,0.526041667,0.583333333,1,0,0,0.5016,study_pile,5,0,5,0,1,BULL - FAHILI,,,,,,,,,,,,,,,,,,,,,,,,,,,,,,,,,,,,,,,,,,,,,,,,,,,,,,,,,,,,,,,,,,,,,,,,,,,,,,,,
,,,,,,,,,,00001472129,2020-10-12_16h02.59.793,swahili,2020.2.4,Win32,60,,,,,,,,,,-0.239583333,-0.055555556,1,0,0,0.466115,unsorted_card,6,0,6,0,1,,,,,,,,,,,,,,,,,,,,,,,,,,,,,,,,,,,,,,,,,,,,,,,,,,,,,,,,,,,,,,,,,,,,,,,,,,,,,,,,,
,,,,,,,,,,00001472129,2020-10-12_16h02.59.793,swahili,2020.2.4,Win32,60,,,,,,,,,,0.467708333,0.474074074,1,0,0,0.46655,study_pile,7,0,7,0,1,PLATE - SAHANI,,,,,,,,,,,,,,,,,,,,,,,,,,,,,,,,,,,,,,,,,,,,,,,,,,,,,,,,,,,,,,,,,,,,,,,,,,,,,,,,
,,,,,,,,,,00001472129,2020-10-12_16h02.59.793,swahili,2020.2.4,Win32,60,,,,,,,,,,-0.363541667,-0.059259259,1,0,0,0.465985,unsorted_card,8,0,8,0,1,,,,,,,,,,,,,,,,,,,,,,,,,,,,,,,,,,,,,,,,,,,,,,,,,,,,,,,,,,,,,,,,,,,,,,,,,,,,,,,,,
,,,,,,,,,,00001472129,2020-10-12_16h02.59.793,swahili,2020.2.4,Win32,60,,,,,,,,,,0.429166667,0.453703704,1,0,0,0.477825,study_pile,9,0,9,0,1,YEAST - HAMIRA,,,,,,,,,,,,,,,,,,,,,,,,,,,,,,,,,,,,,,,,,,,,,,,,,,,,,,,,,,,,,,,,,,,,,,,,,,,,,,,,
,,,,,,,,,,00001472129,2020-10-12_16h02.59.793,swahili,2020.2.4,Win32,60,,,,,,,,,,-0.33125,-0.087037037,1,0,0,0.384375,unsorted_card,10,0,10,0,1,,,,,,,,,,,,,,,,,,,,,,,,,,,,,,,,,,,,,,,,,,,,,,,,,,,,,,,,,,,,,,,,,,,,,,,,,,,,,,,,,
,,,,,,,,,,00001472129,2020-10-12_16h02.59.793,swahili,2020.2.4,Win32,60,,,,,,,,,,0.457291667,0.496296296,1,0,0,0.46166,study_pile,11,0,11,0,1,BLAME - LAWAMA,,,,,,,,,,,,,,,,,,,,,,,,,,,,,,,,,,,,,,,,,,,,,,,,,,,,,,,,,,,,,,,,,,,,,,,,,,,,,,,,
,,,,,,,,,,00001472129,2020-10-12_16h02.59.793,swahili,2020.2.4,Win32,60,,,,,,,,,,-0.21875,0.062962963,1,0,0,0.44782,unsorted_card,12,0,12,0,1,,,,,,,,,,,,,,,,,,,,,,,,,,,,,,,,,,,,,,,,,,,,,,,,,,,,,,,,,,,,,,,,,,,,,,,,,,,,,,,,,
,,,,,,,,,,00001472129,2020-10-12_16h02.59.793,swahili,2020.2.4,Win32,60,,,,,,,,,,0.561458333,0.625925926,1,0,0,0.45558,study_pile,13,0,13,0,1,OATH - YAMINI,,,,,,,,,,,,,,,,,,,,,,,,,,,,,,,,,,,,,,,,,,,,,,,,,,,,,,,,,,,,,,,,,,,,,,,,,,,,,,,,
,,,,,,,,,,00001472129,2020-10-12_16h02.59.793,swahili,2020.2.4,Win32,60,,,,,,,,,,-0.075,0.12962963,1,0,0,0.498595,unsorted_card,14,0,14,0,1,,,,,,,,,,,,,,,,,,,,,,,,,,,,,,,,,,,,,,,,,,,,,,,,,,,,,,,,,,,,,,,,,,,,,,,,,,,,,,,,,
,,,,,,,,,,00001472129,2020-10-12_16h02.59.793,swahili,2020.2.4,Win32,60,,,,,,,,,,0.453125,0.461111111,1,0,0,0.47584,study_pile,15,0,15,0,1,CORN - NAFAKA,,,,,,,,,,,,,,,,,,,,,,,,,,,,,,,,,,,,,,,,,,,,,,,,,,,,,,,,,,,,,,,,,,,,,,,,,,,,,,,,
,,,,,,,,,,00001472129,2020-10-12_16h02.59.793,swahili,2020.2.4,Win32,60,,,,,,,,,,-0.152083333,0.016666667,1,0,0,0.57311,unsorted_card,16,0,16,0,1,,,,,,,,,,,,,,,,,,,,,,,,,,,,,,,,,,,,,,,,,,,,,,,,,,,,,,,,,,,,,,,,,,,,,,,,,,,,,,,,,
,,,,,,,,,,00001472129,2020-10-12_16h02.59.793,swahili,2020.2.4,Win32,60,,,,,,,,,,0.463541667,0.52037037,1,0,0,0.458205,study_pile,17,0,17,0,1,POEM - UTENZI,,,,,,,,,,,,,,,,,,,,,,,,,,,,,,,,,,,,,,,,,,,,,,,,,,,,,,,,,,,,,,,,,,,,,,,,,,,,,,,,
,,,,,,,,,,00001472129,2020-10-12_16h02.59.793,swahili,2020.2.4,Win32,60,,,,,,,,,,-0.145833333,0.057407407,1,0,0,0.473185,unsorted_card,18,0,18,0,1,,,,,,,,,,,,,,,,,,,,,,,,,,,,,,,,,,,,,,,,,,,,,,,,,,,,,,,,,,,,,,,,,,,,,,,,,,,,,,,,,
,,,,,,,,,,00001472129,2020-10-12_16h02.59.793,swahili,2020.2.4,Win32,60,,,,,,,,,,0.434375,0.442592593,1,0,0,0.44151,study_pile,19,0,19,0,1,TAILOR - MSHONI,,,,,,,,,,,,,,,,,,,,,,,,,,,,,,,,,,,,,,,,,,,,,,,,,,,,,,,,,,,,,,,,,,,,,,,,,,,,,,,,
,,,,,,,,,,00001472129,2020-10-12_16h02.59.793,swahili,2020.2.4,Win32,60,,,,,,,,,,-0.195833333,-0.003703704,1,0,0,0.492075,unsorted_card,20,0,20,0,1,,,,,,,,,,,,,,,,,,,,,,,,,,,,,,,,,,,,,,,,,,,,,,,,,,,,,,,,,,,,,,,,,,,,,,,,,,,,,,,,,
,,,,,,,,,,00001472129,2020-10-12_16h02.59.793,swahili,2020.2.4,Win32,60,,,,,,,,,,0.4625,0.440740741,1,0,0,0.42241,study_pile,21,0,21,0,1,CHEESE - JIBINI,,,,,,,,,,,,,,,,,,,,,,,,,,,,,,,,,,,,,,,,,,,,,,,,,,,,,,,,,,,,,,,,,,,,,,,,,,,,,,,,
,,,,,,,,,,00001472129,2020-10-12_16h02.59.793,swahili,2020.2.4,Win32,60,,,,,,,,,,-0.202083333,-0.012962963,1,0,0,0.41586,unsorted_card,22,0,22,0,1,,,,,,,,,,,,,,,,,,,,,,,,,,,,,,,,,,,,,,,,,,,,,,,,,,,,,,,,,,,,,,,,,,,,,,,,,,,,,,,,,
,,,,,,,,,,00001472129,2020-10-12_16h02.59.793,swahili,2020.2.4,Win32,60,,,,,,,,,,0.35,0.388888889,1,0,0,0.44867,study_pile,23,0,23,0,1,GRAPES - ZABIBU,,,,,,,,,,,,,,,,,,,,,,,,,,,,,,,,,,,,,,,,,,,,,,,,,,,,,,,,,,,,,,,,,,,,,,,,,,,,,,,,
,,,,,,,,,,00001472129,2020-10-12_16h02.59.793,swahili,2020.2.4,Win32,60,,,,,,,,,,-0.202083333,0,1,0,0,0.441675,unsorted_card,24,0,24,0,1,,,,,,,,,,,,,,,,,,,,,,,,,,,,,,,,,,,,,,,,,,,,,,,,,,,,,,,,,,,,,,,,,,,,,,,,,,,,,,,,,
,,,,,,,,,,00001472129,2020-10-12_16h02.59.793,swahili,2020.2.4,Win32,60,,,,,,,,,,0.457291667,0.466666667,1,0,0,0.499985,study_pile,25,0,25,0,1,GRAVE - KABURI,,,,,,,,,,,,,,,,,,,,,,,,,,,,,,,,,,,,,,,,,,,,,,,,,,,,,,,,,,,,,,,,,,,,,,,,,,,,,,,,
,,,,,,,,,,00001472129,2020-10-12_16h02.59.793,swahili,2020.2.4,Win32,60,,,,,,,,,,-0.095833333,0.07962963,1,0,0,0.40392,unsorted_card,26,0,26,0,1,,,,,,,,,,,,,,,,,,,,,,,,,,,,,,,,,,,,,,,,,,,,,,,,,,,,,,,,,,,,,,,,,,,,,,,,,,,,,,,,,
,,,,,,,,,,00001472129,2020-10-12_16h02.59.793,swahili,2020.2.4,Win32,60,,,,,,,,,,0.409375,0.409259259,1,0,0,0.534995,study_pile,27,0,27,0,1,MANURE - SAMADI,,,,,,,,,,,,,,,,,,,,,,,,,,,,,,,,,,,,,,,,,,,,,,,,,,,,,,,,,,,,,,,,,,,,,,,,,,,,,,,,
,,,,,,,,,,00001472129,2020-10-12_16h02.59.793,swahili,2020.2.4,Win32,60,,,,,,,,,,-0.105208333,0.137037037,1,0,0,1.36617,unsorted_card,28,0,28,0,1,,,,,,,,,,,,,,,,,,,,,,,,,,,,,,,,,,,,,,,,,,,,,,,,,,,,,,,,,,,,,,,,,,,,,,,,,,,,,,,,,
,,,,,,,,,,00001472129,2020-10-12_16h02.59.793,swahili,2020.2.4,Win32,60,,,,,,,,,,0.397916667,0.45,1,0,0,0.420805,study_pile,29,0,29,0,1,AGENT - WAKILI,,,,,,,,,,,,,,,,,,,,,,,,,,,,,,,,,,,,,,,,,,,,,,,,,,,,,,,,,,,,,,,,,,,,,,,,,,,,,,,,
,,,,,,,,,,00001472129,2020-10-12_16h02.59.793,swahili,2020.2.4,Win32,60,,,,,,,,,,-0.283333333,0.042592593,1,0,0,0.39852,unsorted_card,30,0,30,0,1,,,,,,,,,,,,,,,,,,,,,,,,,,,,,,,,,,,,,,,,,,,,,,,,,,,,,,,,,,,,,,,,,,,,,,,,,,,,,,,,,
,,,,,,,,,,00001472129,2020-10-12_16h02.59.793,swahili,2020.2.4,Win32,60,,,,,,,,,,0.480208333,0.622222222,1,0,0,0.39822,study_pile,31,0,31,0,1,BRIBE - RUSHWA,,,,,,,,,,,,,,,,,,,,,,,,,,,,,,,,,,,,,,,,,,,,,,,,,,,,,,,,,,,,,,,,,,,,,,,,,,,,,,,,
,,,,,,,,,,00001472129,2020-10-12_16h02.59.793,swahili,2020.2.4,Win32,60,,,,,,,,,,-0.039583333,0.255555556,1,0,0,0.38327,unsorted_card,32,0,32,0,1,,,,,,,,,,,,,,,,,,,,,,,,,,,,,,,,,,,,,,,,,,,,,,,,,,,,,,,,,,,,,,,,,,,,,,,,,,,,,,,,,
,,,,,,,,,,00001472129,2020-10-12_16h02.59.793,swahili,2020.2.4,Win32,60,,,,,,,,,,0.434375,0.494444444,1,0,0,0.41299,study_pile,33,0,33,0,1,ORPHAN - YATIMA,,,,,,,,,,,,,,,,,,,,,,,,,,,,,,,,,,,,,,,,,,,,,,,,,,,,,,,,,,,,,,,,,,,,,,,,,,,,,,,,
,,,,,,,,,,00001472129,2020-10-12_16h02.59.793,swahili,2020.2.4,Win32,60,,,,,,,,,,-0.151041667,0.081481481,1,0,0,0.432745,unsorted_card,34,0,34,0,1,,,,,,,,,,,,,,,,,,,,,,,,,,,,,,,,,,,,,,,,,,,,,,,,,,,,,,,,,,,,,,,,,,,,,,,,,,,,,,,,,
,,,,,,,,,,00001472129,2020-10-12_16h02.59.793,swahili,2020.2.4,Win32,60,,,,,,,,,,0.501041667,0.540740741,1,0,0,0.43471,study_pile,35,0,35,0,1,DIVORCE - TALAKA,,,,,,,,,,,,,,,,,,,,,,,,,,,,,,,,,,,,,,,,,,,,,,,,,,,,,,,,,,,,,,,,,,,,,,,,,,,,,,,,
,,,,,,,,,,00001472129,2020-10-12_16h02.59.793,swahili,2020.2.4,Win32,60,,,,,,,,,,-0.129166667,0.174074074,1,0,0,0.51302,unsorted_card,36,0,36,0,1,,,,,,,,,,,,,,,,,,,,,,,,,,,,,,,,,,,,,,,,,,,,,,,,,,,,,,,,,,,,,,,,,,,,,,,,,,,,,,,,,
,,,,,,,,,,00001472129,2020-10-12_16h02.59.793,swahili,2020.2.4,Win32,60,,,,,,,,,,0.503125,0.524074074,1,0,0,0.41822,study_pile,37,0,37,0,1,BOAT - MASHUA,,,,,,,,,,,,,,,,,,,,,,,,,,,,,,,,,,,,,,,,,,,,,,,,,,,,,,,,,,,,,,,,,,,,,,,,,,,,,,,,
,,,,,,,,,,00001472129,2020-10-12_16h02.59.793,swahili,2020.2.4,Win32,60,,,,,,,,,,-0.09375,0.166666667,1,0,0,0.46619,unsorted_card,38,0,38,0,1,,,,,,,,,,,,,,,,,,,,,,,,,,,,,,,,,,,,,,,,,,,,,,,,,,,,,,,,,,,,,,,,,,,,,,,,,,,,,,,,,
,,,,,,,,,,00001472129,2020-10-12_16h02.59.793,swahili,2020.2.4,Win32,60,,,,,,,,,,0.428125,0.501851852,1,0,0,0.478465,study_pile,39,0,39,0,1,TREASURE - DAFINA,,,,,,,,,,,,,,,,,,,,,,,,,,,,,,,,,,,,,,,,,,,,,,,,,,,,,,,,,,,,,,,,,,,,,,,,,,,,,,,,
,,,,,,,,,,00001472129,2020-10-12_16h02.59.793,swahili,2020.2.4,Win32,60,,,,,,,,,,,,,,,,,,,,,,PLATE - SAHANI,,,,,,,,return,1.91935,return,3.72985,0,0,0,0,1,,,,,,,,,,,,,,,,,,,,,,,,,,,,,,,,,,,,,,,,,,,,,,,,,,,,,,,,,,,,,,,,
,,,,,,,,,,00001472129,2020-10-12_16h02.59.793,swahili,2020.2.4,Win32,60,,,,,,,,,,,,,,,,,,,,,,YEAST - HAMIRA,,,,,,,,,,return,2.104905,1,0,1,0,1,,,,,,,,,,,,,,,,,,,,,,,,,,,,,,,,,,,,,,,,,,,,,,,,,,,,,,,,,,,,,,,,
,,,,,,,,,,00001472129,2020-10-12_16h02.59.793,swahili,2020.2.4,Win32,60,,,,,,,,,,,,,,,,,,,,,,OATH - YAMINI,,,,,,,,,,return,4.689605,2,0,2,0,1,,,,,,,,,,,,,,,,,,,,,,,,,,,,,,,,,,,,,,,,,,,,,,,,,,,,,,,,,,,,,,,,
,,,,,,,,,,00001472129,2020-10-12_16h02.59.793,swahili,2020.2.4,Win32,60,,,,,,,,,,,,,,,,,,,,,,AGENT - WAKILI,,,,,,,,,,return,1.45568,3,0,3,0,1,,,,,,,,,,,,,,,,,,,,,,,,,,,,,,,,,,,,,,,,,,,,,,,,,,,,,,,,,,,,,,,,
,,,,,,,,,,00001472129,2020-10-12_16h02.59.793,swahili,2020.2.4,Win32,60,,,,,,,,,,,,,,,,,,,,,,ORPHAN - YATIMA,,,,,,,,,,return,1.719035,4,0,4,0,1,,,,,,,,,,,,,,,,,,,,,,,,,,,,,,,,,,,,,,,,,,,,,,,,,,,,,,,,,,,,,,,,
,,,,,,,,,,00001472129,2020-10-12_16h02.59.793,swahili,2020.2.4,Win32,60,,,,,,,,,,,,,,,,,,,,,,POEM - UTENZI,,,,,,,,,,return,1.635605,5,0,5,0,1,,,,,,,,,,,,,,,,,,,,,,,,,,,,,,,,,,,,,,,,,,,,,,,,,,,,,,,,,,,,,,,,
,,,,,,,,,,00001472129,2020-10-12_16h02.59.793,swahili,2020.2.4,Win32,60,,,,,,,,,,,,,,,,,,,,,,BULL - FAHILI,,,,,,,,,,return,2.40704,6,0,6,0,1,,,,,,,,,,,,,,,,,,,,,,,,,,,,,,,,,,,,,,,,,,,,,,,,,,,,,,,,,,,,,,,,
,,,,,,,,,,00001472129,2020-10-12_16h02.59.793,swahili,2020.2.4,Win32,60,,,,,,,,,,,,,,,,,,,,,,BRIBE - RUSHWA,,,,,,,,,,return,1.352005,7,0,7,0,1,,,,,,,,,,,,,,,,,,,,,,,,,,,,,,,,,,,,,,,,,,,,,,,,,,,,,,,,,,,,,,,,
,,,,,,,,,,00001472129,2020-10-12_16h02.59.793,swahili,2020.2.4,Win32,60,,,,,,,,,,,,,,,,,,,,,,BOAT - MASHUA,,,,,,,,,,return,1.518475,8,0,8,0,1,,,,,,,,,,,,,,,,,,,,,,,,,,,,,,,,,,,,,,,,,,,,,,,,,,,,,,,,,,,,,,,,
,,,,,,,,,,00001472129,2020-10-12_16h02.59.793,swahili,2020.2.4,Win32,60,,,,,,,,,,,,,,,,,,,,,,PARROT - KASUKU,,,,,,,,,,return,1.535455,9,0,9,0,1,,,,,,,,,,,,,,,,,,,,,,,,,,,,,,,,,,,,,,,,,,,,,,,,,,,,,,,,,,,,,,,,
,,,,,,,,,,00001472129,2020-10-12_16h02.59.793,swahili,2020.2.4,Win32,60,,,,,,,,,,,,,,,,,,,,,,TAILOR - MSHONI,,,,,,,,,,return,4.10486,10,0,10,0,1,,,,,,,,,,,,,,,,,,,,,,,,,,,,,,,,,,,,,,,,,,,,,,,,,,,,,,,,,,,,,,,,
,,,,,,,,,,00001472129,2020-10-12_16h02.59.793,swahili,2020.2.4,Win32,60,,,,,,,,,,,,,,,,,,,,,,MERCHANT - TAJIRI,,,,,,,,,,return,1.952845,11,0,11,0,1,,,,,,,,,,,,,,,,,,,,,,,,,,,,,,,,,,,,,,,,,,,,,,,,,,,,,,,,,,,,,,,,
,,,,,,,,,,00001472129,2020-10-12_16h02.59.793,swahili,2020.2.4,Win32,60,,,,,,,,,,,,,,,,,,,,,,MANURE - SAMADI,,,,,,,,,,return,2.54367,12,0,12,0,1,,,,,,,,,,,,,,,,,,,,,,,,,,,,,,,,,,,,,,,,,,,,,,,,,,,,,,,,,,,,,,,,
,,,,,,,,,,00001472129,2020-10-12_16h02.59.793,swahili,2020.2.4,Win32,60,,,,,,,,,,,,,,,,,,,,,,CORN - NAFAKA,,,,,,,,,,return,1.770345,13,0,13,0,1,,,,,,,,,,,,,,,,,,,,,,,,,,,,,,,,,,,,,,,,,,,,,,,,,,,,,,,,,,,,,,,,
,,,,,,,,,,00001472129,2020-10-12_16h02.59.793,swahili,2020.2.4,Win32,60,,,,,,,,,,,,,,,,,,,,,,CHEESE - JIBINI,,,,,,,,,,return,2.50872,14,0,14,0,1,,,,,,,,,,,,,,,,,,,,,,,,,,,,,,,,,,,,,,,,,,,,,,,,,,,,,,,,,,,,,,,,
,,,,,,,,,,00001472129,2020-10-12_16h02.59.793,swahili,2020.2.4,Win32,60,,,,,,,,,,,,,,,,,,,,,,GRAPES - ZABIBU,,,,,,,,,,return,1.769375,15,0,15,0,1,,,,,,,,,,,,,,,,,,,,,,,,,,,,,,,,,,,,,,,,,,,,,,,,,,,,,,,,,,,,,,,,
,,,,,,,,,,00001472129,2020-10-12_16h02.59.793,swahili,2020.2.4,Win32,60,,,,,,,,,,,,,,,,,,,,,,BLAME - LAWAMA,,,,,,,,,,return,1.370725,16,0,16,0,1,,,,,,,,,,,,,,,,,,,,,,,,,,,,,,,,,,,,,,,,,,,,,,,,,,,,,,,,,,,,,,,,
,,,,,,,,,,00001472129,2020-10-12_16h02.59.793,swahili,2020.2.4,Win32,60,,,,,,,,,,,,,,,,,,,,,,DIVORCE - TALAKA,,,,,,,,,,return,2.22601,17,0,17,0,1,,,,,,,,,,,,,,,,,,,,,,,,,,,,,,,,,,,,,,,,,,,,,,,,,,,,,,,,,,,,,,,,
,,,,,,,,,,00001472129,2020-10-12_16h02.59.793,swahili,2020.2.4,Win32,60,,,,,,,,,,,,,,,,,,,,,,TREASURE - DAFINA,,,,,,,,,,return,1.302125,18,0,18,0,1,,,,,,,,,,,,,,,,,,,,,,,,,,,,,,,,,,,,,,,,,,,,,,,,,,,,,,,,,,,,,,,,
,,,,,,,,,,00001472129,2020-10-12_16h02.59.793,swahili,2020.2.4,Win32,60,,,,,,,,,,,,,,,,,,,,,,GRAVE - KABURI,,,,,,,,,,return,2.319785,19,0,19,0,1,,,,,,,,,,,,,,,,,,,,,,,,,,,,,,,,,,,,,,,,,,,,,,,,,,,,,,,,,,,,,,,,
,,,,,,,,,,00001472129,2020-10-12_16h02.59.793,swahili,2020.2.4,Win32,60,,,,,,,,,,,,,,,,,,,,,,,,,,,,,,,,,,,,,,,,0,0,0,0,1,,,,,,,,,,,,,,,,,,,,,,,,,,,,,,,,,,,,,,,,,,,,,,,,,,,,,,,,,,
,,,,,,,,,,00001472129,2020-10-12_16h02.59.793,swahili,2020.2.4,Win32,60,,,,,,,,,,,,,,,,,,,,,,,,,,,,,,,,,,,,,,,,1,0,1,0,1,,,,,,,,,,,,,,,,,,,,,,,,,,,,,,,,,,,,,,,,,,,,,,,,,,,,,,,,,,
,,,,,,,,,,00001472129,2020-10-12_16h02.59.793,swahili,2020.2.4,Win32,60,,,,,,,,,,,,,,,,,,,,,,,,,,,,,,,,,,,,,,,,,,,,,,,,,,,,,,,,,,,,,,1,0,1,0,1,,,,,,,,,,,,,,,,,,,,,,,,,,,,,,,,,,,,
,,,,,,,,,,00001472129,2020-10-12_16h02.59.793,swahili,2020.2.4,Win32,60,,,,,,,,,,-0.1375,-0.057407407,1,0,0,1.488535,unsorted_card,0,0,0,0,1,,,,,,,,,,,,,,,,,,,,,,,,,,,,,,,,,,,,,,,,,,,,,,,,,,,,,,,,,,,,,,,,,,,,,,,,,,,,,,,,,
,,,,,,,,,,00001472129,2020-10-12_16h02.59.793,swahili,2020.2.4,Win32,60,,,,,,,,,,0.458333333,-0.092592593,1,0,0,0.449025,test_pile,1,0,1,0,1,MERCHANT - TAJIRI,,,,,,,,,,,,,,,,,,,,,,,,,,,,,,,,,,,,,,,,,,,,,,,,,,,,,,,,,,,,,,,,,,,,,,,,,,,,,,,,
,,,,,,,,,,00001472129,2020-10-12_16h02.59.793,swahili,2020.2.4,Win32,60,,,,,,,,,,-0.119791667,-0.090740741,1,0,0,0.382735,unsorted_card,2,0,2,0,1,,,,,,,,,,,,,,,,,,,,,,,,,,,,,,,,,,,,,,,,,,,,,,,,,,,,,,,,,,,,,,,,,,,,,,,,,,,,,,,,,
,,,,,,,,,,00001472129,2020-10-12_16h02.59.793,swahili,2020.2.4,Win32,60,,,,,,,,,,0.464583333,-0.024074074,1,0,0,0.415185,test_pile,3,0,3,0,1,PARROT - KASUKU,,,,,,,,,,,,,,,,,,,,,,,,,,,,,,,,,,,,,,,,,,,,,,,,,,,,,,,,,,,,,,,,,,,,,,,,,,,,,,,,
,,,,,,,,,,00001472129,2020-10-12_16h02.59.793,swahili,2020.2.4,Win32,60,,,,,,,,,,-0.145833333,-0.018518519,1,0,0,0.429865,unsorted_card,4,0,4,0,1,,,,,,,,,,,,,,,,,,,,,,,,,,,,,,,,,,,,,,,,,,,,,,,,,,,,,,,,,,,,,,,,,,,,,,,,,,,,,,,,,
,,,,,,,,,,00001472129,2020-10-12_16h02.59.793,swahili,2020.2.4,Win32,60,,,,,,,,,,0.429166667,-0.031481481,1,0,0,0.380815,test_pile,5,0,5,0,1,BULL - FAHILI,,,,,,,,,,,,,,,,,,,,,,,,,,,,,,,,,,,,,,,,,,,,,,,,,,,,,,,,,,,,,,,,,,,,,,,,,,,,,,,,
,,,,,,,,,,00001472129,2020-10-12_16h02.59.793,swahili,2020.2.4,Win32,60,,,,,,,,,,-0.191666667,-0.016666667,1,0,0,0.386,unsorted_card,6,0,6,0,1,,,,,,,,,,,,,,,,,,,,,,,,,,,,,,,,,,,,,,,,,,,,,,,,,,,,,,,,,,,,,,,,,,,,,,,,,,,,,,,,,
,,,,,,,,,,00001472129,2020-10-12_16h02.59.793,swahili,2020.2.4,Win32,60,,,,,,,,,,0.413541667,-0.05,1,0,0,0.37994,test_pile,7,0,7,0,1,PLATE - SAHANI,,,,,,,,,,,,,,,,,,,,,,,,,,,,,,,,,,,,,,,,,,,,,,,,,,,,,,,,,,,,,,,,,,,,,,,,,,,,,,,,
,,,,,,,,,,00001472129,2020-10-12_16h02.59.793,swahili,2020.2.4,Win32,60,,,,,,,,,,-0.117708333,-0.051851852,1,0,0,0.334685,unsorted_card,8,0,8,0,1,,,,,,,,,,,,,,,,,,,,,,,,,,,,,,,,,,,,,,,,,,,,,,,,,,,,,,,,,,,,,,,,,,,,,,,,,,,,,,,,,
,,,,,,,,,,00001472129,2020-10-12_16h02.59.793,swahili,2020.2.4,Win32,60,,,,,,,,,,0.397916667,-0.044444444,1,0,0,0.4128,test_pile,9,0,9,0,1,YEAST - HAMIRA,,,,,,,,,,,,,,,,,,,,,,,,,,,,,,,,,,,,,,,,,,,,,,,,,,,,,,,,,,,,,,,,,,,,,,,,,,,,,,,,
,,,,,,,,,,00001472129,2020-10-12_16h02.59.793,swahili,2020.2.4,Win32,60,,,,,,,,,,-0.160416667,0.022222222,1,0,0,0.404215,unsorted_card,10,0,10,0,1,,,,,,,,,,,,,,,,,,,,,,,,,,,,,,,,,,,,,,,,,,,,,,,,,,,,,,,,,,,,,,,,,,,,,,,,,,,,,,,,,
,,,,,,,,,,00001472129,2020-10-12_16h02.59.793,swahili,2020.2.4,Win32,60,,,,,,,,,,0.461458333,-0.009259259,1,0,0,0.39478,test_pile,11,0,11,0,1,BLAME - LAWAMA,,,,,,,,,,,,,,,,,,,,,,,,,,,,,,,,,,,,,,,,,,,,,,,,,,,,,,,,,,,,,,,,,,,,,,,,,,,,,,,,
,,,,,,,,,,00001472129,2020-10-12_16h02.59.793,swahili,2020.2.4,Win32,60,,,,,,,,,,-0.057291667,0.005555556,1,0,0,0.368175,unsorted_card,12,0,12,0,1,,,,,,,,,,,,,,,,,,,,,,,,,,,,,,,,,,,,,,,,,,,,,,,,,,,,,,,,,,,,,,,,,,,,,,,,,,,,,,,,,
,,,,,,,,,,00001472129,2020-10-12_16h02.59.793,swahili,2020.2.4,Win32,60,,,,,,,,,,0.359375,-0.127777778,1,0,0,0.4461,test_pile,13,0,13,0,1,OATH - YAMINI,,,,,,,,,,,,,,,,,,,,,,,,,,,,,,,,,,,,,,,,,,,,,,,,,,,,,,,,,,,,,,,,,,,,,,,,,,,,,,,,
,,,,,,,,,,00001472129,2020-10-12_16h02.59.793,swahili,2020.2.4,Win32,60,,,,,,,,,,-0.066666667,-0.001851852,1,0,0,0.434085,unsorted_card,14,0,14,0,1,,,,,,,,,,,,,,,,,,,,,,,,,,,,,,,,,,,,,,,,,,,,,,,,,,,,,,,,,,,,,,,,,,,,,,,,,,,,,,,,,
,,,,,,,,,,00001472129,2020-10-12_16h02.59.793,swahili,2020.2.4,Win32,60,,,,,,,,,,0.420833333,-0.094444444,1,0,0,0.462455,test_pile,15,0,15,0,1,CORN - NAFAKA,,,,,,,,,,,,,,,,,,,,,,,,,,,,,,,,,,,,,,,,,,,,,,,,,,,,,,,,,,,,,,,,,,,,,,,,,,,,,,,,
,,,,,,,,,,00001472129,2020-10-12_16h02.59.793,swahili,2020.2.4,Win32,60,,,,,,,,,,-0.161458333,-0.009259259,1,0,0,0.43195,unsorted_card,16,0,16,0,1,,,,,,,,,,,,,,,,,,,,,,,,,,,,,,,,,,,,,,,,,,,,,,,,,,,,,,,,,,,,,,,,,,,,,,,,,,,,,,,,,
,,,,,,,,,,00001472129,2020-10-12_16h02.59.793,swahili,2020.2.4,Win32,60,,,,,,,,,,0.391666667,0.05,1,0,0,0.42996,test_pile,17,0,17,0,1,POEM - UTENZI,,,,,,,,,,,,,,,,,,,,,,,,,,,,,,,,,,,,,,,,,,,,,,,,,,,,,,,,,,,,,,,,,,,,,,,,,,,,,,,,
,,,,,,,,,,00001472129,2020-10-12_16h02.59.793,swahili,2020.2.4,Win32,60,,,,,,,,,,-0.269791667,0.051851852,1,0,0,0.38231,unsorted_card,18,0,18,0,1,,,,,,,,,,,,,,,,,,,,,,,,,,,,,,,,,,,,,,,,,,,,,,,,,,,,,,,,,,,,,,,,,,,,,,,,,,,,,,,,,
,,,,,,,,,,00001472129,2020-10-12_16h02.59.793,swahili,2020.2.4,Win32,60,,,,,,,,,,0.402083333,-0.009259259,1,0,0,0.43406,test_pile,19,0,19,0,1,TAILOR - MSHONI,,,,,,,,,,,,,,,,,,,,,,,,,,,,,,,,,,,,,,,,,,,,,,,,,,,,,,,,,,,,,,,,,,,,,,,,,,,,,,,,
,,,,,,,,,,00001472129,2020-10-12_16h02.59.793,swahili,2020.2.4,Win32,60,,,,,,,,,,-0.236458333,0.027777778,1,0,0,0.448435,unsorted_card,20,0,20,0,1,,,,,,,,,,,,,,,,,,,,,,,,,,,,,,,,,,,,,,,,,,,,,,,,,,,,,,,,,,,,,,,,,,,,,,,,,,,,,,,,,
,,,,,,,,,,00001472129,2020-10-12_16h02.59.793,swahili,2020.2.4,Win32,60,,,,,,,,,,0.411458333,-0.024074074,1,0,0,0.448455,test_pile,21,0,21,0,1,CHEESE - JIBINI,,,,,,,,,,,,,,,,,,,,,,,,,,,,,,,,,,,,,,,,,,,,,,,,,,,,,,,,,,,,,,,,,,,,,,,,,,,,,,,,
,,,,,,,,,,00001472129,2020-10-12_16h02.59.793,swahili,2020.2.4,Win32,60,,,,,,,,,,-0.255208333,0.016666667,1,0,0,0.41541,unsorted_card,22,0,22,0,1,,,,,,,,,,,,,,,,,,,,,,,,,,,,,,,,,,,,,,,,,,,,,,,,,,,,,,,,,,,,,,,,,,,,,,,,,,,,,,,,,
,,,,,,,,,,00001472129,2020-10-12_16h02.59.793,swahili,2020.2.4,Win32,60,,,,,,,,,,0.467708333,0.02962963,1,0,0,0.850185,test_pile,23,0,23,0,1,GRAPES - ZABIBU,,,,,,,,,,,,,,,,,,,,,,,,,,,,,,,,,,,,,,,,,,,,,,,,,,,,,,,,,,,,,,,,,,,,,,,,,,,,,,,,
,,,,,,,,,,00001472129,2020-10-12_16h02.59.793,swahili,2020.2.4,Win32,60,,,,,,,,,,-0.029166667,0.001851852,1,0,0,0.650705,unsorted_card,24,0,24,0,1,,,,,,,,,,,,,,,,,,,,,,,,,,,,,,,,,,,,,,,,,,,,,,,,,,,,,,,,,,,,,,,,,,,,,,,,,,,,,,,,,
,,,,,,,,,,00001472129,2020-10-12_16h02.59.793,swahili,2020.2.4,Win32,60,,,,,,,,,,0.505208333,-0.07037037,1,0,0,0.41521,test_pile,25,0,25,0,1,GRAVE - KABURI,,,,,,,,,,,,,,,,,,,,,,,,,,,,,,,,,,,,,,,,,,,,,,,,,,,,,,,,,,,,,,,,,,,,,,,,,,,,,,,,
,,,,,,,,,,00001472129,2020-10-12_16h02.59.793,swahili,2020.2.4,Win32,60,,,,,,,,,,-0.1125,-0.027777778,1,0,0,0.41599,unsorted_card,26,0,26,0,1,,,,,,,,,,,,,,,,,,,,,,,,,,,,,,,,,,,,,,,,,,,,,,,,,,,,,,,,,,,,,,,,,,,,,,,,,,,,,,,,,
,,,,,,,,,,00001472129,2020-10-12_16h02.59.793,swahili,2020.2.4,Win32,60,,,,,,,,,,0.439583333,-0.055555556,1,0,0,0.39861,test_pile,27,0,27,0,1,MANURE - SAMADI,,,,,,,,,,,,,,,,,,,,,,,,,,,,,,,,,,,,,,,,,,,,,,,,,,,,,,,,,,,,,,,,,,,,,,,,,,,,,,,,
,,,,,,,,,,00001472129,2020-10-12_16h02.59.793,swahili,2020.2.4,Win32,60,,,,,,,,,,-0.098958333,-0.038888889,1,0,0,0.449005,unsorted_card,28,0,28,0,1,,,,,,,,,,,,,,,,,,,,,,,,,,,,,,,,,,,,,,,,,,,,,,,,,,,,,,,,,,,,,,,,,,,,,,,,,,,,,,,,,
,,,,,,,,,,00001472129,2020-10-12_16h02.59.793,swahili,2020.2.4,Win32,60,,,,,,,,,,0.596875,0.046296296,1,0,0,0.41637,test_pile,29,0,29,0,1,AGENT - WAKILI,,,,,,,,,,,,,,,,,,,,,,,,,,,,,,,,,,,,,,,,,,,,,,,,,,,,,,,,,,,,,,,,,,,,,,,,,,,,,,,,
,,,,,,,,,,00001472129,2020-10-12_16h02.59.793,swahili,2020.2.4,Win32,60,,,,,,,,,,-0.247916667,-0.077777778,1,0,0,0.444615,unsorted_card,30,0,30,0,1,,,,,,,,,,,,,,,,,,,,,,,,,,,,,,,,,,,,,,,,,,,,,,,,,,,,,,,,,,,,,,,,,,,,,,,,,,,,,,,,,
,,,,,,,,,,00001472129,2020-10-12_16h02.59.793,swahili,2020.2.4,Win32,60,,,,,,,,,,0.435416667,-0.051851852,1,0,0,0.448385,test_pile,31,0,31,0,1,BRIBE - RUSHWA,,,,,,,,,,,,,,,,,,,,,,,,,,,,,,,,,,,,,,,,,,,,,,,,,,,,,,,,,,,,,,,,,,,,,,,,,,,,,,,,
,,,,,,,,,,00001472129,2020-10-12_16h02.59.793,swahili,2020.2.4,Win32,60,,,,,,,,,,-0.219791667,-0.092592593,1,0,0,0.381515,unsorted_card,32,0,32,0,1,,,,,,,,,,,,,,,,,,,,,,,,,,,,,,,,,,,,,,,,,,,,,,,,,,,,,,,,,,,,,,,,,,,,,,,,,,,,,,,,,
,,,,,,,,,,00001472129,2020-10-12_16h02.59.793,swahili,2020.2.4,Win32,60,,,,,,,,,,0.454166667,-0.005555556,1,0,0,0.41492,test_pile,33,0,33,0,1,ORPHAN - YATIMA,,,,,,,,,,,,,,,,,,,,,,,,,,,,,,,,,,,,,,,,,,,,,,,,,,,,,,,,,,,,,,,,,,,,,,,,,,,,,,,,
,,,,,,,,,,00001472129,2020-10-12_16h02.59.793,swahili,2020.2.4,Win32,60,,,,,,,,,,-0.257291667,-0.098148148,1,0,0,0.36997,unsorted_card,34,0,34,0,1,,,,,,,,,,,,,,,,,,,,,,,,,,,,,,,,,,,,,,,,,,,,,,,,,,,,,,,,,,,,,,,,,,,,,,,,,,,,,,,,,
,,,,,,,,,,00001472129,2020-10-12_16h02.59.793,swahili,2020.2.4,Win32,60,,,,,,,,,,0.439583333,-0.038888889,1,0,0,0.41718,test_pile,35,0,35,0,1,DIVORCE - TALAKA,,,,,,,,,,,,,,,,,,,,,,,,,,,,,,,,,,,,,,,,,,,,,,,,,,,,,,,,,,,,,,,,,,,,,,,,,,,,,,,,
,,,,,,,,,,00001472129,2020-10-12_16h02.59.793,swahili,2020.2.4,Win32,60,,,,,,,,,,-0.2625,-0.066666667,1,0,0,0.314845,unsorted_card,36,0,36,0,1,,,,,,,,,,,,,,,,,,,,,,,,,,,,,,,,,,,,,,,,,,,,,,,,,,,,,,,,,,,,,,,,,,,,,,,,,,,,,,,,,
,,,,,,,,,,00001472129,2020-10-12_16h02.59.793,swahili,2020.2.4,Win32,60,,,,,,,,,,0.35625,-0.009259259,1,0,0,0.376165,test_pile,37,0,37,0,1,BOAT - MASHUA,,,,,,,,,,,,,,,,,,,,,,,,,,,,,,,,,,,,,,,,,,,,,,,,,,,,,,,,,,,,,,,,,,,,,,,,,,,,,,,,
,,,,,,,,,,00001472129,2020-10-12_16h02.59.793,swahili,2020.2.4,Win32,60,,,,,,,,,,-0.233333333,-0.031481481,1,0,0,0.30578,unsorted_card,38,0,38,0,1,,,,,,,,,,,,,,,,,,,,,,,,,,,,,,,,,,,,,,,,,,,,,,,,,,,,,,,,,,,,,,,,,,,,,,,,,,,,,,,,,
,,,,,,,,,,00001472129,2020-10-12_16h02.59.793,swahili,2020.2.4,Win32,60,,,,,,,,,,0.371875,-0.005555556,1,0,0,0.34294,test_pile,39,0,39,0,1,TREASURE - DAFINA,,,,,,,,,,,,,,,,,,,,,,,,,,,,,,,,,,,,,,,,,,,,,,,,,,,,,,,,,,,,,,,,,,,,,,,,,,,,,,,,
,,,,,,,,,,00001472129,2020-10-12_16h02.59.793,swahili,2020.2.4,Win32,60,,,,,,,,,,,,,,,,,,,,,,,,,,,,,,,,,,0,0,0,0,1,,,,,,,,,,,,,,,,,,,,,,,,,,,,,,,,,,,,,,,,,,,,,,,,,,,,,,,,,,,,,,,,
,,,,,,,,,,00001472129,2020-10-12_16h02.59.793,swahili,2020.2.4,Win32,60,,,,,,,,,,,,,,,,,,,,,,,,,,,,,,,,,,,,,,,return,,,,,,1.20297,5.39735,0.430208333,-0.037037037,1,0,0,2.333285,yes,YEAST,OMRA,incorrect,0,0,0,0,1,,,,,,,,,,,,,,,,,,,,,,,,,,,,,,,,,,,,,,,,,
,,,,,,,,,,00001472129,2020-10-12_16h02.59.793,swahili,2020.2.4,Win32,60,,,,,,,,,,,,,,,,,,,,,,,,,,,,,,,,,,,,,,,,,,,,,,8.36886,0.430208333,-0.037037037,1,0,0,1.00032,yes,BOAT,MANJURA,incorrect,1,0,1,0,1,,,,,,,,,,,,,,,,,,,,,,,,,,,,,,,,,,,,,,,,,
,,,,,,,,,,00001472129,2020-10-12_16h02.59.793,swahili,2020.2.4,Win32,60,,,,,,,,,,,,,,,,,,,,,,,,,,,,,,,,,,,,,,,,,,,,,,5.38173,0.430208333,-0.037037037,1,0,0,1.16707,yes,BRIBE,OSHWI,incorrect,2,0,2,0,1,,,,,,,,,,,,,,,,,,,,,,,,,,,,,,,,,,,,,,,,,
,,,,,,,,,,00001472129,2020-10-12_16h02.59.793,swahili,2020.2.4,Win32,60,,,,,,,,,,,,,,,,,,,,,,,,,,,,,,,,,,,,,,,,,,,,,,6.435355,0.430208333,-0.037037037,1,0,0,1.184085,yes,CHEESE,JIBIBI,incorrect,3,0,3,0,1,,,,,,,,,,,,,,,,,,,,,,,,,,,,,,,,,,,,,,,,,
,,,,,,,,,,00001472129,2020-10-12_16h02.59.793,swahili,2020.2.4,Win32,60,,,,,,,,,,,,,,,,,,,,,,,,,,,,,,,,,,,,,,,,,,,,,,3.76683,0.430208333,-0.037037037,1,0,0,1.150655,yes,AGENT,WAKILI,incorrect,4,0,4,0,1,,,,,,,,,,,,,,,,,,,,,,,,,,,,,,,,,,,,,,,,,
,,,,,,,,,,00001472129,2020-10-12_16h02.59.793,swahili,2020.2.4,Win32,60,,,,,,,,,,,,,,,,,,,,,,,,,,,,,,,,,,,,,,,,,,,,,,31.27998,0.430208333,-0.037037037,1,0,0,1.24564,yes,OATH,OMARA,incorrect,5,0,5,0,1,,,,,,,,,,,,,,,,,,,,,,,,,,,,,,,,,,,,,,,,,
,,,,,,,,,,00001472129,2020-10-12_16h02.59.793,swahili,2020.2.4,Win32,60,,,,,,,,,,,,,,,,,,,,,,,,,,,,,,,,,,,,,,,,,,,,,,4.749895,0.475,0.075925926,1,0,0,1.200415,yes,MERCHANT,TAJIRI,incorrect,6,0,6,0,1,,,,,,,,,,,,,,,,,,,,,,,,,,,,,,,,,,,,,,,,,
,,,,,,,,,,00001472129,2020-10-12_16h02.59.793,swahili,2020.2.4,Win32,60,,,,,,,,,,,,,,,,,,,,,,,,,,,,,,,,,,,,,,,,,,,,,,6.88503,0.475,0.075925926,1,0,0,0.95026,yes,DIVORCE,TRAJI,incorrect,7,0,7,0,1,,,,,,,,,,,,,,,,,,,,,,,,,,,,,,,,,,,,,,,,,
,,,,,,,,,,00001472129,2020-10-12_16h02.59.793,swahili,2020.2.4,Win32,60,,,,,,,,,,,,,,,,,,,,,,,,,,,,,,,,,,,,,,,,,,,,,,5.435275,0.475,0.075925926,1,0,0,1.117995,yes,PARROT,KUMUSKU,incorrect,8,0,8,0,1,,,,,,,,,,,,,,,,,,,,,,,,,,,,,,,,,,,,,,,,,
,,,,,,,,,,00001472129,2020-10-12_16h02.59.793,swahili,2020.2.4,Win32,60,,,,,,,,,,,,,,,,,,,,,,,,,,,,,,,,,,,,,,,,,,,,,,14.712775,0.475,0.075925926,1,0,0,1.06867,yes,TAILOR,MSHOWI,incorrect,9,0,9,0,1,,,,,,,,,,,,,,,,,,,,,,,,,,,,,,,,,,,,,,,,,
,,,,,,,,,,00001472129,2020-10-12_16h02.59.793,swahili,2020.2.4,Win32,60,,,,,,,,,,,,,,,,,,,,,,,,,,,,,,,,,,,,,,,,,,,,,,2.88258,0.475,0.083333333,1,0,0,0.88422,yes,BULL,FAHILI,incorrect,10,0,10,0,1,,,,,,,,,,,,,,,,,,,,,,,,,,,,,,,,,,,,,,,,,
,,,,,,,,,,00001472129,2020-10-12_16h02.59.793,swahili,2020.2.4,Win32,60,,,,,,,,,,,,,,,,,,,,,,,,,,,,,,,,,,,,,,,,,,,,,,15.08032,0.475,0.083333333,1,0,0,1.168575,yes,GRAPES,RUSUKU,incorrect,11,0,11,0,1,,,,,,,,,,,,,,,,,,,,,,,,,,,,,,,,,,,,,,,,,
,,,,,,,,,,00001472129,2020-10-12_16h02.59.793,swahili,2020.2.4,Win32,60,,,,,,,,,,,,,,,,,,,,,,,,,,,,,,,,,,,,,,,,,,,,,,9.784645,0.475,0.083333333,1,0,0,0.866845,yes,BLAME,TRIBU,incorrect,12,0,12,0,1,,,,,,,,,,,,,,,,,,,,,,,,,,,,,,,,,,,,,,,,,
,,,,,,,,,,00001472129,2020-10-12_16h02.59.793,swahili,2020.2.4,Win32,60,,,,,,,,,,,,,,,,,,,,,,,,,,,,,,,,,,,,,,,,,,,,,,10.818245,0.475,0.085185185,1,0,0,0.950565,yes,GRAVE,GRUNA,incorrect,13,0,13,0,1,,,,,,,,,,,,,,,,,,,,,,,,,,,,,,,,,,,,,,,,,
,,,,,,,,,,00001472129,2020-10-12_16h02.59.793,swahili,2020.2.4,Win32,60,,,,,,,,,,,,,,,,,,,,,,,,,,,,,,,,,,,,,,,,,,,,,,4.400935,0.475,0.085185185,1,0,0,2.80393,yes,CORN,NAMAKU,incorrect,14,0,14,0,1,,,,,,,,,,,,,,,,,,,,,,,,,,,,,,,,,,,,,,,,,
,,,,,,,,,,00001472129,2020-10-12_16h02.59.793,swahili,2020.2.4,Win32,60,,,,,,,,,,,,,,,,,,,,,,,,,,,,,,,,,,,,,,,,,,,,,,7.87324,0.475,0.085185185,1,0,0,1.301225,yes,POEM,UTENZI,incorrect,15,0,15,0,1,,,,,,,,,,,,,,,,,,,,,,,,,,,,,,,,,,,,,,,,,
,,,,,,,,,,00001472129,2020-10-12_16h02.59.793,swahili,2020.2.4,Win32,60,,,,,,,,,,,,,,,,,,,,,,,,,,,,,,,,,,,,,,,,,,,,,,9.542095,0.475,0.085185185,1,0,0,0.800395,yes,MANURE,MANUZI,incorrect,16,0,16,0,1,,,,,,,,,,,,,,,,,,,,,,,,,,,,,,,,,,,,,,,,,
,,,,,,,,,,00001472129,2020-10-12_16h02.59.793,swahili,2020.2.4,Win32,60,,,,,,,,,,,,,,,,,,,,,,,,,,,,,,,,,,,,,,,,,,,,,,8.10071,0.475,0.085185185,1,0,0,0.95014,yes,TREASURE,IFINA,incorrect,17,0,17,0,1,,,,,,,,,,,,,,,,,,,,,,,,,,,,,,,,,,,,,,,,,
,,,,,,,,,,00001472129,2020-10-12_16h02.59.793,swahili,2020.2.4,Win32,60,,,,,,,,,,,,,,,,,,,,,,,,,,,,,,,,,,,,,,,,,,,,,,5.85132,0.475,0.085185185,0,0,1,0.87003,yes,PLATE,PLATE,correct,18,0,18,0,1,,,,,,,,,,,,,,,,,,,,,,,,,,,,,,,,,,,,,,,,,
,,,,,,,,,,00001472129,2020-10-12_16h02.59.793,swahili,2020.2.4,Win32,60,,,,,,,,,,,,,,,,,,,,,,,,,,,,,,,,,,,,,,,,,,,,,,8.7694,0.254166667,-0.02962963,1,0,0,0.850865,yes,ORPHAN,SAMIRI,incorrect,19,0,19,0,1,,,,,,,,,,,,,,,,,,,,,,,,,,,,,,,,,,,,,,,,,
,,,,,,,,,,00001472129,2020-10-12_16h02.59.793,swahili,2020.2.4,Win32,60,,,,,,,,,,,,,,,,,,,,,,,,,,,,,,,,,,,,,,,,0,0,0,0,1,,,,,,,,,,,,,,,,,,,,,,,,,,,,,,,,,,,,,,,,,,,,,,,,,,,,,,,,,,
,,,,,,,,,,00001472129,2020-10-12_16h02.59.793,swahili,2020.2.4,Win32,60,,,,,,,,,,,,,,,,,,,,,,,,,,,,,,,,,,,,,,,,1,0,1,0,1,,,,,,,,,,,,,,,,,,,,,,,,,,,,,,,,,,,,,,,,,,,,,,,,,,,,,,,,,,
,,,,,,,,,,00001472129,2020-10-12_16h02.59.793,swahili,2020.2.4,Win32,60,,,,,,,,,,,,,,,,,,,,,,,,,,,,,,,,,,,,,,,,,,,,,,,,,,,,,,,,,,,,,,2,0,2,0,1,,,,,,,,,,,,,,,,,,,,,,,,,,,,,,,,,,,,
,,,,,,,,,,00001472129,2020-10-12_16h02.59.793,swahili,2020.2.4,Win32,60,,,,,,,,,,-0.080208333,-0.011111111,1,0,0,1.32542,unsorted_card,0,0,0,0,1,,,,,,,,,,,,,,,,,,,,,,,,,,,,,,,,,,,,,,,,,,,,,,,,,,,,,,,,,,,,,,,,,,,,,,,,,,,,,,,,,
,,,,,,,,,,00001472129,2020-10-12_16h02.59.793,swahili,2020.2.4,Win32,60,,,,,,,,,,0.441666667,0.085185185,1,0,0,1.921585,test_pile,1,0,1,0,1,MERCHANT - TAJIRI,,,,,,,,,,,,,,,,,,,,,,,,,,,,,,,,,,,,,,,,,,,,,,,,,,,,,,,,,,,,,,,,,,,,,,,,,,,,,,,,
,,,,,,,,,,00001472129,2020-10-12_16h02.59.793,swahili,2020.2.4,Win32,60,,,,,,,,,,-0.18125,0.151851852,1,0,0,0.440355,unsorted_card,2,0,2,0,1,,,,,,,,,,,,,,,,,,,,,,,,,,,,,,,,,,,,,,,,,,,,,,,,,,,,,,,,,,,,,,,,,,,,,,,,,,,,,,,,,
,,,,,,,,,,00001472129,2020-10-12_16h02.59.793,swahili,2020.2.4,Win32,60,,,,,,,,,,0.372916667,-0.005555556,1,0,0,1.67548,test_pile,3,0,3,0,1,PARROT - KASUKU,,,,,,,,,,,,,,,,,,,,,,,,,,,,,,,,,,,,,,,,,,,,,,,,,,,,,,,,,,,,,,,,,,,,,,,,,,,,,,,,
,,,,,,,,,,00001472129,2020-10-12_16h02.59.793,swahili,2020.2.4,Win32,60,,,,,,,,,,-0.1,-0.061111111,1,0,0,0.65629,unsorted_card,4,0,4,0,1,,,,,,,,,,,,,,,,,,,,,,,,,,,,,,,,,,,,,,,,,,,,,,,,,,,,,,,,,,,,,,,,,,,,,,,,,,,,,,,,,
,,,,,,,,,,00001472129,2020-10-12_16h02.59.793,swahili,2020.2.4,Win32,60,,,,,,,,,,0.426041667,0.022222222,1,0,0,1.179805,test_pile,5,0,5,0,1,BULL - FAHILI,,,,,,,,,,,,,,,,,,,,,,,,,,,,,,,,,,,,,,,,,,,,,,,,,,,,,,,,,,,,,,,,,,,,,,,,,,,,,,,,
,,,,,,,,,,00001472129,2020-10-12_16h02.59.793,swahili,2020.2.4,Win32,60,,,,,,,,,,-0.261458333,-0.061111111,1,0,0,0.619485,unsorted_card,6,0,6,0,1,,,,,,,,,,,,,,,,,,,,,,,,,,,,,,,,,,,,,,,,,,,,,,,,,,,,,,,,,,,,,,,,,,,,,,,,,,,,,,,,,
,,,,,,,,,,00001472129,2020-10-12_16h02.59.793,swahili,2020.2.4,Win32,60,,,,,,,,,,0.417708333,0.538888889,1,0,0,1.14895,study_pile,7,0,7,0,1,PLATE - SAHANI,,,,,,,,,,,,,,,,,,,,,,,,,,,,,,,,,,,,,,,,,,,,,,,,,,,,,,,,,,,,,,,,,,,,,,,,,,,,,,,,
,,,,,,,,,,00001472129,2020-10-12_16h02.59.793,swahili,2020.2.4,Win32,60,,,,,,,,,,-0.358333333,-0.075925926,1,0,0,0.515635,unsorted_card,8,0,8,0,1,,,,,,,,,,,,,,,,,,,,,,,,,,,,,,,,,,,,,,,,,,,,,,,,,,,,,,,,,,,,,,,,,,,,,,,,,,,,,,,,,
,,,,,,,,,,00001472129,2020-10-12_16h02.59.793,swahili,2020.2.4,Win32,60,,,,,,,,,,0.417708333,0.444444444,1,0,0,1.49916,study_pile,9,0,9,0,1,YEAST - HAMIRA,,,,,,,,,,,,,,,,,,,,,,,,,,,,,,,,,,,,,,,,,,,,,,,,,,,,,,,,,,,,,,,,,,,,,,,,,,,,,,,,
,,,,,,,,,,00001472129,2020-10-12_16h02.59.793,swahili,2020.2.4,Win32,60,,,,,,,,,,-0.410416667,-0.024074074,1,0,0,0.51538,unsorted_card,10,0,10,0,1,,,,,,,,,,,,,,,,,,,,,,,,,,,,,,,,,,,,,,,,,,,,,,,,,,,,,,,,,,,,,,,,,,,,,,,,,,,,,,,,,
,,,,,,,,,,00001472129,2020-10-12_16h02.59.793,swahili,2020.2.4,Win32,60,,,,,,,,,,0.557291667,0.546296296,1,0,0,4.23469,study_pile,11,0,11,0,1,BLAME - LAWAMA,,,,,,,,,,,,,,,,,,,,,,,,,,,,,,,,,,,,,,,,,,,,,,,,,,,,,,,,,,,,,,,,,,,,,,,,,,,,,,,,
,,,,,,,,,,00001472129,2020-10-12_16h02.59.793,swahili,2020.2.4,Win32,60,,,,,,,,,,-0.215625,-0.1,1,0,0,0.545455,unsorted_card,12,0,12,0,1,,,,,,,,,,,,,,,,,,,,,,,,,,,,,,,,,,,,,,,,,,,,,,,,,,,,,,,,,,,,,,,,,,,,,,,,,,,,,,,,,
,,,,,,,,,,00001472129,2020-10-12_16h02.59.793,swahili,2020.2.4,Win32,60,,,,,,,,,,0.425,0.018518519,1,0,0,1.100065,test_pile,13,0,13,0,1,OATH - YAMINI,,,,,,,,,,,,,,,,,,,,,,,,,,,,,,,,,,,,,,,,,,,,,,,,,,,,,,,,,,,,,,,,,,,,,,,,,,,,,,,,
,,,,,,,,,,00001472129,2020-10-12_16h02.59.793,swahili,2020.2.4,Win32,60,,,,,,,,,,-0.188541667,-0.094444444,1,0,0,0.550435,unsorted_card,14,0,14,0,1,,,,,,,,,,,,,,,,,,,,,,,,,,,,,,,,,,,,,,,,,,,,,,,,,,,,,,,,,,,,,,,,,,,,,,,,,,,,,,,,,
,,,,,,,,,,00001472129,2020-10-12_16h02.59.793,swahili,2020.2.4,Win32,60,,,,,,,,,,0.390625,-0.037037037,1,0,0,0.898795,test_pile,15,0,15,0,1,CORN - NAFAKA,,,,,,,,,,,,,,,,,,,,,,,,,,,,,,,,,,,,,,,,,,,,,,,,,,,,,,,,,,,,,,,,,,,,,,,,,,,,,,,,
,,,,,,,,,,00001472129,2020-10-12_16h02.59.793,swahili,2020.2.4,Win32,60,,,,,,,,,,-0.269791667,-0.031481481,1,0,0,0.48316,unsorted_card,16,0,16,0,1,,,,,,,,,,,,,,,,,,,,,,,,,,,,,,,,,,,,,,,,,,,,,,,,,,,,,,,,,,,,,,,,,,,,,,,,,,,,,,,,,
,,,,,,,,,,00001472129,2020-10-12_16h02.59.793,swahili,2020.2.4,Win32,60,,,,,,,,,,0.454166667,0.001851852,1,0,0,1.100115,test_pile,17,0,17,0,1,POEM - UTENZI,,,,,,,,,,,,,,,,,,,,,,,,,,,,,,,,,,,,,,,,,,,,,,,,,,,,,,,,,,,,,,,,,,,,,,,,,,,,,,,,
,,,,,,,,,,00001472129,2020-10-12_16h02.59.793,swahili,2020.2.4,Win32,60,,,,,,,,,,-0.16875,0.066666667,1,0,0,0.48497,unsorted_card,18,0,18,0,1,,,,,,,,,,,,,,,,,,,,,,,,,,,,,,,,,,,,,,,,,,,,,,,,,,,,,,,,,,,,,,,,,,,,,,,,,,,,,,,,,
,,,,,,,,,,00001472129,2020-10-12_16h02.59.793,swahili,2020.2.4,Win32,60,,,,,,,,,,0.425,0.114814815,1,0,0,1.1978,test_pile,19,0,19,0,1,TAILOR - MSHONI,,,,,,,,,,,,,,,,,,,,,,,,,,,,,,,,,,,,,,,,,,,,,,,,,,,,,,,,,,,,,,,,,,,,,,,,,,,,,,,,
,,,,,,,,,,00001472129,2020-10-12_16h02.59.793,swahili,2020.2.4,Win32,60,,,,,,,,,,-0.285416667,0.001851852,1,0,0,0.51705,unsorted_card,20,0,20,0,1,,,,,,,,,,,,,,,,,,,,,,,,,,,,,,,,,,,,,,,,,,,,,,,,,,,,,,,,,,,,,,,,,,,,,,,,,,,,,,,,,
,,,,,,,,,,00001472129,2020-10-12_16h02.59.793,swahili,2020.2.4,Win32,60,,,,,,,,,,0.385416667,-0.094444444,1,0,0,0.83058,test_pile,21,0,21,0,1,CHEESE - JIBINI,,,,,,,,,,,,,,,,,,,,,,,,,,,,,,,,,,,,,,,,,,,,,,,,,,,,,,,,,,,,,,,,,,,,,,,,,,,,,,,,
,,,,,,,,,,00001472129,2020-10-12_16h02.59.793,swahili,2020.2.4,Win32,60,,,,,,,,,,-0.33125,-0.094444444,1,0,0,0.39866,unsorted_card,22,0,22,0,1,,,,,,,,,,,,,,,,,,,,,,,,,,,,,,,,,,,,,,,,,,,,,,,,,,,,,,,,,,,,,,,,,,,,,,,,,,,,,,,,,
,,,,,,,,,,00001472129,2020-10-12_16h02.59.793,swahili,2020.2.4,Win32,60,,,,,,,,,,0.432291667,-0.007407407,1,0,0,1.01729,test_pile,23,0,23,0,1,GRAPES - ZABIBU,,,,,,,,,,,,,,,,,,,,,,,,,,,,,,,,,,,,,,,,,,,,,,,,,,,,,,,,,,,,,,,,,,,,,,,,,,,,,,,,
,,,,,,,,,,00001472129,2020-10-12_16h02.59.793,swahili,2020.2.4,Win32,60,,,,,,,,,,-0.173958333,0.142592593,1,0,0,0.516445,unsorted_card,24,0,24,0,1,,,,,,,,,,,,,,,,,,,,,,,,,,,,,,,,,,,,,,,,,,,,,,,,,,,,,,,,,,,,,,,,,,,,,,,,,,,,,,,,,
,,,,,,,,,,00001472129,2020-10-12_16h02.59.793,swahili,2020.2.4,Win32,60,,,,,,,,,,0.472916667,-0.042592593,1,0,0,0.91665,test_pile,25,0,25,0,1,GRAVE - KABURI,,,,,,,,,,,,,,,,,,,,,,,,,,,,,,,,,,,,,,,,,,,,,,,,,,,,,,,,,,,,,,,,,,,,,,,,,,,,,,,,
,,,,,,,,,,00001472129,2020-10-12_16h02.59.793,swahili,2020.2.4,Win32,60,,,,,,,,,,-0.30625,0.051851852,1,0,0,0.584155,unsorted_card,26,0,26,0,1,,,,,,,,,,,,,,,,,,,,,,,,,,,,,,,,,,,,,,,,,,,,,,,,,,,,,,,,,,,,,,,,,,,,,,,,,,,,,,,,,
,,,,,,,,,,00001472129,2020-10-12_16h02.59.793,swahili,2020.2.4,Win32,60,,,,,,,,,,0.46875,-0.009259259,1,0,0,1.40009,test_pile,27,0,27,0,1,MANURE - SAMADI,,,,,,,,,,,,,,,,,,,,,,,,,,,,,,,,,,,,,,,,,,,,,,,,,,,,,,,,,,,,,,,,,,,,,,,,,,,,,,,,
,,,,,,,,,,00001472129,2020-10-12_16h02.59.793,swahili,2020.2.4,Win32,60,,,,,,,,,,-0.295833333,-0.001851852,1,0,0,0.532535,unsorted_card,28,0,28,0,1,,,,,,,,,,,,,,,,,,,,,,,,,,,,,,,,,,,,,,,,,,,,,,,,,,,,,,,,,,,,,,,,,,,,,,,,,,,,,,,,,
,,,,,,,,,,00001472129,2020-10-12_16h02.59.793,swahili,2020.2.4,Win32,60,,,,,,,,,,0.40625,-0.025925926,1,0,0,1.200695,test_pile,29,0,29,0,1,AGENT - WAKILI,,,,,,,,,,,,,,,,,,,,,,,,,,,,,,,,,,,,,,,,,,,,,,,,,,,,,,,,,,,,,,,,,,,,,,,,,,,,,,,,
,,,,,,,,,,00001472129,2020-10-12_16h02.59.793,swahili,2020.2.4,Win32,60,,,,,,,,,,-0.222916667,0.009259259,1,0,0,0.532625,unsorted_card,30,0,30,0,1,,,,,,,,,,,,,,,,,,,,,,,,,,,,,,,,,,,,,,,,,,,,,,,,,,,,,,,,,,,,,,,,,,,,,,,,,,,,,,,,,
,,,,,,,,,,00001472129,2020-10-12_16h02.59.793,swahili,2020.2.4,Win32,60,,,,,,,,,,0.448958333,-0.068518519,1,0,0,1.51723,test_pile,31,0,31,0,1,BRIBE - RUSHWA,,,,,,,,,,,,,,,,,,,,,,,,,,,,,,,,,,,,,,,,,,,,,,,,,,,,,,,,,,,,,,,,,,,,,,,,,,,,,,,,
,,,,,,,,,,00001472129,2020-10-12_16h02.59.793,swahili,2020.2.4,Win32,60,,,,,,,,,,-0.29375,0.111111111,1,0,0,0.49971,unsorted_card,32,0,32,0,1,,,,,,,,,,,,,,,,,,,,,,,,,,,,,,,,,,,,,,,,,,,,,,,,,,,,,,,,,,,,,,,,,,,,,,,,,,,,,,,,,
,,,,,,,,,,00001472129,2020-10-12_16h02.59.793,swahili,2020.2.4,Win32,60,,,,,,,,,,0.416666667,0.087037037,1,0,0,1.33352,test_pile,33,0,33,0,1,ORPHAN - YATIMA,,,,,,,,,,,,,,,,,,,,,,,,,,,,,,,,,,,,,,,,,,,,,,,,,,,,,,,,,,,,,,,,,,,,,,,,,,,,,,,,
,,,,,,,,,,00001472129,2020-10-12_16h02.59.793,swahili,2020.2.4,Win32,60,,,,,,,,,,-0.220833333,0.059259259,1,0,0,0.51532,unsorted_card,34,0,34,0,1,,,,,,,,,,,,,,,,,,,,,,,,,,,,,,,,,,,,,,,,,,,,,,,,,,,,,,,,,,,,,,,,,,,,,,,,,,,,,,,,,
,,,,,,,,,,00001472129,2020-10-12_16h02.59.793,swahili,2020.2.4,Win32,60,,,,,,,,,,0.483333333,0.116666667,1,0,0,1.384975,test_pile,35,0,35,0,1,DIVORCE - TALAKA,,,,,,,,,,,,,,,,,,,,,,,,,,,,,,,,,,,,,,,,,,,,,,,,,,,,,,,,,,,,,,,,,,,,,,,,,,,,,,,,
,,,,,,,,,,00001472129,2020-10-12_16h02.59.793,swahili,2020.2.4,Win32,60,,,,,,,,,,-0.080208333,0.031481481,1,0,0,0.531565,unsorted_card,36,0,36,0,1,,,,,,,,,,,,,,,,,,,,,,,,,,,,,,,,,,,,,,,,,,,,,,,,,,,,,,,,,,,,,,,,,,,,,,,,,,,,,,,,,
,,,,,,,,,,00001472129,2020-10-12_16h02.59.793,swahili,2020.2.4,Win32,60,,,,,,,,,,0.411458333,-0.057407407,1,0,0,1.40026,test_pile,37,0,37,0,1,BOAT - MASHUA,,,,,,,,,,,,,,,,,,,,,,,,,,,,,,,,,,,,,,,,,,,,,,,,,,,,,,,,,,,,,,,,,,,,,,,,,,,,,,,,
,,,,,,,,,,00001472129,2020-10-12_16h02.59.793,swahili,2020.2.4,Win32,60,,,,,,,,,,-0.209375,-0.103703704,1,0,0,0.66891,unsorted_card,38,0,38,0,1,,,,,,,,,,,,,,,,,,,,,,,,,,,,,,,,,,,,,,,,,,,,,,,,,,,,,,,,,,,,,,,,,,,,,,,,,,,,,,,,,
,,,,,,,,,,00001472129,2020-10-12_16h02.59.793,swahili,2020.2.4,Win32,60,,,,,,,,,,0.377083333,0.033333333,1,0,0,1.06599,test_pile,39,0,39,0,1,TREASURE - DAFINA,,,,,,,,,,,,,,,,,,,,,,,,,,,,,,,,,,,,,,,,,,,,,,,,,,,,,,,,,,,,,,,,,,,,,,,,,,,,,,,,
,,,,,,,,,,00001472129,2020-10-12_16h02.59.793,swahili,2020.2.4,Win32,60,,,,,,,,,,,,,,,,,,,,,,YEAST - HAMIRA,-0.477083333,-0.011111111,1,0,0,0.84734,study_first,return,1.602445,return,2.90369,0,0,0,0,1,,,,,,,,,,,,,,,,,,,,,,,,,,,,,,,,,,,,,,,,,,,,,,,,,,,,,,,,,,,,,,,,
,,,,,,,,,,00001472129,2020-10-12_16h02.59.793,swahili,2020.2.4,Win32,60,,,,,,,,,,,,,,,,,,,,,,BLAME - LAWAMA,,,,,,,,,,return,1.23074,1,0,1,0,1,,,,,,,,,,,,,,,,,,,,,,,,,,,,,,,,,,,,,,,,,,,,,,,,,,,,,,,,,,,,,,,,
,,,,,,,,,,00001472129,2020-10-12_16h02.59.793,swahili,2020.2.4,Win32,60,,,,,,,,,,,,,,,,,,,,,,PLATE - SAHANI,,,,,,,,,,return,3.243265,2,0,2,0,1,,,,,,,,,,,,,,,,,,,,,,,,,,,,,,,,,,,,,,,,,,,,,,,,,,,,,,,,,,,,,,,,
,,,,,,,,,,00001472129,2020-10-12_16h02.59.793,swahili,2020.2.4,Win32,60,,,,,,,,,,,,,,,,,,,,,,,,,,,,,,,,,,,,,,,,0,0,0,0,1,,,,,,,,,,,,,,,,,,,,,,,,,,,,,,,,,,,,,,,,,,,,,,,,,,,,,,,,,,
,,,,,,,,,,00001472129,2020-10-12_16h02.59.793,swahili,2020.2.4,Win32,60,,,,,,,,,,,,,,,,,,,,,,,,,,,,,,,,,,0,0,0,0,1,,,,,,,,,,,,,,,,,,,,,,,,,,,,,,,,,,,,,,,,,,,,,,,,,,,,,,,,,,,,,,,,
,,,,,,,,,,00001472129,2020-10-12_16h02.59.793,swahili,2020.2.4,Win32,60,,,,,,,,,,,,,,,,,,,,,,,,,,,,,,,,,,,,,,,return,,,,,,0.50231,2.48161,0.307291667,-0.15,1,0,0,2.01739,yes,BULL,FAHILI,incorrect,0,0,0,0,1,,,,,,,,,,,,,,,,,,,,,,,,,,,,,,,,,,,,,,,,,
,,,,,,,,,,00001472129,2020-10-12_16h02.59.793,swahili,2020.2.4,Win32,60,,,,,,,,,,,,,,,,,,,,,,,,,,,,,,,,,,,,,,,,,,,,,,1.94879,0.307291667,-0.15,1,0,0,1.117335,yes,TREASURE,DAFINA,incorrect,1,0,1,0,1,,,,,,,,,,,,,,,,,,,,,,,,,,,,,,,,,,,,,,,,,
,,,,,,,,,,00001472129,2020-10-12_16h02.59.793,swahili,2020.2.4,Win32,60,,,,,,,,,,,,,,,,,,,,,,,,,,,,,,,,,,,,,,,,,,,,,,6.167755,0.307291667,-0.15,1,0,0,1.633795,yes,GRAPES,KUMUKA,incorrect,2,0,2,0,1,,,,,,,,,,,,,,,,,,,,,,,,,,,,,,,,,,,,,,,,,
,,,,,,,,,,00001472129,2020-10-12_16h02.59.793,swahili,2020.2.4,Win32,60,,,,,,,,,,,,,,,,,,,,,,,,,,,,,,,,,,,,,,,,,,,,,,8.922555,0.307291667,-0.15,1,0,0,0.934005,yes,GRAVE,SAHAMA,incorrect,3,0,3,0,1,,,,,,,,,,,,,,,,,,,,,,,,,,,,,,,,,,,,,,,,,
,,,,,,,,,,00001472129,2020-10-12_16h02.59.793,swahili,2020.2.4,Win32,60,,,,,,,,,,,,,,,,,,,,,,,,,,,,,,,,,,,,,,,,,,,,,,7.60487,0.307291667,-0.15,1,0,0,1.286155,yes,CHEESE,JIBILI,incorrect,4,0,4,0,1,,,,,,,,,,,,,,,,,,,,,,,,,,,,,,,,,,,,,,,,,
,,,,,,,,,,00001472129,2020-10-12_16h02.59.793,swahili,2020.2.4,Win32,60,,,,,,,,,,,,,,,,,,,,,,,,,,,,,,,,,,,,,,,,,,,,,,4.400825,0.307291667,-0.15,1,0,0,1.333675,yes,BOAT,MASHUA,incorrect,5,0,5,0,1,,,,,,,,,,,,,,,,,,,,,,,,,,,,,,,,,,,,,,,,,
,,,,,,,,,,00001472129,2020-10-12_16h02.59.793,swahili,2020.2.4,Win32,60,,,,,,,,,,,,,,,,,,,,,,,,,,,,,,,,,,,,,,,,,,,,,,9.36981,0.307291667,-0.15,1,0,0,0.950145,yes,BRIBE,UTENZI,incorrect,6,0,6,0,1,,,,,,,,,,,,,,,,,,,,,,,,,,,,,,,,,,,,,,,,,
,,,,,,,,,,00001472129,2020-10-12_16h02.59.793,swahili,2020.2.4,Win32,60,,,,,,,,,,,,,,,,,,,,,,,,,,,,,,,,,,,,,,,,,,,,,,5.88252,0.307291667,-0.15,1,0,0,1.200485,yes,ORPHAN,YAHIMI,incorrect,7,0,7,0,1,,,,,,,,,,,,,,,,,,,,,,,,,,,,,,,,,,,,,,,,,
,,,,,,,,,,00001472129,2020-10-12_16h02.59.793,swahili,2020.2.4,Win32,60,,,,,,,,,,,,,,,,,,,,,,,,,,,,,,,,,,,,,,,,,,,,,,8.618155,0.307291667,-0.15,1,0,0,1.016825,yes,MERCHANT,TAJIRI,incorrect,8,0,8,0,1,,,,,,,,,,,,,,,,,,,,,,,,,,,,,,,,,,,,,,,,,
,,,,,,,,,,00001472129,2020-10-12_16h02.59.793,swahili,2020.2.4,Win32,60,,,,,,,,,,,,,,,,,,,,,,,,,,,,,,,,,,,,,,,,,,,,,,3.43094,0.307291667,-0.15,1,0,0,1.10091,yes,TAILOR,MSHONI,incorrect,9,0,9,0,1,,,,,,,,,,,,,,,,,,,,,,,,,,,,,,,,,,,,,,,,,
,,,,,,,,,,00001472129,2020-10-12_16h02.59.793,swahili,2020.2.4,Win32,60,,,,,,,,,,,,,,,,,,,,,,,,,,,,,,,,,,,,,,,,,,,,,,8.50262,0.307291667,-0.15,1,0,0,0.84996,yes,DIVORCE,TAKALA,incorrect,10,0,10,0,1,,,,,,,,,,,,,,,,,,,,,,,,,,,,,,,,,,,,,,,,,
,,,,,,,,,,00001472129,2020-10-12_16h02.59.793,swahili,2020.2.4,Win32,60,,,,,,,,,,,,,,,,,,,,,,,,,,,,,,,,,,,,,,,,,,,,,,2.73336,0.307291667,-0.15,1,0,0,0.85077,yes,AGENT,WAKILI,incorrect,11,0,11,0,1,,,,,,,,,,,,,,,,,,,,,,,,,,,,,,,,,,,,,,,,,
,,,,,,,,,,00001472129,2020-10-12_16h02.59.793,swahili,2020.2.4,Win32,60,,,,,,,,,,,,,,,,,,,,,,,,,,,,,,,,,,,,,,,,,,,,,,2.398175,0.307291667,-0.15,1,0,0,0.866795,yes,POEM,UTENZI,incorrect,12,0,12,0,1,,,,,,,,,,,,,,,,,,,,,,,,,,,,,,,,,,,,,,,,,
,,,,,,,,,,00001472129,2020-10-12_16h02.59.793,swahili,2020.2.4,Win32,60,,,,,,,,,,,,,,,,,,,,,,,,,,,,,,,,,,,,,,,,,,,,,,3.74832,0.307291667,-0.15,1,0,0,1.550925,yes,CORN,NAFAKA,incorrect,13,0,13,0,1,,,,,,,,,,,,,,,,,,,,,,,,,,,,,,,,,,,,,,,,,
,,,,,,,,,,00001472129,2020-10-12_16h02.59.793,swahili,2020.2.4,Win32,60,,,,,,,,,,,,,,,,,,,,,,,,,,,,,,,,,,,,,,,,,,,,,,4.83205,0.307291667,-0.15,1,0,0,1.70114,yes,PARROT,KUMUKU,incorrect,14,0,14,0,1,,,,,,,,,,,,,,,,,,,,,,,,,,,,,,,,,,,,,,,,,
,,,,,,,,,,00001472129,2020-10-12_16h02.59.793,swahili,2020.2.4,Win32,60,,,,,,,,,,,,,,,,,,,,,,,,,,,,,,,,,,,,,,,,,,,,,,15.362075,0.307291667,-0.15,1,0,0,1.08568,yes,OATH,YAMINI,incorrect,15,0,15,0,1,,,,,,,,,,,,,,,,,,,,,,,,,,,,,,,,,,,,,,,,,
,,,,,,,,,,00001472129,2020-10-12_16h02.59.793,swahili,2020.2.4,Win32,60,,,,,,,,,,,,,,,,,,,,,,,,,,,,,,,,,,,,,,,,,,,,,,3.169625,0.307291667,-0.15,1,0,0,1.083985,yes,MANURE,ROSHWA,incorrect,16,0,16,0,1,,,,,,,,,,,,,,,,,,,,,,,,,,,,,,,,,,,,,,,,,
,,,,,,,,,,00001472129,2020-10-12_16h02.59.793,swahili,2020.2.4,Win32,60,,,,,,,,,,,,,,,,,,,,,,,,,,,,,,,,,,,,,,,,1,0,1,0,1,,,,,,,,,,,,,,,,,,,,,,,,,,,,,,,,,,,,,,,,,,,,,,,,,,,,,,,,,,
,,,,,,,,,,00001472129,2020-10-12_16h02.59.793,swahili,2020.2.4,Win32,60,,,,,,,,,,,,,,,,,,,,,,,,,,,,,,,,,,,,,,,,,,,,,,,,,,,,,,,,,,,,,,3,0,3,0,1,,,,,,,,,,,,,,,,,,,,,,,,,,,,,,,,,,,,
,,,,,,,,,,00001472129,2020-10-12_16h02.59.793,swahili,2020.2.4,Win32,60,,,,,,,,,,-0.164583333,-0.044444444,1,0,0,1.624205,unsorted_card,0,0,0,0,1,,,,,,,,,,,,,,,,,,,,,,,,,,,,,,,,,,,,,,,,,,,,,,,,,,,,,,,,,,,,,,,,,,,,,,,,,,,,,,,,,
,,,,,,,,,,00001472129,2020-10-12_16h02.59.793,swahili,2020.2.4,Win32,60,,,,,,,,,,0.45625,-0.064814815,1,0,0,1.750165,test_pile,1,0,1,0,1,MERCHANT - TAJIRI,,,,,,,,,,,,,,,,,,,,,,,,,,,,,,,,,,,,,,,,,,,,,,,,,,,,,,,,,,,,,,,,,,,,,,,,,,,,,,,,
,,,,,,,,,,00001472129,2020-10-12_16h02.59.793,swahili,2020.2.4,Win32,60,,,,,,,,,,-0.338541667,0.090740741,1,0,0,0.68216,unsorted_card,2,0,2,0,1,,,,,,,,,,,,,,,,,,,,,,,,,,,,,,,,,,,,,,,,,,,,,,,,,,,,,,,,,,,,,,,,,,,,,,,,,,,,,,,,,
,,,,,,,,,,00001472129,2020-10-12_16h02.59.793,swahili,2020.2.4,Win32,60,,,,,,,,,,0.515625,-0.046296296,1,0,0,0.78161,test_pile,3,0,3,0,1,PARROT - KASUKU,,,,,,,,,,,,,,,,,,,,,,,,,,,,,,,,,,,,,,,,,,,,,,,,,,,,,,,,,,,,,,,,,,,,,,,,,,,,,,,,
,,,,,,,,,,00001472129,2020-10-12_16h02.59.793,swahili,2020.2.4,Win32,60,,,,,,,,,,-0.177083333,-0.007407407,1,0,0,0.980815,unsorted_card,4,0,4,0,1,,,,,,,,,,,,,,,,,,,,,,,,,,,,,,,,,,,,,,,,,,,,,,,,,,,,,,,,,,,,,,,,,,,,,,,,,,,,,,,,,
,,,,,,,,,,00001472129,2020-10-12_16h02.59.793,swahili,2020.2.4,Win32,60,,,,,,,,,,0.560416667,0.048148148,1,0,0,1.2337,test_pile,5,0,5,0,1,BULL - FAHILI,,,,,,,,,,,,,,,,,,,,,,,,,,,,,,,,,,,,,,,,,,,,,,,,,,,,,,,,,,,,,,,,,,,,,,,,,,,,,,,,
,,,,,,,,,,00001472129,2020-10-12_16h02.59.793,swahili,2020.2.4,Win32,60,,,,,,,,,,-0.240625,0.090740741,1,0,0,0.615945,unsorted_card,6,0,6,0,1,,,,,,,,,,,,,,,,,,,,,,,,,,,,,,,,,,,,,,,,,,,,,,,,,,,,,,,,,,,,,,,,,,,,,,,,,,,,,,,,,
,,,,,,,,,,00001472129,2020-10-12_16h02.59.793,swahili,2020.2.4,Win32,60,,,,,,,,,,0.445833333,0.012962963,1,0,0,1.41586,test_pile,7,0,7,0,1,PLATE - SAHANI,,,,,,,,,,,,,,,,,,,,,,,,,,,,,,,,,,,,,,,,,,,,,,,,,,,,,,,,,,,,,,,,,,,,,,,,,,,,,,,,
,,,,,,,,,,00001472129,2020-10-12_16h02.59.793,swahili,2020.2.4,Win32,60,,,,,,,,,,-0.338541667,0.037037037,1,0,0,0.623505,unsorted_card,8,0,8,0,1,,,,,,,,,,,,,,,,,,,,,,,,,,,,,,,,,,,,,,,,,,,,,,,,,,,,,,,,,,,,,,,,,,,,,,,,,,,,,,,,,
,,,,,,,,,,00001472129,2020-10-12_16h02.59.793,swahili,2020.2.4,Win32,60,,,,,,,,,,0.454166667,-0.001851852,1,0,0,1.6661,test_pile,9,0,9,0,1,YEAST - HAMIRA,,,,,,,,,,,,,,,,,,,,,,,,,,,,,,,,,,,,,,,,,,,,,,,,,,,,,,,,,,,,,,,,,,,,,,,,,,,,,,,,
,,,,,,,,,,00001472129,2020-10-12_16h02.59.793,swahili,2020.2.4,Win32,60,,,,,,,,,,-0.366666667,0.138888889,1,0,0,0.615775,unsorted_card,10,0,10,0,1,,,,,,,,,,,,,,,,,,,,,,,,,,,,,,,,,,,,,,,,,,,,,,,,,,,,,,,,,,,,,,,,,,,,,,,,,,,,,,,,,
,,,,,,,,,,00001472129,2020-10-12_16h02.59.793,swahili,2020.2.4,Win32,60,,,,,,,,,,0.421875,-0.022222222,1,0,0,2.41377,test_pile,11,0,11,0,1,BLAME - LAWAMA,,,,,,,,,,,,,,,,,,,,,,,,,,,,,,,,,,,,,,,,,,,,,,,,,,,,,,,,,,,,,,,,,,,,,,,,,,,,,,,,
,,,,,,,,,,00001472129,2020-10-12_16h02.59.793,swahili,2020.2.4,Win32,60,,,,,,,,,,-0.153125,0.053703704,1,0,0,0.615265,unsorted_card,12,0,12,0,1,,,,,,,,,,,,,,,,,,,,,,,,,,,,,,,,,,,,,,,,,,,,,,,,,,,,,,,,,,,,,,,,,,,,,,,,,,,,,,,,,
,,,,,,,,,,00001472129,2020-10-12_16h02.59.793,swahili,2020.2.4,Win32,60,,,,,,,,,,0.439583333,-0.059259259,1,0,0,1.483345,test_pile,13,0,13,0,1,OATH - YAMINI,,,,,,,,,,,,,,,,,,,,,,,,,,,,,,,,,,,,,,,,,,,,,,,,,,,,,,,,,,,,,,,,,,,,,,,,,,,,,,,,
,,,,,,,,,,00001472129,2020-10-12_16h02.59.793,swahili,2020.2.4,Win32,60,,,,,,,,,,-0.3125,0.101851852,1,0,0,0.63122,unsorted_card,14,0,14,0,1,,,,,,,,,,,,,,,,,,,,,,,,,,,,,,,,,,,,,,,,,,,,,,,,,,,,,,,,,,,,,,,,,,,,,,,,,,,,,,,,,
,,,,,,,,,,00001472129,2020-10-12_16h02.59.793,swahili,2020.2.4,Win32,60,,,,,,,,,,0.578125,0.064814815,1,0,0,1.366465,test_pile,15,0,15,0,1,CORN - NAFAKA,,,,,,,,,,,,,,,,,,,,,,,,,,,,,,,,,,,,,,,,,,,,,,,,,,,,,,,,,,,,,,,,,,,,,,,,,,,,,,,,
,,,,,,,,,,00001472129,2020-10-12_16h02.59.793,swahili,2020.2.4,Win32,60,,,,,,,,,,-0.194791667,0.07037037,1,0,0,1.097335,unsorted_card,16,0,16,0,1,,,,,,,,,,,,,,,,,,,,,,,,,,,,,,,,,,,,,,,,,,,,,,,,,,,,,,,,,,,,,,,,,,,,,,,,,,,,,,,,,
,,,,,,,,,,00001472129,2020-10-12_16h02.59.793,swahili,2020.2.4,Win32,60,,,,,,,,,,0.55,-0.014814815,1,0,0,1.3168,test_pile,17,0,17,0,1,POEM - UTENZI,,,,,,,,,,,,,,,,,,,,,,,,,,,,,,,,,,,,,,,,,,,,,,,,,,,,,,,,,,,,,,,,,,,,,,,,,,,,,,,,
,,,,,,,,,,00001472129,2020-10-12_16h02.59.793,swahili,2020.2.4,Win32,60,,,,,,,,,,-0.367708333,0.011111111,1,0,0,0.66555,unsorted_card,18,0,18,0,1,,,,,,,,,,,,,,,,,,,,,,,,,,,,,,,,,,,,,,,,,,,,,,,,,,,,,,,,,,,,,,,,,,,,,,,,,,,,,,,,,
,,,,,,,,,,00001472129,2020-10-12_16h02.59.793,swahili,2020.2.4,Win32,60,,,,,,,,,,0.451041667,-0.009259259,1,0,0,1.583405,test_pile,19,0,19,0,1,TAILOR - MSHONI,,,,,,,,,,,,,,,,,,,,,,,,,,,,,,,,,,,,,,,,,,,,,,,,,,,,,,,,,,,,,,,,,,,,,,,,,,,,,,,,
,,,,,,,,,,00001472129,2020-10-12_16h02.59.793,swahili,2020.2.4,Win32,60,,,,,,,,,,-0.390625,-0.009259259,1,0,0,0.64952,unsorted_card,20,0,20,0,1,,,,,,,,,,,,,,,,,,,,,,,,,,,,,,,,,,,,,,,,,,,,,,,,,,,,,,,,,,,,,,,,,,,,,,,,,,,,,,,,,
,,,,,,,,,,00001472129,2020-10-12_16h02.59.793,swahili,2020.2.4,Win32,60,,,,,,,,,,0.511458333,-0.05,1,0,0,1.398595,test_pile,21,0,21,0,1,CHEESE - JIBINI,,,,,,,,,,,,,,,,,,,,,,,,,,,,,,,,,,,,,,,,,,,,,,,,,,,,,,,,,,,,,,,,,,,,,,,,,,,,,,,,
,,,,,,,,,,00001472129,2020-10-12_16h02.59.793,swahili,2020.2.4,Win32,60,,,,,,,,,,-0.223958333,0.037037037,1,0,0,0.59869,unsorted_card,22,0,22,0,1,,,,,,,,,,,,,,,,,,,,,,,,,,,,,,,,,,,,,,,,,,,,,,,,,,,,,,,,,,,,,,,,,,,,,,,,,,,,,,,,,
,,,,,,,,,,00001472129,2020-10-12_16h02.59.793,swahili,2020.2.4,Win32,60,,,,,,,,,,0.488541667,-0.040740741,1,0,0,2.2505,test_pile,23,0,23,0,1,GRAPES - ZABIBU,,,,,,,,,,,,,,,,,,,,,,,,,,,,,,,,,,,,,,,,,,,,,,,,,,,,,,,,,,,,,,,,,,,,,,,,,,,,,,,,
,,,,,,,,,,00001472129,2020-10-12_16h02.59.793,swahili,2020.2.4,Win32,60,,,,,,,,,,-0.315625,0.061111111,1,0,0,1.950165,unsorted_card,24,0,24,0,1,,,,,,,,,,,,,,,,,,,,,,,,,,,,,,,,,,,,,,,,,,,,,,,,,,,,,,,,,,,,,,,,,,,,,,,,,,,,,,,,,
,,,,,,,,,,00001472129,2020-10-12_16h02.59.793,swahili,2020.2.4,Win32,60,,,,,,,,,,0.45625,0.025925926,1,0,0,2.35038,test_pile,25,0,25,0,1,GRAVE - KABURI,,,,,,,,,,,,,,,,,,,,,,,,,,,,,,,,,,,,,,,,,,,,,,,,,,,,,,,,,,,,,,,,,,,,,,,,,,,,,,,,
,,,,,,,,,,00001472129,2020-10-12_16h02.59.793,swahili,2020.2.4,Win32,60,,,,,,,,,,-0.284375,0.092592593,1,0,0,0.69928,unsorted_card,26,0,26,0,1,,,,,,,,,,,,,,,,,,,,,,,,,,,,,,,,,,,,,,,,,,,,,,,,,,,,,,,,,,,,,,,,,,,,,,,,,,,,,,,,,
,,,,,,,,,,00001472129,2020-10-12_16h02.59.793,swahili,2020.2.4,Win32,60,,,,,,,,,,0.485416667,0.061111111,1,0,0,2.24946,test_pile,27,0,27,0,1,MANURE - SAMADI,,,,,,,,,,,,,,,,,,,,,,,,,,,,,,,,,,,,,,,,,,,,,,,,,,,,,,,,,,,,,,,,,,,,,,,,,,,,,,,,
,,,,,,,,,,00001472129,2020-10-12_16h02.59.793,swahili,2020.2.4,Win32,60,,,,,,,,,,-0.195833333,0.011111111,1,0,0,0.766505,unsorted_card,28,0,28,0,1,,,,,,,,,,,,,,,,,,,,,,,,,,,,,,,,,,,,,,,,,,,,,,,,,,,,,,,,,,,,,,,,,,,,,,,,,,,,,,,,,
,,,,,,,,,,00001472129,2020-10-12_16h02.59.793,swahili,2020.2.4,Win32,60,,,,,,,,,,0.514583333,-0.031481481,1,0,0,1.36676,test_pile,29,0,29,0,1,AGENT - WAKILI,,,,,,,,,,,,,,,,,,,,,,,,,,,,,,,,,,,,,,,,,,,,,,,,,,,,,,,,,,,,,,,,,,,,,,,,,,,,,,,,
,,,,,,,,,,00001472129,2020-10-12_16h02.59.793,swahili,2020.2.4,Win32,60,,,,,,,,,,-0.30625,0.146296296,1,0,0,0.598545,unsorted_card,30,0,30,0,1,,,,,,,,,,,,,,,,,,,,,,,,,,,,,,,,,,,,,,,,,,,,,,,,,,,,,,,,,,,,,,,,,,,,,,,,,,,,,,,,,
,,,,,,,,,,00001472129,2020-10-12_16h02.59.793,swahili,2020.2.4,Win32,60,,,,,,,,,,0.502083333,0.12037037,1,0,0,1.183395,test_pile,31,0,31,0,1,BRIBE - RUSHWA,,,,,,,,,,,,,,,,,,,,,,,,,,,,,,,,,,,,,,,,,,,,,,,,,,,,,,,,,,,,,,,,,,,,,,,,,,,,,,,,
,,,,,,,,,,00001472129,2020-10-12_16h02.59.793,swahili,2020.2.4,Win32,60,,,,,,,,,,-0.2625,-0.116666667,1,0,0,0.6166,unsorted_card,32,0,32,0,1,,,,,,,,,,,,,,,,,,,,,,,,,,,,,,,,,,,,,,,,,,,,,,,,,,,,,,,,,,,,,,,,,,,,,,,,,,,,,,,,,
,,,,,,,,,,00001472129,2020-10-12_16h02.59.793,swahili,2020.2.4,Win32,60,,,,,,,,,,0.386458333,-0.025925926,1,0,0,3.784975,test_pile,33,0,33,0,1,ORPHAN - YATIMA,,,,,,,,,,,,,,,,,,,,,,,,,,,,,,,,,,,,,,,,,,,,,,,,,,,,,,,,,,,,,,,,,,,,,,,,,,,,,,,,
,,,,,,,,,,00001472129,2020-10-12_16h02.59.793,swahili,2020.2.4,Win32,60,,,,,,,,,,-0.375,0.092592593,1,0,0,0.65105,unsorted_card,34,0,34,0,1,,,,,,,,,,,,,,,,,,,,,,,,,,,,,,,,,,,,,,,,,,,,,,,,,,,,,,,,,,,,,,,,,,,,,,,,,,,,,,,,,
,,,,,,,,,,00001472129,2020-10-12_16h02.59.793,swahili,2020.2.4,Win32,60,,,,,,,,,,0.513541667,0.024074074,1,0,0,1.44907,test_pile,35,0,35,0,1,DIVORCE - TALAKA,,,,,,,,,,,,,,,,,,,,,,,,,,,,,,,,,,,,,,,,,,,,,,,,,,,,,,,,,,,,,,,,,,,,,,,,,,,,,,,,
,,,,,,,,,,00001472129,2020-10-12_16h02.59.793,swahili,2020.2.4,Win32,60,,,,,,,,,,-0.354166667,0.109259259,1,0,0,0.65108,unsorted_card,36,0,36,0,1,,,,,,,,,,,,,,,,,,,,,,,,,,,,,,,,,,,,,,,,,,,,,,,,,,,,,,,,,,,,,,,,,,,,,,,,,,,,,,,,,
,,,,,,,,,,00001472129,2020-10-12_16h02.59.793,swahili,2020.2.4,Win32,60,,,,,,,,,,0.438541667,0.02962963,1,0,0,0.849235,test_pile,37,0,37,0,1,BOAT - MASHUA,,,,,,,,,,,,,,,,,,,,,,,,,,,,,,,,,,,,,,,,,,,,,,,,,,,,,,,,,,,,,,,,,,,,,,,,,,,,,,,,
,,,,,,,,,,00001472129,2020-10-12_16h02.59.793,swahili,2020.2.4,Win32,60,,,,,,,,,,-0.448958333,0.051851852,1,0,0,0.58229,unsorted_card,38,0,38,0,1,,,,,,,,,,,,,,,,,,,,,,,,,,,,,,,,,,,,,,,,,,,,,,,,,,,,,,,,,,,,,,,,,,,,,,,,,,,,,,,,,
,,,,,,,,,,00001472129,2020-10-12_16h02.59.793,swahili,2020.2.4,Win32,60,,,,,,,,,,0.398958333,0.014814815,1,0,0,0.817345,test_pile,39,0,39,0,1,TREASURE - DAFINA,,,,,,,,,,,,,,,,,,,,,,,,,,,,,,,,,,,,,,,,,,,,,,,,,,,,,,,,,,,,,,,,,,,,,,,,,,,,,,,,
,,,,,,,,,,00001472129,2020-10-12_16h02.59.793,swahili,2020.2.4,Win32,60,,,,,,,,,,,,,,,,,,,,,,,,,,,,,,,,,,0,0,0,0,1,,,,,,,,,,,,,,,,,,,,,,,,,,,,,,,,,,,,,,,,,,,,,,,,,,,,,,,,,,,,,,,,
,,,,,,,,,,00001472129,2020-10-12_16h02.59.793,swahili,2020.2.4,Win32,60,,,,,,,,,,,,,,,,,,,,,,,,,,,,,,,,,,,,,,,return,,,,,,1.551815,3.43218,0.398958333,0.014814815,1,0,0,1.200575,yes,PLATE,SAHAMI,incorrect,0,0,0,0,1,,,,,,,,,,,,,,,,,,,,,,,,,,,,,,,,,,,,,,,,,
,,,,,,,,,,00001472129,2020-10-12_16h02.59.793,swahili,2020.2.4,Win32,60,,,,,,,,,,,,,,,,,,,,,,,,,,,,,,,,,,,,,,,,,,,,,,8.90564,0.398958333,0.014814815,1,0,0,1.169155,yes,ORPHAN,YAMINI,incorrect,1,0,1,0,1,,,,,,,,,,,,,,,,,,,,,,,,,,,,,,,,,,,,,,,,,
,,,,,,,,,,00001472129,2020-10-12_16h02.59.793,swahili,2020.2.4,Win32,60,,,,,,,,,,,,,,,,,,,,,,,,,,,,,,,,,,,,,,,,,,,,,,3.61801,0.398958333,0.014814815,1,0,0,0.98412,yes,TREASURE,DAFINA,incorrect,2,0,2,0,1,,,,,,,,,,,,,,,,,,,,,,,,,,,,,,,,,,,,,,,,,
,,,,,,,,,,00001472129,2020-10-12_16h02.59.793,swahili,2020.2.4,Win32,60,,,,,,,,,,,,,,,,,,,,,,,,,,,,,,,,,,,,,,,,,,,,,,2.23527,0.398958333,0.014814815,1,0,0,0.951205,yes,CORN,NAFAKA,incorrect,3,0,3,0,1,,,,,,,,,,,,,,,,,,,,,,,,,,,,,,,,,,,,,,,,,
,,,,,,,,,,00001472129,2020-10-12_16h02.59.793,swahili,2020.2.4,Win32,60,,,,,,,,,,,,,,,,,,,,,,,,,,,,,,,,,,,,,,,,,,,,,,3.648825,0.398958333,0.014814815,1,0,0,0.967245,yes,BOAT,MASHUA,incorrect,4,0,4,0,1,,,,,,,,,,,,,,,,,,,,,,,,,,,,,,,,,,,,,,,,,
,,,,,,,,,,00001472129,2020-10-12_16h02.59.793,swahili,2020.2.4,Win32,60,,,,,,,,,,,,,,,,,,,,,,,,,,,,,,,,,,,,,,,,,,,,,,3.681725,0.398958333,0.014814815,1,0,0,0.9007,yes,MANURE,SOMADI,incorrect,5,0,5,0,1,,,,,,,,,,,,,,,,,,,,,,,,,,,,,,,,,,,,,,,,,
,,,,,,,,,,00001472129,2020-10-12_16h02.59.793,swahili,2020.2.4,Win32,60,,,,,,,,,,,,,,,,,,,,,,,,,,,,,,,,,,,,,,,,,,,,,,3.18245,0.398958333,0.014814815,1,0,0,1.083795,yes,AGENT,WAKILI,incorrect,6,0,6,0,1,,,,,,,,,,,,,,,,,,,,,,,,,,,,,,,,,,,,,,,,,
,,,,,,,,,,00001472129,2020-10-12_16h02.59.793,swahili,2020.2.4,Win32,60,,,,,,,,,,,,,,,,,,,,,,,,,,,,,,,,,,,,,,,,,,,,,,5.71575,0.398958333,0.014814815,1,0,0,1.26697,yes,PARROT,KUMAKU,incorrect,7,0,7,0,1,,,,,,,,,,,,,,,,,,,,,,,,,,,,,,,,,,,,,,,,,
,,,,,,,,,,00001472129,2020-10-12_16h02.59.793,swahili,2020.2.4,Win32,60,,,,,,,,,,,,,,,,,,,,,,,,,,,,,,,,,,,,,,,,,,,,,,2.731065,0.398958333,0.014814815,1,0,0,1.284155,yes,BULL,FAHILI,incorrect,8,0,8,0,1,,,,,,,,,,,,,,,,,,,,,,,,,,,,,,,,,,,,,,,,,
,,,,,,,,,,00001472129,2020-10-12_16h02.59.793,swahili,2020.2.4,Win32,60,,,,,,,,,,,,,,,,,,,,,,,,,,,,,,,,,,,,,,,,,,,,,,7.03315,0.398958333,0.014814815,1,0,0,0.917605,yes,GRAVE,JABURI,incorrect,9,0,9,0,1,,,,,,,,,,,,,,,,,,,,,,,,,,,,,,,,,,,,,,,,,
,,,,,,,,,,00001472129,2020-10-12_16h02.59.793,swahili,2020.2.4,Win32,60,,,,,,,,,,,,,,,,,,,,,,,,,,,,,,,,,,,,,,,,,,,,,,18.58748,0.398958333,0.014814815,1,0,0,1.300775,yes,OATH,U,incorrect,10,0,10,0,1,,,,,,,,,,,,,,,,,,,,,,,,,,,,,,,,,,,,,,,,,
,,,,,,,,,,00001472129,2020-10-12_16h02.59.793,swahili,2020.2.4,Win32,60,,,,,,,,,,,,,,,,,,,,,,,,,,,,,,,,,,,,,,,,,,,,,,6.93356,0.398958333,0.014814815,1,0,0,1.08396,yes,BRIBE,RUSHWA,incorrect,11,0,11,0,1,,,,,,,,,,,,,,,,,,,,,,,,,,,,,,,,,,,,,,,,,
,,,,,,,,,,00001472129,2020-10-12_16h02.59.793,swahili,2020.2.4,Win32,60,,,,,,,,,,,,,,,,,,,,,,,,,,,,,,,,,,,,,,,,,,,,,,2.114385,0.398958333,0.014814815,1,0,0,0.98376,yes,POEM,UTENZI,incorrect,12,0,12,0,1,,,,,,,,,,,,,,,,,,,,,,,,,,,,,,,,,,,,,,,,,
,,,,,,,,,,00001472129,2020-10-12_16h02.59.793,swahili,2020.2.4,Win32,60,,,,,,,,,,,,,,,,,,,,,,,,,,,,,,,,,,,,,,,,,,,,,,6.25033,0.398958333,0.014814815,1,0,0,0.967715,yes,YEAST,HAMIRA,incorrect,13,0,13,0,1,,,,,,,,,,,,,,,,,,,,,,,,,,,,,,,,,,,,,,,,,
,,,,,,,,,,00001472129,2020-10-12_16h02.59.793,swahili,2020.2.4,Win32,60,,,,,,,,,,,,,,,,,,,,,,,,,,,,,,,,,,,,,,,,,,,,,,2.91472,0.398958333,0.014814815,1,0,0,1.017435,yes,BLAME,LAWAMA,incorrect,14,0,14,0,1,,,,,,,,,,,,,,,,,,,,,,,,,,,,,,,,,,,,,,,,,
,,,,,,,,,,00001472129,2020-10-12_16h02.59.793,swahili,2020.2.4,Win32,60,,,,,,,,,,,,,,,,,,,,,,,,,,,,,,,,,,,,,,,,,,,,,,9.71875,0.398958333,0.014814815,1,0,0,0.9671,yes,CHEESE,JIBINI,incorrect,15,0,15,0,1,,,,,,,,,,,,,,,,,,,,,,,,,,,,,,,,,,,,,,,,,
,,,,,,,,,,00001472129,2020-10-12_16h02.59.793,swahili,2020.2.4,Win32,60,,,,,,,,,,,,,,,,,,,,,,,,,,,,,,,,,,,,,,,,,,,,,,20.48832,0.398958333,0.014814815,1,0,0,0.96684,yes,GRAPES,U,incorrect,16,0,16,0,1,,,,,,,,,,,,,,,,,,,,,,,,,,,,,,,,,,,,,,,,,
,,,,,,,,,,00001472129,2020-10-12_16h02.59.793,swahili,2020.2.4,Win32,60,,,,,,,,,,,,,,,,,,,,,,,,,,,,,,,,,,,,,,,,,,,,,,3.433745,0.398958333,0.014814815,1,0,0,1.10064,yes,TAILOR,MSHONI,incorrect,17,0,17,0,1,,,,,,,,,,,,,,,,,,,,,,,,,,,,,,,,,,,,,,,,,
,,,,,,,,,,00001472129,2020-10-12_16h02.59.793,swahili,2020.2.4,Win32,60,,,,,,,,,,,,,,,,,,,,,,,,,,,,,,,,,,,,,,,,,,,,,,4.419745,0.398958333,0.014814815,1,0,0,0.929745,yes,DIVORCE,TALAKA,incorrect,18,0,18,0,1,,,,,,,,,,,,,,,,,,,,,,,,,,,,,,,,,,,,,,,,,
,,,,,,,,,,00001472129,2020-10-12_16h02.59.793,swahili,2020.2.4,Win32,60,,,,,,,,,,,,,,,,,,,,,,,,,,,,,,,,,,,,,,,,,,,,,,7.232735,0.398958333,0.014814815,1,0,0,1.0171,yes,MERCHANT,TIJIRI,incorrect,19,0,19,0,1,,,,,,,,,,,,,,,,,,,,,,,,,,,,,,,,,,,,,,,,,
,,,,,,,,,,00001472129,2020-10-12_16h02.59.793,swahili,2020.2.4,Win32,60,,,,,,,,,,,,,,,,,,,,,,,,,,,,,,,,,,,,,,,,0,0,0,0,1,,,,,,,,,,,,,,,,,,,,,,,,,,,,,,,,,,,,,,,,,,,,,,,,,,,,,,,,,,
,,,,,,,,,,00001472129,2020-10-12_16h02.59.793,swahili,2020.2.4,Win32,60,,,,,,,,,,,,,,,,,,,,,,,,,,,,,,,,,,,,,,,,1,0,1,0,1,,,,,,,,,,,,,,,,,,,,,,,,,,,,,,,,,,,,,,,,,,,,,,,,,,,,,,,,,,
,,,,,,,,,,00001472129,2020-10-12_16h02.59.793,swahili,2020.2.4,Win32,60,,,,,,,,,,,,,,,,,,,,,,,,,,,,,,,,,,,,,,,,,,,,,,,,,,,,,,,,,,,,,,4,0,4,0,1,,,,,,,,,,,,,,,,,,,,,,,,,,,,,,,,,,,,
,,,,,,,,,,00001472129,2020-10-12_16h02.59.793,swahili,2020.2.4,Win32,60,,,,,,,,,,-0.192708333,0.116666667,1,0,0,1.24353,unsorted_card,0,0,0,0,1,,,,,,,,,,,,,,,,,,,,,,,,,,,,,,,,,,,,,,,,,,,,,,,,,,,,,,,,,,,,,,,,,,,,,,,,,,,,,,,,,
,,,,,,,,,,00001472129,2020-10-12_16h02.59.793,swahili,2020.2.4,Win32,60,,,,,,,,,,0.459375,-0.038888889,1,0,0,1.480835,test_pile,1,0,1,0,1,MERCHANT - TAJIRI,,,,,,,,,,,,,,,,,,,,,,,,,,,,,,,,,,,,,,,,,,,,,,,,,,,,,,,,,,,,,,,,,,,,,,,,,,,,,,,,
,,,,,,,,,,00001472129,2020-10-12_16h02.59.793,swahili,2020.2.4,Win32,60,,,,,,,,,,-0.201041667,-0.02962963,1,0,0,0.682935,unsorted_card,2,0,2,0,1,,,,,,,,,,,,,,,,,,,,,,,,,,,,,,,,,,,,,,,,,,,,,,,,,,,,,,,,,,,,,,,,,,,,,,,,,,,,,,,,,
,,,,,,,,,,00001472129,2020-10-12_16h02.59.793,swahili,2020.2.4,Win32,60,,,,,,,,,,0.533333333,-0.031481481,1,0,0,2.33281,test_pile,3,0,3,0,1,PARROT - KASUKU,,,,,,,,,,,,,,,,,,,,,,,,,,,,,,,,,,,,,,,,,,,,,,,,,,,,,,,,,,,,,,,,,,,,,,,,,,,,,,,,
,,,,,,,,,,00001472129,2020-10-12_16h02.59.793,swahili,2020.2.4,Win32,60,,,,,,,,,,-0.186458333,-0.118518519,1,0,0,0.5826,unsorted_card,4,0,4,0,1,,,,,,,,,,,,,,,,,,,,,,,,,,,,,,,,,,,,,,,,,,,,,,,,,,,,,,,,,,,,,,,,,,,,,,,,,,,,,,,,,
,,,,,,,,,,00001472129,2020-10-12_16h02.59.793,swahili,2020.2.4,Win32,60,,,,,,,,,,0.464583333,-0.47037037,1,0,0,1.2651,done_pile,5,0,5,0,1,BULL - FAHILI,,,,,,,,,,,,,,,,,,,,,,,,,,,,,,,,,,,,,,,,,,,,,,,,,,,,,,,,,,,,,,,,,,,,,,,,,,,,,,,,
,,,,,,,,,,00001472129,2020-10-12_16h02.59.793,swahili,2020.2.4,Win32,60,,,,,,,,,,-0.384375,-0.046296296,1,0,0,0.799835,unsorted_card,6,0,6,0,1,,,,,,,,,,,,,,,,,,,,,,,,,,,,,,,,,,,,,,,,,,,,,,,,,,,,,,,,,,,,,,,,,,,,,,,,,,,,,,,,,
,,,,,,,,,,00001472129,2020-10-12_16h02.59.793,swahili,2020.2.4,Win32,60,,,,,,,,,,0.466666667,-0.074074074,1,0,0,1.666435,test_pile,7,0,7,0,1,PLATE - SAHANI,,,,,,,,,,,,,,,,,,,,,,,,,,,,,,,,,,,,,,,,,,,,,,,,,,,,,,,,,,,,,,,,,,,,,,,,,,,,,,,,
,,,,,,,,,,00001472129,2020-10-12_16h02.59.793,swahili,2020.2.4,Win32,60,,,,,,,,,,-0.153125,-0.12962963,1,0,0,0.68312,unsorted_card,8,0,8,0,1,,,,,,,,,,,,,,,,,,,,,,,,,,,,,,,,,,,,,,,,,,,,,,,,,,,,,,,,,,,,,,,,,,,,,,,,,,,,,,,,,
,,,,,,,,,,00001472129,2020-10-12_16h02.59.793,swahili,2020.2.4,Win32,60,,,,,,,,,,0.405208333,-0.003703704,1,0,0,1.21496,test_pile,9,0,9,0,1,YEAST - HAMIRA,,,,,,,,,,,,,,,,,,,,,,,,,,,,,,,,,,,,,,,,,,,,,,,,,,,,,,,,,,,,,,,,,,,,,,,,,,,,,,,,
,,,,,,,,,,00001472129,2020-10-12_16h02.59.793,swahili,2020.2.4,Win32,60,,,,,,,,,,-0.111458333,0.074074074,1,0,0,0.59848,unsorted_card,10,0,10,0,1,,,,,,,,,,,,,,,,,,,,,,,,,,,,,,,,,,,,,,,,,,,,,,,,,,,,,,,,,,,,,,,,,,,,,,,,,,,,,,,,,
,,,,,,,,,,00001472129,2020-10-12_16h02.59.793,swahili,2020.2.4,Win32,60,,,,,,,,,,0.436458333,-0.042592593,1,0,0,1.1366,test_pile,11,0,11,0,1,BLAME - LAWAMA,,,,,,,,,,,,,,,,,,,,,,,,,,,,,,,,,,,,,,,,,,,,,,,,,,,,,,,,,,,,,,,,,,,,,,,,,,,,,,,,
,,,,,,,,,,00001472129,2020-10-12_16h02.59.793,swahili,2020.2.4,Win32,60,,,,,,,,,,-0.125,-0.040740741,1,0,0,0.643825,unsorted_card,12,0,12,0,1,,,,,,,,,,,,,,,,,,,,,,,,,,,,,,,,,,,,,,,,,,,,,,,,,,,,,,,,,,,,,,,,,,,,,,,,,,,,,,,,,
,,,,,,,,,,00001472129,2020-10-12_16h02.59.793,swahili,2020.2.4,Win32,60,,,,,,,,,,0.472916667,0,1,0,0,1.098715,test_pile,13,0,13,0,1,OATH - YAMINI,,,,,,,,,,,,,,,,,,,,,,,,,,,,,,,,,,,,,,,,,,,,,,,,,,,,,,,,,,,,,,,,,,,,,,,,,,,,,,,,
,,,,,,,,,,00001472129,2020-10-12_16h02.59.793,swahili,2020.2.4,Win32,60,,,,,,,,,,-0.283333333,0.018518519,1,0,0,0.665175,unsorted_card,14,0,14,0,1,,,,,,,,,,,,,,,,,,,,,,,,,,,,,,,,,,,,,,,,,,,,,,,,,,,,,,,,,,,,,,,,,,,,,,,,,,,,,,,,,
,,,,,,,,,,00001472129,2020-10-12_16h02.59.793,swahili,2020.2.4,Win32,60,,,,,,,,,,0.434375,-0.4,1,0,0,1.86459,done_pile,15,0,15,0,1,CORN - NAFAKA,,,,,,,,,,,,,,,,,,,,,,,,,,,,,,,,,,,,,,,,,,,,,,,,,,,,,,,,,,,,,,,,,,,,,,,,,,,,,,,,
,,,,,,,,,,00001472129,2020-10-12_16h02.59.793,swahili,2020.2.4,Win32,60,,,,,,,,,,-0.180208333,0.038888889,1,0,0,0.78234,unsorted_card,16,0,16,0,1,,,,,,,,,,,,,,,,,,,,,,,,,,,,,,,,,,,,,,,,,,,,,,,,,,,,,,,,,,,,,,,,,,,,,,,,,,,,,,,,,
,,,,,,,,,,00001472129,2020-10-12_16h02.59.793,swahili,2020.2.4,Win32,60,,,,,,,,,,0.325,-0.462962963,1,0,0,1.33243,done_pile,17,0,17,0,1,POEM - UTENZI,,,,,,,,,,,,,,,,,,,,,,,,,,,,,,,,,,,,,,,,,,,,,,,,,,,,,,,,,,,,,,,,,,,,,,,,,,,,,,,,
,,,,,,,,,,00001472129,2020-10-12_16h02.59.793,swahili,2020.2.4,Win32,60,,,,,,,,,,-0.226041667,-0.096296296,1,0,0,1.032065,unsorted_card,18,0,18,0,1,,,,,,,,,,,,,,,,,,,,,,,,,,,,,,,,,,,,,,,,,,,,,,,,,,,,,,,,,,,,,,,,,,,,,,,,,,,,,,,,,
,,,,,,,,,,00001472129,2020-10-12_16h02.59.793,swahili,2020.2.4,Win32,60,,,,,,,,,,0.41875,0.007407407,1,0,0,3.817175,test_pile,19,0,19,0,1,TAILOR - MSHONI,,,,,,,,,,,,,,,,,,,,,,,,,,,,,,,,,,,,,,,,,,,,,,,,,,,,,,,,,,,,,,,,,,,,,,,,,,,,,,,,
,,,,,,,,,,00001472129,2020-10-12_16h02.59.793,swahili,2020.2.4,Win32,60,,,,,,,,,,-0.290625,0.001851852,1,0,0,0.615,unsorted_card,20,0,20,0,1,,,,,,,,,,,,,,,,,,,,,,,,,,,,,,,,,,,,,,,,,,,,,,,,,,,,,,,,,,,,,,,,,,,,,,,,,,,,,,,,,
,,,,,,,,,,00001472129,2020-10-12_16h02.59.793,swahili,2020.2.4,Win32,60,,,,,,,,,,0.457291667,0.031481481,1,0,0,1.550185,test_pile,21,0,21,0,1,CHEESE - JIBINI,,,,,,,,,,,,,,,,,,,,,,,,,,,,,,,,,,,,,,,,,,,,,,,,,,,,,,,,,,,,,,,,,,,,,,,,,,,,,,,,
,,,,,,,,,,00001472129,2020-10-12_16h02.59.793,swahili,2020.2.4,Win32,60,,,,,,,,,,-0.430208333,-0.022222222,1,0,0,0.61556,unsorted_card,22,0,22,0,1,,,,,,,,,,,,,,,,,,,,,,,,,,,,,,,,,,,,,,,,,,,,,,,,,,,,,,,,,,,,,,,,,,,,,,,,,,,,,,,,,
,,,,,,,,,,00001472129,2020-10-12_16h02.59.793,swahili,2020.2.4,Win32,60,,,,,,,,,,0.41875,0.046296296,1,0,0,1.198895,test_pile,23,0,23,0,1,GRAPES - ZABIBU,,,,,,,,,,,,,,,,,,,,,,,,,,,,,,,,,,,,,,,,,,,,,,,,,,,,,,,,,,,,,,,,,,,,,,,,,,,,,,,,
,,,,,,,,,,00001472129,2020-10-12_16h02.59.793,swahili,2020.2.4,Win32,60,,,,,,,,,,-0.355208333,-0.044444444,1,0,0,0.633205,unsorted_card,24,0,24,0,1,,,,,,,,,,,,,,,,,,,,,,,,,,,,,,,,,,,,,,,,,,,,,,,,,,,,,,,,,,,,,,,,,,,,,,,,,,,,,,,,,
,,,,,,,,,,00001472129,2020-10-12_16h02.59.793,swahili,2020.2.4,Win32,60,,,,,,,,,,0.446875,0.007407407,1,0,0,1.33268,test_pile,25,0,25,0,1,GRAVE - KABURI,,,,,,,,,,,,,,,,,,,,,,,,,,,,,,,,,,,,,,,,,,,,,,,,,,,,,,,,,,,,,,,,,,,,,,,,,,,,,,,,
,,,,,,,,,,00001472129,2020-10-12_16h02.59.793,swahili,2020.2.4,Win32,60,,,,,,,,,,-0.379166667,0.022222222,1,0,0,0.599425,unsorted_card,26,0,26,0,1,,,,,,,,,,,,,,,,,,,,,,,,,,,,,,,,,,,,,,,,,,,,,,,,,,,,,,,,,,,,,,,,,,,,,,,,,,,,,,,,,
,,,,,,,,,,00001472129,2020-10-12_16h02.59.793,swahili,2020.2.4,Win32,60,,,,,,,,,,0.472916667,-0.024074074,1,0,0,1.283035,test_pile,27,0,27,0,1,MANURE - SAMADI,,,,,,,,,,,,,,,,,,,,,,,,,,,,,,,,,,,,,,,,,,,,,,,,,,,,,,,,,,,,,,,,,,,,,,,,,,,,,,,,
,,,,,,,,,,00001472129,2020-10-12_16h02.59.793,swahili,2020.2.4,Win32,60,,,,,,,,,,-0.413541667,0.138888889,1,0,0,0.59797,unsorted_card,28,0,28,0,1,,,,,,,,,,,,,,,,,,,,,,,,,,,,,,,,,,,,,,,,,,,,,,,,,,,,,,,,,,,,,,,,,,,,,,,,,,,,,,,,,
,,,,,,,,,,00001472129,2020-10-12_16h02.59.793,swahili,2020.2.4,Win32,60,,,,,,,,,,0.413541667,-0.472222222,1,0,0,1.199785,done_pile,29,0,29,0,1,AGENT - WAKILI,,,,,,,,,,,,,,,,,,,,,,,,,,,,,,,,,,,,,,,,,,,,,,,,,,,,,,,,,,,,,,,,,,,,,,,,,,,,,,,,
,,,,,,,,,,00001472129,2020-10-12_16h02.59.793,swahili,2020.2.4,Win32,60,,,,,,,,,,-0.18125,-0.003703704,1,0,0,0.58118,unsorted_card,30,0,30,0,1,,,,,,,,,,,,,,,,,,,,,,,,,,,,,,,,,,,,,,,,,,,,,,,,,,,,,,,,,,,,,,,,,,,,,,,,,,,,,,,,,
,,,,,,,,,,00001472129,2020-10-12_16h02.59.793,swahili,2020.2.4,Win32,60,,,,,,,,,,0.438541667,0.044444444,1,0,0,1.08026,test_pile,31,0,31,0,1,BRIBE - RUSHWA,,,,,,,,,,,,,,,,,,,,,,,,,,,,,,,,,,,,,,,,,,,,,,,,,,,,,,,,,,,,,,,,,,,,,,,,,,,,,,,,
,,,,,,,,,,00001472129,2020-10-12_16h02.59.793,swahili,2020.2.4,Win32,60,,,,,,,,,,-0.209375,0.048148148,1,0,0,0.61524,unsorted_card,32,0,32,0,1,,,,,,,,,,,,,,,,,,,,,,,,,,,,,,,,,,,,,,,,,,,,,,,,,,,,,,,,,,,,,,,,,,,,,,,,,,,,,,,,,
,,,,,,,,,,00001472129,2020-10-12_16h02.59.793,swahili,2020.2.4,Win32,60,,,,,,,,,,0.429166667,0.014814815,1,0,0,1.3002,test_pile,33,0,33,0,1,ORPHAN - YATIMA,,,,,,,,,,,,,,,,,,,,,,,,,,,,,,,,,,,,,,,,,,,,,,,,,,,,,,,,,,,,,,,,,,,,,,,,,,,,,,,,
,,,,,,,,,,00001472129,2020-10-12_16h02.59.793,swahili,2020.2.4,Win32,60,,,,,,,,,,-0.347916667,0.081481481,1,0,0,0.631495,unsorted_card,34,0,34,0,1,,,,,,,,,,,,,,,,,,,,,,,,,,,,,,,,,,,,,,,,,,,,,,,,,,,,,,,,,,,,,,,,,,,,,,,,,,,,,,,,,
,,,,,,,,,,00001472129,2020-10-12_16h02.59.793,swahili,2020.2.4,Win32,60,,,,,,,,,,0.459375,0.055555556,1,0,0,1.083015,test_pile,35,0,35,0,1,DIVORCE - TALAKA,,,,,,,,,,,,,,,,,,,,,,,,,,,,,,,,,,,,,,,,,,,,,,,,,,,,,,,,,,,,,,,,,,,,,,,,,,,,,,,,
,,,,,,,,,,00001472129,2020-10-12_16h02.59.793,swahili,2020.2.4,Win32,60,,,,,,,,,,-0.271875,-0.075925926,1,0,0,0.63312,unsorted_card,36,0,36,0,1,,,,,,,,,,,,,,,,,,,,,,,,,,,,,,,,,,,,,,,,,,,,,,,,,,,,,,,,,,,,,,,,,,,,,,,,,,,,,,,,,
,,,,,,,,,,00001472129,2020-10-12_16h02.59.793,swahili,2020.2.4,Win32,60,,,,,,,,,,0.43125,-0.477777778,1,0,0,1.19806,done_pile,37,0,37,0,1,BOAT - MASHUA,,,,,,,,,,,,,,,,,,,,,,,,,,,,,,,,,,,,,,,,,,,,,,,,,,,,,,,,,,,,,,,,,,,,,,,,,,,,,,,,
,,,,,,,,,,00001472129,2020-10-12_16h02.59.793,swahili,2020.2.4,Win32,60,,,,,,,,,,-0.394791667,0.011111111,1,0,0,0.61448,unsorted_card,38,0,38,0,1,,,,,,,,,,,,,,,,,,,,,,,,,,,,,,,,,,,,,,,,,,,,,,,,,,,,,,,,,,,,,,,,,,,,,,,,,,,,,,,,,
,,,,,,,,,,00001472129,2020-10-12_16h02.59.793,swahili,2020.2.4,Win32,60,,,,,,,,,,0.513541667,-0.475925926,1,0,0,2.1489,done_pile,39,0,39,0,1,TREASURE - DAFINA,,,,,,,,,,,,,,,,,,,,,,,,,,,,,,,,,,,,,,,,,,,,,,,,,,,,,,,,,,,,,,,,,,,,,,,,,,,,,,,,
,,,,,,,,,,00001472129,2020-10-12_16h02.59.793,swahili,2020.2.4,Win32,60,,,,,,,,,,,,,,,,,,,,,,,,,,,,,,,,,,0,0,0,0,1,,,,,,,,,,,,,,,,,,,,,,,,,,,,,,,,,,,,,,,,,,,,,,,,,,,,,,,,,,,,,,,,
,,,,,,,,,,00001472129,2020-10-12_16h02.59.793,swahili,2020.2.4,Win32,60,,,,,,,,,,,,,,,,,,,,,,,,,,,,,,,,,,,,,,,return,,,,,,2.059465,2.398895,0.396875,-0.1,1,0,0,1.317345,yes,TAILOR,MSHONI,incorrect,0,0,0,0,1,,,,,,,,,,,,,,,,,,,,,,,,,,,,,,,,,,,,,,,,,
,,,,,,,,,,00001472129,2020-10-12_16h02.59.793,swahili,2020.2.4,Win32,60,,,,,,,,,,,,,,,,,,,,,,,,,,,,,,,,,,,,,,,,,,,,,,3.73356,0.396875,-0.1,1,0,0,0.89852,yes,BRIBE,RUSHWA,incorrect,1,0,1,0,1,,,,,,,,,,,,,,,,,,,,,,,,,,,,,,,,,,,,,,,,,
,,,,,,,,,,00001472129,2020-10-12_16h02.59.793,swahili,2020.2.4,Win32,60,,,,,,,,,,,,,,,,,,,,,,,,,,,,,,,,,,,,,,,,,,,,,,2.69764,0.396875,-0.1,1,0,0,0.96719,yes,CHEESE,JIBINI,incorrect,2,0,2,0,1,,,,,,,,,,,,,,,,,,,,,,,,,,,,,,,,,,,,,,,,,
,,,,,,,,,,00001472129,2020-10-12_16h02.59.793,swahili,2020.2.4,Win32,60,,,,,,,,,,,,,,,,,,,,,,,,,,,,,,,,,,,,,,,,,,,,,,8.500895,0.396875,-0.1,1,0,0,0.984045,yes,PLATE,SAHALI,incorrect,3,0,3,0,1,,,,,,,,,,,,,,,,,,,,,,,,,,,,,,,,,,,,,,,,,
,,,,,,,,,,00001472129,2020-10-12_16h02.59.793,swahili,2020.2.4,Win32,60,,,,,,,,,,,,,,,,,,,,,,,,,,,,,,,,,,,,,,,,,,,,,,6.88389,0.396875,-0.1,1,0,0,1.18381,yes,PARROT,KUMAKU,incorrect,4,0,4,0,1,,,,,,,,,,,,,,,,,,,,,,,,,,,,,,,,,,,,,,,,,
,,,,,,,,,,00001472129,2020-10-12_16h02.59.793,swahili,2020.2.4,Win32,60,,,,,,,,,,,,,,,,,,,,,,,,,,,,,,,,,,,,,,,,,,,,,,6.13348,0.396875,-0.1,1,0,0,1.150605,yes,MERCHANT,TAJIRI,incorrect,5,0,5,0,1,,,,,,,,,,,,,,,,,,,,,,,,,,,,,,,,,,,,,,,,,
,,,,,,,,,,00001472129,2020-10-12_16h02.59.793,swahili,2020.2.4,Win32,60,,,,,,,,,,,,,,,,,,,,,,,,,,,,,,,,,,,,,,,,,,,,,,5.16503,0.396875,-0.1,1,0,0,0.9336,yes,GRAVE,SAMADI,incorrect,6,0,6,0,1,,,,,,,,,,,,,,,,,,,,,,,,,,,,,,,,,,,,,,,,,
,,,,,,,,,,00001472129,2020-10-12_16h02.59.793,swahili,2020.2.4,Win32,60,,,,,,,,,,,,,,,,,,,,,,,,,,,,,,,,,,,,,,,,,,,,,,4.699575,0.463541667,-0.183333333,1,0,0,2.51766,yes,BLAME,LAWAMA,incorrect,7,0,7,0,1,,,,,,,,,,,,,,,,,,,,,,,,,,,,,,,,,,,,,,,,,
,,,,,,,,,,00001472129,2020-10-12_16h02.59.793,swahili,2020.2.4,Win32,60,,,,,,,,,,,,,,,,,,,,,,,,,,,,,,,,,,,,,,,,,,,,,,5.583165,0.463541667,-0.183333333,1,0,0,0.949955,yes,YEAST,HAMIRA,incorrect,8,0,8,0,1,,,,,,,,,,,,,,,,,,,,,,,,,,,,,,,,,,,,,,,,,
,,,,,,,,,,00001472129,2020-10-12_16h02.59.793,swahili,2020.2.4,Win32,60,,,,,,,,,,,,,,,,,,,,,,,,,,,,,,,,,,,,,,,,,,,,,,14.06841,0.463541667,-0.183333333,1,0,0,0.900255,yes,GRAPES,KASUBU,incorrect,9,0,9,0,1,,,,,,,,,,,,,,,,,,,,,,,,,,,,,,,,,,,,,,,,,
,,,,,,,,,,00001472129,2020-10-12_16h02.59.793,swahili,2020.2.4,Win32,60,,,,,,,,,,,,,,,,,,,,,,,,,,,,,,,,,,,,,,,,,,,,,,3.56517,0.463541667,-0.183333333,1,0,0,0.86732,yes,ORPHAN,YATIMA,incorrect,10,0,10,0,1,,,,,,,,,,,,,,,,,,,,,,,,,,,,,,,,,,,,,,,,,
,,,,,,,,,,00001472129,2020-10-12_16h02.59.793,swahili,2020.2.4,Win32,60,,,,,,,,,,,,,,,,,,,,,,,,,,,,,,,,,,,,,,,,,,,,,,3.3177,0.463541667,-0.183333333,1,0,0,0.983985,yes,MANURE,SAMADI,incorrect,11,0,11,0,1,,,,,,,,,,,,,,,,,,,,,,,,,,,,,,,,,,,,,,,,,
,,,,,,,,,,00001472129,2020-10-12_16h02.59.793,swahili,2020.2.4,Win32,60,,,,,,,,,,,,,,,,,,,,,,,,,,,,,,,,,,,,,,,,,,,,,,15.40206,0.463541667,-0.183333333,1,0,0,0.93346,yes,OATH,F,incorrect,12,0,12,0,1,,,,,,,,,,,,,,,,,,,,,,,,,,,,,,,,,,,,,,,,,
,,,,,,,,,,00001472129,2020-10-12_16h02.59.793,swahili,2020.2.4,Win32,60,,,,,,,,,,,,,,,,,,,,,,,,,,,,,,,,,,,,,,,,,,,,,,3.230795,0.463541667,-0.183333333,1,0,0,2.15164,yes,DIVORCE,TALAKA,incorrect,13,0,13,0,1,,,,,,,,,,,,,,,,,,,,,,,,,,,,,,,,,,,,,,,,,
,,,,,,,,,,00001472129,2020-10-12_16h02.59.793,swahili,2020.2.4,Win32,60,,,,,,,,,,,,,,,,,,,,,,,,,,,,,,,,,,,,,,,,0,0,0,0,1,,,,,,,,,,,,,,,,,,,,,,,,,,,,,,,,,,,,,,,,,,,,,,,,,,,,,,,,,,
,,,,,,,,,,00001472129,2020-10-12_16h02.59.793,swahili,2020.2.4,Win32,60,,,,,,,,,,,,,,,,,,,,,,,,,,,,,,,,,,,,,,,,1,0,1,0,1,,,,,,,,,,,,,,,,,,,,,,,,,,,,,,,,,,,,,,,,,,,,,,,,,,,,,,,,,,
,,,,,,,,,,00001472129,2020-10-12_16h02.59.793,swahili,2020.2.4,Win32,60,,,,,,,,,,,,,,,,,,,,,,,,,,,,,,,,,,,,,,,,,,,,,,,,,,,,,,,,,,,,,,5,0,5,0,1,,,,,,,,,,,,,,,,,,,,,,,,,,,,,,,,,,,,
,,,,,,,,,,00001472129,2020-10-12_16h02.59.793,swahili,2020.2.4,Win32,60,,,,,,,,,,-0.313541667,0.190740741,1,0,0,1.762535,unsorted_card,0,0,0,0,1,,,,,,,,,,,,,,,,,,,,,,,,,,,,,,,,,,,,,,,,,,,,,,,,,,,,,,,,,,,,,,,,,,,,,,,,,,,,,,,,,
,,,,,,,,,,00001472129,2020-10-12_16h02.59.793,swahili,2020.2.4,Win32,60,,,,,,,,,,0.519791667,-0.47037037,1,0,0,2.048745,done_pile,1,0,1,0,1,MERCHANT - TAJIRI,,,,,,,,,,,,,,,,,,,,,,,,,,,,,,,,,,,,,,,,,,,,,,,,,,,,,,,,,,,,,,,,,,,,,,,,,,,,,,,,
,,,,,,,,,,00001472129,2020-10-12_16h02.59.793,swahili,2020.2.4,Win32,60,,,,,,,,,,-0.197916667,-0.203703704,1,0,0,0.700075,unsorted_card,2,0,2,0,1,,,,,,,,,,,,,,,,,,,,,,,,,,,,,,,,,,,,,,,,,,,,,,,,,,,,,,,,,,,,,,,,,,,,,,,,,,,,,,,,,
,,,,,,,,,,00001472129,2020-10-12_16h02.59.793,swahili,2020.2.4,Win32,60,,,,,,,,,,0.438541667,-0.022222222,1,0,0,1.648965,test_pile,3,0,3,0,1,PARROT - KASUKU,,,,,,,,,,,,,,,,,,,,,,,,,,,,,,,,,,,,,,,,,,,,,,,,,,,,,,,,,,,,,,,,,,,,,,,,,,,,,,,,
,,,,,,,,,,00001472129,2020-10-12_16h02.59.793,swahili,2020.2.4,Win32,60,,,,,,,,,,-0.163541667,0.018518519,1,0,0,0.65002,unsorted_card,4,0,4,0,1,,,,,,,,,,,,,,,,,,,,,,,,,,,,,,,,,,,,,,,,,,,,,,,,,,,,,,,,,,,,,,,,,,,,,,,,,,,,,,,,,
,,,,,,,,,,00001472129,2020-10-12_16h02.59.793,swahili,2020.2.4,Win32,60,,,,,,,,,,0.405208333,0.111111111,1,0,0,1.03237,test_pile,5,0,5,0,1,PLATE - SAHANI,,,,,,,,,,,,,,,,,,,,,,,,,,,,,,,,,,,,,,,,,,,,,,,,,,,,,,,,,,,,,,,,,,,,,,,,,,,,,,,,
,,,,,,,,,,00001472129,2020-10-12_16h02.59.793,swahili,2020.2.4,Win32,60,,,,,,,,,,-0.190625,-0.005555556,1,0,0,0.96576,unsorted_card,6,0,6,0,1,,,,,,,,,,,,,,,,,,,,,,,,,,,,,,,,,,,,,,,,,,,,,,,,,,,,,,,,,,,,,,,,,,,,,,,,,,,,,,,,,
,,,,,,,,,,00001472129,2020-10-12_16h02.59.793,swahili,2020.2.4,Win32,60,,,,,,,,,,0.504166667,0.042592593,1,0,0,1.03216,test_pile,7,0,7,0,1,YEAST - HAMIRA,,,,,,,,,,,,,,,,,,,,,,,,,,,,,,,,,,,,,,,,,,,,,,,,,,,,,,,,,,,,,,,,,,,,,,,,,,,,,,,,
,,,,,,,,,,00001472129,2020-10-12_16h02.59.793,swahili,2020.2.4,Win32,60,,,,,,,,,,-0.251041667,0.05,1,0,0,0.69929,unsorted_card,8,0,8,0,1,,,,,,,,,,,,,,,,,,,,,,,,,,,,,,,,,,,,,,,,,,,,,,,,,,,,,,,,,,,,,,,,,,,,,,,,,,,,,,,,,
,,,,,,,,,,00001472129,2020-10-12_16h02.59.793,swahili,2020.2.4,Win32,60,,,,,,,,,,0.420833333,0.064814815,1,0,0,1.04907,test_pile,9,0,9,0,1,BLAME - LAWAMA,,,,,,,,,,,,,,,,,,,,,,,,,,,,,,,,,,,,,,,,,,,,,,,,,,,,,,,,,,,,,,,,,,,,,,,,,,,,,,,,
,,,,,,,,,,00001472129,2020-10-12_16h02.59.793,swahili,2020.2.4,Win32,60,,,,,,,,,,-0.151041667,0.009259259,1,0,0,0.649195,unsorted_card,10,0,10,0,1,,,,,,,,,,,,,,,,,,,,,,,,,,,,,,,,,,,,,,,,,,,,,,,,,,,,,,,,,,,,,,,,,,,,,,,,,,,,,,,,,
,,,,,,,,,,00001472129,2020-10-12_16h02.59.793,swahili,2020.2.4,Win32,60,,,,,,,,,,0.455208333,0.009259259,1,0,0,1.049505,test_pile,11,0,11,0,1,OATH - YAMINI,,,,,,,,,,,,,,,,,,,,,,,,,,,,,,,,,,,,,,,,,,,,,,,,,,,,,,,,,,,,,,,,,,,,,,,,,,,,,,,,
,,,,,,,,,,00001472129,2020-10-12_16h02.59.793,swahili,2020.2.4,Win32,60,,,,,,,,,,-0.257291667,0.025925926,1,0,0,0.61621,unsorted_card,12,0,12,0,1,,,,,,,,,,,,,,,,,,,,,,,,,,,,,,,,,,,,,,,,,,,,,,,,,,,,,,,,,,,,,,,,,,,,,,,,,,,,,,,,,
,,,,,,,,,,00001472129,2020-10-12_16h02.59.793,swahili,2020.2.4,Win32,60,,,,,,,,,,0.445833333,-0.435185185,1,0,0,1.93306,done_pile,13,0,13,0,1,TAILOR - MSHONI,,,,,,,,,,,,,,,,,,,,,,,,,,,,,,,,,,,,,,,,,,,,,,,,,,,,,,,,,,,,,,,,,,,,,,,,,,,,,,,,
,,,,,,,,,,00001472129,2020-10-12_16h02.59.793,swahili,2020.2.4,Win32,60,,,,,,,,,,-0.357291667,-0.090740741,1,0,0,0.68202,unsorted_card,14,0,14,0,1,,,,,,,,,,,,,,,,,,,,,,,,,,,,,,,,,,,,,,,,,,,,,,,,,,,,,,,,,,,,,,,,,,,,,,,,,,,,,,,,,
,,,,,,,,,,00001472129,2020-10-12_16h02.59.793,swahili,2020.2.4,Win32,60,,,,,,,,,,0.4125,0.001851852,1,0,0,1.13188,test_pile,15,0,15,0,1,CHEESE - JIBINI,,,,,,,,,,,,,,,,,,,,,,,,,,,,,,,,,,,,,,,,,,,,,,,,,,,,,,,,,,,,,,,,,,,,,,,,,,,,,,,,
,,,,,,,,,,00001472129,2020-10-12_16h02.59.793,swahili,2020.2.4,Win32,60,,,,,,,,,,-0.334375,-0.005555556,1,0,0,0.598725,unsorted_card,16,0,16,0,1,,,,,,,,,,,,,,,,,,,,,,,,,,,,,,,,,,,,,,,,,,,,,,,,,,,,,,,,,,,,,,,,,,,,,,,,,,,,,,,,,
,,,,,,,,,,00001472129,2020-10-12_16h02.59.793,swahili,2020.2.4,Win32,60,,,,,,,,,,0.422916667,-0.022222222,1,0,0,1.09884,test_pile,17,0,17,0,1,GRAPES - ZABIBU,,,,,,,,,,,,,,,,,,,,,,,,,,,,,,,,,,,,,,,,,,,,,,,,,,,,,,,,,,,,,,,,,,,,,,,,,,,,,,,,
,,,,,,,,,,00001472129,2020-10-12_16h02.59.793,swahili,2020.2.4,Win32,60,,,,,,,,,,-0.383333333,0.068518519,1,0,0,0.640145,unsorted_card,18,0,18,0,1,,,,,,,,,,,,,,,,,,,,,,,,,,,,,,,,,,,,,,,,,,,,,,,,,,,,,,,,,,,,,,,,,,,,,,,,,,,,,,,,,
,,,,,,,,,,00001472129,2020-10-12_16h02.59.793,swahili,2020.2.4,Win32,60,,,,,,,,,,0.427083333,0.025925926,1,0,0,1.29464,test_pile,19,0,19,0,1,GRAVE - KABURI,,,,,,,,,,,,,,,,,,,,,,,,,,,,,,,,,,,,,,,,,,,,,,,,,,,,,,,,,,,,,,,,,,,,,,,,,,,,,,,,
,,,,,,,,,,00001472129,2020-10-12_16h02.59.793,swahili,2020.2.4,Win32,60,,,,,,,,,,-0.346875,0.011111111,1,0,0,0.596695,unsorted_card,20,0,20,0,1,,,,,,,,,,,,,,,,,,,,,,,,,,,,,,,,,,,,,,,,,,,,,,,,,,,,,,,,,,,,,,,,,,,,,,,,,,,,,,,,,
,,,,,,,,,,00001472129,2020-10-12_16h02.59.793,swahili,2020.2.4,Win32,60,,,,,,,,,,0.436458333,-0.038888889,1,0,0,2.769085,test_pile,21,0,21,0,1,MANURE - SAMADI,,,,,,,,,,,,,,,,,,,,,,,,,,,,,,,,,,,,,,,,,,,,,,,,,,,,,,,,,,,,,,,,,,,,,,,,,,,,,,,,
,,,,,,,,,,00001472129,2020-10-12_16h02.59.793,swahili,2020.2.4,Win32,60,,,,,,,,,,-0.24375,-0.064814815,1,0,0,0.71824,unsorted_card,22,0,22,0,1,,,,,,,,,,,,,,,,,,,,,,,,,,,,,,,,,,,,,,,,,,,,,,,,,,,,,,,,,,,,,,,,,,,,,,,,,,,,,,,,,
,,,,,,,,,,00001472129,2020-10-12_16h02.59.793,swahili,2020.2.4,Win32,60,,,,,,,,,,0.457291667,-0.618518519,1,0,0,2.41579,done_pile,23,0,23,0,1,BRIBE - RUSHWA,,,,,,,,,,,,,,,,,,,,,,,,,,,,,,,,,,,,,,,,,,,,,,,,,,,,,,,,,,,,,,,,,,,,,,,,,,,,,,,,
,,,,,,,,,,00001472129,2020-10-12_16h02.59.793,swahili,2020.2.4,Win32,60,,,,,,,,,,-0.317708333,-0.131481481,1,0,0,0.717845,unsorted_card,24,0,24,0,1,,,,,,,,,,,,,,,,,,,,,,,,,,,,,,,,,,,,,,,,,,,,,,,,,,,,,,,,,,,,,,,,,,,,,,,,,,,,,,,,,
,,,,,,,,,,00001472129,2020-10-12_16h02.59.793,swahili,2020.2.4,Win32,60,,,,,,,,,,0.523958333,0.068518519,1,0,0,1.09958,test_pile,25,0,25,0,1,ORPHAN - YATIMA,,,,,,,,,,,,,,,,,,,,,,,,,,,,,,,,,,,,,,,,,,,,,,,,,,,,,,,,,,,,,,,,,,,,,,,,,,,,,,,,
,,,,,,,,,,00001472129,2020-10-12_16h02.59.793,swahili,2020.2.4,Win32,60,,,,,,,,,,-0.228125,0.138888889,1,0,0,0.667485,unsorted_card,26,0,26,0,1,,,,,,,,,,,,,,,,,,,,,,,,,,,,,,,,,,,,,,,,,,,,,,,,,,,,,,,,,,,,,,,,,,,,,,,,,,,,,,,,,
,,,,,,,,,,00001472129,2020-10-12_16h02.59.793,swahili,2020.2.4,Win32,60,,,,,,,,,,0.43125,-0.446296296,1,0,0,1.93263,done_pile,27,0,27,0,1,DIVORCE - TALAKA,,,,,,,,,,,,,,,,,,,,,,,,,,,,,,,,,,,,,,,,,,,,,,,,,,,,,,,,,,,,,,,,,,,,,,,,,,,,,,,,
,,,,,,,,,,00001472129,2020-10-12_16h02.59.793,swahili,2020.2.4,Win32,60,,,,,,,,,,,,,,,,,,,,,,,,,,,,,,,,,,0,0,0,0,1,,,,,,,,,,,,,,,,,,,,,,,,,,,,,,,,,,,,,,,,,,,,,,,,,,,,,,,,,,,,,,,,
,,,,,,,,,,00001472129,2020-10-12_16h02.59.793,swahili,2020.2.4,Win32,60,,,,,,,,,,,,,,,,,,,,,,,,,,,,,,,,,,,,,,,return,,,,,,8.15838,3.565335,0.302083333,-0.022222222,1,0,0,1.11671,yes,GRAPES,ZABIBU,incorrect,0,0,0,0,1,,,,,,,,,,,,,,,,,,,,,,,,,,,,,,,,,,,,,,,,,
,,,,,,,,,,00001472129,2020-10-12_16h02.59.793,swahili,2020.2.4,Win32,60,,,,,,,,,,,,,,,,,,,,,,,,,,,,,,,,,,,,,,,,,,,,,,3.46742,0.302083333,-0.022222222,1,0,0,1.78486,yes,YEAST,YAMINI,incorrect,1,0,1,0,1,,,,,,,,,,,,,,,,,,,,,,,,,,,,,,,,,,,,,,,,,
,,,,,,,,,,00001472129,2020-10-12_16h02.59.793,swahili,2020.2.4,Win32,60,,,,,,,,,,,,,,,,,,,,,,,,,,,,,,,,,,,,,,,,,,,,,,11.735655,0.302083333,-0.022222222,1,0,0,1.55096,yes,GRAVE,DABURI,incorrect,2,0,2,0,1,,,,,,,,,,,,,,,,,,,,,,,,,,,,,,,,,,,,,,,,,
,,,,,,,,,,00001472129,2020-10-12_16h02.59.793,swahili,2020.2.4,Win32,60,,,,,,,,,,,,,,,,,,,,,,,,,,,,,,,,,,,,,,,,,,,,,,2.432385,0.302083333,-0.022222222,1,0,0,2.484015,yes,BLAME,LAWAMA,incorrect,3,0,3,0,1,,,,,,,,,,,,,,,,,,,,,,,,,,,,,,,,,,,,,,,,,
