condition,consent_key.keys,consent_key.rt,done_with_instructions.keys,done_with_instructions.rt,instr_loop.thisRepN,instr_loop.thisTrialN,instr_loop.thisN,instr_loop.thisIndex,instr_loop.ran,Student ID #,date,expName,psychopyVersion,OS,frameRate,instr_learning_key.keys,instr_learning_key.rt,card_gen_loop.thisRepN,card_gen_loop.thisTrialN,card_gen_loop.thisN,card_gen_loop.thisIndex,card_gen_loop.ran,swa,eng,choose_pile.x,choose_pile.y,choose_pile.leftButton,choose_pile.midButton,choose_pile.rightButton,choose_pile.time,choose_pile.clicked_name,choices.thisRepN,choices.thisTrialN,choices.thisN,choices.thisIndex,choices.ran,card_to_show,mouse_pick.x,mouse_pick.y,mouse_pick.leftButton,mouse_pick.midButton,mouse_pick.rightButton,mouse_pick.time,mouse_pick.clicked_name,key_instr_study.keys,next_study.keys,study_loop.thisRepN,study_loop.thisTrialN,study_loop.thisN,study_loop.thisIndex,study_loop.ran,key_instr_test.keys,key_instr_test.rt,duration,yes_or_no.x,yes_or_no.y,yes_or_no.leftButton,yes_or_no.midButton,yes_or_no.rightButton,yes_or_no.time,yes_or_no.clicked_name,test_response.stim,test_response.resp,test_response.eval,test_loop.thisRepN,test_loop.thisTrialN,test_loop.thisN,test_loop.thisIndex,test_loop.ran,learn_loop.thisRepN,learn_loop.thisTrialN,learn_loop.thisN,learn_loop.thisIndex,learn_loop.ran,trials.thisRepN,trials.thisTrialN,trials.thisN,trials.thisIndex,trials.ran,key_instr_study.rt,next_study.rt,instr_movie_key.keys,instr_movie_key.rt,return_to_exp.keys,return_to_exp.rt,instr_assess_key.keys,instr_assess_key.rt,assess_loop.thisRepN,assess_loop.thisTrialN,assess_loop.thisN,assess_loop.thisIndex,assess_loop.ran,ans_gen_loop.thisRepN,ans_gen_loop.thisTrialN,ans_gen_loop.thisN,ans_gen_loop.thisIndex,ans_gen_loop.ran,sen,ans,instr_transfer_key.keys,instr_transfer_key.rt,transfer_response.resp,transfer_response.eval,select_word.x,select_word.y,select_word.leftButton,select_word.midButton,select_word.rightButton,select_word.time,select_word.clicked_name,transfers.thisRepN,transfers.thisTrialN,transfers.thisN,transfers.thisIndex,transfers.ran,end_experiment.keys,end_experiment.rt
1,return,58.798785,return,14.919345,0,0,0,0,1,00001210123,2020-10-12_18h53.59.663,swahili,2020.2.4,MacIntel,60,,,,,,,,,,,,,,,,,,,,,,,,,,,,,,,,,,,,,,,,,,,,,,,,,,,,,,,,,,,,,,,,,,,,,,,,,,,,,,,,,,,,,,,,,,,,,,,,,,,,,,
,,,,,,,,,,00001210123,2020-10-12_18h53.59.663,swahili,2020.2.4,MacIntel,60,return,26.724265,0,0,0,0,1,TAJIRI,MERCHANT,,,,,,,,,,,,,,,,,,,,,,,,,,,,,,,,,,,,,,,,,,,,,,,,,,,,,,,,,,,,,,,,,,,,,,,,,,,,,,,,,,,,,,,,,,,,,
,,,,,,,,,,00001210123,2020-10-12_18h53.59.663,swahili,2020.2.4,MacIntel,60,,,0,1,1,1,1,KASUKU,PARROT,,,,,,,,,,,,,,,,,,,,,,,,,,,,,,,,,,,,,,,,,,,,,,,,,,,,,,,,,,,,,,,,,,,,,,,,,,,,,,,,,,,,,,,,,,,,,
,,,,,,,,,,00001210123,2020-10-12_18h53.59.663,swahili,2020.2.4,MacIntel,60,,,0,2,2,2,1,FAHILI,BULL,,,,,,,,,,,,,,,,,,,,,,,,,,,,,,,,,,,,,,,,,,,,,,,,,,,,,,,,,,,,,,,,,,,,,,,,,,,,,,,,,,,,,,,,,,,,,
,,,,,,,,,,00001210123,2020-10-12_18h53.59.663,swahili,2020.2.4,MacIntel,60,,,0,3,3,3,1,SAHANI,PLATE,,,,,,,,,,,,,,,,,,,,,,,,,,,,,,,,,,,,,,,,,,,,,,,,,,,,,,,,,,,,,,,,,,,,,,,,,,,,,,,,,,,,,,,,,,,,,
,,,,,,,,,,00001210123,2020-10-12_18h53.59.663,swahili,2020.2.4,MacIntel,60,,,0,4,4,4,1,HAMIRA,YEAST,,,,,,,,,,,,,,,,,,,,,,,,,,,,,,,,,,,,,,,,,,,,,,,,,,,,,,,,,,,,,,,,,,,,,,,,,,,,,,,,,,,,,,,,,,,,,
,,,,,,,,,,00001210123,2020-10-12_18h53.59.663,swahili,2020.2.4,MacIntel,60,,,0,5,5,5,1,LAWAMA,BLAME,,,,,,,,,,,,,,,,,,,,,,,,,,,,,,,,,,,,,,,,,,,,,,,,,,,,,,,,,,,,,,,,,,,,,,,,,,,,,,,,,,,,,,,,,,,,,
,,,,,,,,,,00001210123,2020-10-12_18h53.59.663,swahili,2020.2.4,MacIntel,60,,,0,6,6,6,1,YAMINI,OATH,,,,,,,,,,,,,,,,,,,,,,,,,,,,,,,,,,,,,,,,,,,,,,,,,,,,,,,,,,,,,,,,,,,,,,,,,,,,,,,,,,,,,,,,,,,,,
,,,,,,,,,,00001210123,2020-10-12_18h53.59.663,swahili,2020.2.4,MacIntel,60,,,0,7,7,7,1,NAFAKA,CORN,,,,,,,,,,,,,,,,,,,,,,,,,,,,,,,,,,,,,,,,,,,,,,,,,,,,,,,,,,,,,,,,,,,,,,,,,,,,,,,,,,,,,,,,,,,,,
,,,,,,,,,,00001210123,2020-10-12_18h53.59.663,swahili,2020.2.4,MacIntel,60,,,0,8,8,8,1,UTENZI,POEM,,,,,,,,,,,,,,,,,,,,,,,,,,,,,,,,,,,,,,,,,,,,,,,,,,,,,,,,,,,,,,,,,,,,,,,,,,,,,,,,,,,,,,,,,,,,,
,,,,,,,,,,00001210123,2020-10-12_18h53.59.663,swahili,2020.2.4,MacIntel,60,,,0,9,9,9,1,MSHONI,TAILOR,,,,,,,,,,,,,,,,,,,,,,,,,,,,,,,,,,,,,,,,,,,,,,,,,,,,,,,,,,,,,,,,,,,,,,,,,,,,,,,,,,,,,,,,,,,,,
,,,,,,,,,,00001210123,2020-10-12_18h53.59.663,swahili,2020.2.4,MacIntel,60,,,0,10,10,10,1,JIBINI,CHEESE,,,,,,,,,,,,,,,,,,,,,,,,,,,,,,,,,,,,,,,,,,,,,,,,,,,,,,,,,,,,,,,,,,,,,,,,,,,,,,,,,,,,,,,,,,,,,
,,,,,,,,,,00001210123,2020-10-12_18h53.59.663,swahili,2020.2.4,MacIntel,60,,,0,11,11,11,1,ZABIBU,GRAPES,,,,,,,,,,,,,,,,,,,,,,,,,,,,,,,,,,,,,,,,,,,,,,,,,,,,,,,,,,,,,,,,,,,,,,,,,,,,,,,,,,,,,,,,,,,,,
,,,,,,,,,,00001210123,2020-10-12_18h53.59.663,swahili,2020.2.4,MacIntel,60,,,0,12,12,12,1,KABURI,GRAVE,,,,,,,,,,,,,,,,,,,,,,,,,,,,,,,,,,,,,,,,,,,,,,,,,,,,,,,,,,,,,,,,,,,,,,,,,,,,,,,,,,,,,,,,,,,,,
,,,,,,,,,,00001210123,2020-10-12_18h53.59.663,swahili,2020.2.4,MacIntel,60,,,0,13,13,13,1,SAMADI,MANURE,,,,,,,,,,,,,,,,,,,,,,,,,,,,,,,,,,,,,,,,,,,,,,,,,,,,,,,,,,,,,,,,,,,,,,,,,,,,,,,,,,,,,,,,,,,,,
,,,,,,,,,,00001210123,2020-10-12_18h53.59.663,swahili,2020.2.4,MacIntel,60,,,0,14,14,14,1,WAKILI,AGENT,,,,,,,,,,,,,,,,,,,,,,,,,,,,,,,,,,,,,,,,,,,,,,,,,,,,,,,,,,,,,,,,,,,,,,,,,,,,,,,,,,,,,,,,,,,,,
,,,,,,,,,,00001210123,2020-10-12_18h53.59.663,swahili,2020.2.4,MacIntel,60,,,0,15,15,15,1,RUSHWA,BRIBE,,,,,,,,,,,,,,,,,,,,,,,,,,,,,,,,,,,,,,,,,,,,,,,,,,,,,,,,,,,,,,,,,,,,,,,,,,,,,,,,,,,,,,,,,,,,,
,,,,,,,,,,00001210123,2020-10-12_18h53.59.663,swahili,2020.2.4,MacIntel,60,,,0,16,16,16,1,YATIMA,ORPHAN,,,,,,,,,,,,,,,,,,,,,,,,,,,,,,,,,,,,,,,,,,,,,,,,,,,,,,,,,,,,,,,,,,,,,,,,,,,,,,,,,,,,,,,,,,,,,
,,,,,,,,,,00001210123,2020-10-12_18h53.59.663,swahili,2020.2.4,MacIntel,60,,,0,17,17,17,1,TALAKA,DIVORCE,,,,,,,,,,,,,,,,,,,,,,,,,,,,,,,,,,,,,,,,,,,,,,,,,,,,,,,,,,,,,,,,,,,,,,,,,,,,,,,,,,,,,,,,,,,,,
,,,,,,,,,,00001210123,2020-10-12_18h53.59.663,swahili,2020.2.4,MacIntel,60,,,0,18,18,18,1,MASHUA,BOAT,,,,,,,,,,,,,,,,,,,,,,,,,,,,,,,,,,,,,,,,,,,,,,,,,,,,,,,,,,,,,,,,,,,,,,,,,,,,,,,,,,,,,,,,,,,,,
,,,,,,,,,,00001210123,2020-10-12_18h53.59.663,swahili,2020.2.4,MacIntel,60,,,0,19,19,19,1,DAFINA,TREASURE,,,,,,,,,,,,,,,,,,,,,,,,,,,,,,,,,,,,,,,,,,,,,,,,,,,,,,,,,,,,,,,,,,,,,,,,,,,,,,,,,,,,,,,,,,,,,
,,,,,,,,,,00001210123,2020-10-12_18h53.59.663,swahili,2020.2.4,MacIntel,60,,,,,,,,,,-0.380430773,-0.040581597,1,0,0,4.92034,unsorted_card,0,0,0,0,1,,,,,,,,,,,,,,,,,,,,,,,,,,,,,,,,,,,,,,,,,,,,,,,,,,,,,,,,,,,,,,,,,,,,,,,,,,,,,,,,,
,,,,,,,,,,00001210123,2020-10-12_18h53.59.663,swahili,2020.2.4,MacIntel,60,,,,,,,,,,-0.380430773,-0.040581597,1,0,0,3.077745,unsorted_card,1,0,1,0,1,MERCHANT - TAJIRI,,,,,,,,,,,,,,,,,,,,,,,,,,,,,,,,,,,,,,,,,,,,,,,,,,,,,,,,,,,,,,,,,,,,,,,,,,,,,,,,
,,,,,,,,,,00001210123,2020-10-12_18h53.59.663,swahili,2020.2.4,MacIntel,60,,,,,,,,,,-0.198925781,-0.030477431,1,0,0,1.74777,unsorted_card,2,0,2,0,1,MERCHANT - TAJIRI,,,,,,,,,,,,,,,,,,,,,,,,,,,,,,,,,,,,,,,,,,,,,,,,,,,,,,,,,,,,,,,,,,,,,,,,,,,,,,,,
,,,,,,,,,,00001210123,2020-10-12_18h53.59.663,swahili,2020.2.4,MacIntel,60,,,,,,,,,,-0.189794922,-0.018116319,1,0,0,1.399235,unsorted_card,3,0,3,0,1,MERCHANT - TAJIRI,,,,,,,,,,,,,,,,,,,,,,,,,,,,,,,,,,,,,,,,,,,,,,,,,,,,,,,,,,,,,,,,,,,,,,,,,,,,,,,,
,,,,,,,,,,00001210123,2020-10-12_18h53.59.663,swahili,2020.2.4,MacIntel,60,,,,,,,,,,-0.243777127,-0.041571181,1,0,0,0.799185,unsorted_card,4,0,4,0,1,MERCHANT - TAJIRI,,,,,,,,,,,,,,,,,,,,,,,,,,,,,,,,,,,,,,,,,,,,,,,,,,,,,,,,,,,,,,,,,,,,,,,,,,,,,,,,
,,,,,,,,,,00001210123,2020-10-12_18h53.59.663,swahili,2020.2.4,MacIntel,60,,,,,,,,,,0.491541884,-0.017786458,1,0,0,0.599325,test_pile,5,0,5,0,1,MERCHANT - TAJIRI,,,,,,,,,,,,,,,,,,,,,,,,,,,,,,,,,,,,,,,,,,,,,,,,,,,,,,,,,,,,,,,,,,,,,,,,,,,,,,,,
,,,,,,,,,,00001210123,2020-10-12_18h53.59.663,swahili,2020.2.4,MacIntel,60,,,,,,,,,,-0.303917101,-0.092317708,1,0,0,1.048085,unsorted_card,6,0,6,0,1,,,,,,,,,,,,,,,,,,,,,,,,,,,,,,,,,,,,,,,,,,,,,,,,,,,,,,,,,,,,,,,,,,,,,,,,,,,,,,,,,
,,,,,,,,,,00001210123,2020-10-12_18h53.59.663,swahili,2020.2.4,MacIntel,60,,,,,,,,,,0.373947483,-0.015833333,1,0,0,2.166975,test_pile,7,0,7,0,1,PARROT - KASUKU,,,,,,,,,,,,,,,,,,,,,,,,,,,,,,,,,,,,,,,,,,,,,,,,,,,,,,,,,,,,,,,,,,,,,,,,,,,,,,,,
,,,,,,,,,,00001210123,2020-10-12_18h53.59.663,swahili,2020.2.4,MacIntel,60,,,,,,,,,,-0.471017795,-0.1121875,1,0,0,0.814395,unsorted_card,8,0,8,0,1,,,,,,,,,,,,,,,,,,,,,,,,,,,,,,,,,,,,,,,,,,,,,,,,,,,,,,,,,,,,,,,,,,,,,,,,,,,,,,,,,
,,,,,,,,,,00001210123,2020-10-12_18h53.59.663,swahili,2020.2.4,MacIntel,60,,,,,,,,,,0.348291016,-0.083793403,1,0,0,2.081745,test_pile,9,0,9,0,1,BULL - FAHILI,,,,,,,,,,,,,,,,,,,,,,,,,,,,,,,,,,,,,,,,,,,,,,,,,,,,,,,,,,,,,,,,,,,,,,,,,,,,,,,,
,,,,,,,,,,00001210123,2020-10-12_18h53.59.663,swahili,2020.2.4,MacIntel,60,,,,,,,,,,-0.298312717,-0.145520833,1,0,0,0.79867,unsorted_card,10,0,10,0,1,,,,,,,,,,,,,,,,,,,,,,,,,,,,,,,,,,,,,,,,,,,,,,,,,,,,,,,,,,,,,,,,,,,,,,,,,,,,,,,,,
,,,,,,,,,,00001210123,2020-10-12_18h53.59.663,swahili,2020.2.4,MacIntel,60,,,,,,,,,,0.388172743,-0.056527778,1,0,0,1.449665,test_pile,11,0,11,0,1,PLATE - SAHANI,,,,,,,,,,,,,,,,,,,,,,,,,,,,,,,,,,,,,,,,,,,,,,,,,,,,,,,,,,,,,,,,,,,,,,,,,,,,,,,,
,,,,,,,,,,00001210123,2020-10-12_18h53.59.663,swahili,2020.2.4,MacIntel,60,,,,,,,,,,-0.344661458,-0.055164931,1,0,0,0.74806,unsorted_card,12,0,12,0,1,,,,,,,,,,,,,,,,,,,,,,,,,,,,,,,,,,,,,,,,,,,,,,,,,,,,,,,,,,,,,,,,,,,,,,,,,,,,,,,,,
,,,,,,,,,,00001210123,2020-10-12_18h53.59.663,swahili,2020.2.4,MacIntel,60,,,,,,,,,,0.33586697,-0.039010417,1,0,0,1.382365,test_pile,13,0,13,0,1,YEAST - HAMIRA,,,,,,,,,,,,,,,,,,,,,,,,,,,,,,,,,,,,,,,,,,,,,,,,,,,,,,,,,,,,,,,,,,,,,,,,,,,,,,,,
,,,,,,,,,,00001210123,2020-10-12_18h53.59.663,swahili,2020.2.4,MacIntel,60,,,,,,,,,,-0.201155599,-0.041909722,1,0,0,0.63216,unsorted_card,14,0,14,0,1,,,,,,,,,,,,,,,,,,,,,,,,,,,,,,,,,,,,,,,,,,,,,,,,,,,,,,,,,,,,,,,,,,,,,,,,,,,,,,,,,
,,,,,,,,,,00001210123,2020-10-12_18h53.59.663,swahili,2020.2.4,MacIntel,60,,,,,,,,,,0.497146267,-0.006163194,1,0,0,0.981175,test_pile,15,0,15,0,1,BLAME - LAWAMA,,,,,,,,,,,,,,,,,,,,,,,,,,,,,,,,,,,,,,,,,,,,,,,,,,,,,,,,,,,,,,,,,,,,,,,,,,,,,,,,
,,,,,,,,,,00001210123,2020-10-12_18h53.59.663,swahili,2020.2.4,MacIntel,60,,,,,,,,,,-0.218077257,-0.083368056,1,0,0,0.74901,unsorted_card,16,0,16,0,1,,,,,,,,,,,,,,,,,,,,,,,,,,,,,,,,,,,,,,,,,,,,,,,,,,,,,,,,,,,,,,,,,,,,,,,,,,,,,,,,,
,,,,,,,,,,00001210123,2020-10-12_18h53.59.663,swahili,2020.2.4,MacIntel,60,,,,,,,,,,0.488275825,0.002682292,1,0,0,3.415275,test_pile,17,0,17,0,1,OATH - YAMINI,,,,,,,,,,,,,,,,,,,,,,,,,,,,,,,,,,,,,,,,,,,,,,,,,,,,,,,,,,,,,,,,,,,,,,,,,,,,,,,,
,,,,,,,,,,00001210123,2020-10-12_18h53.59.663,swahili,2020.2.4,MacIntel,60,,,,,,,,,,-0.227289497,-0.034861111,1,0,0,0.947915,unsorted_card,18,0,18,0,1,,,,,,,,,,,,,,,,,,,,,,,,,,,,,,,,,,,,,,,,,,,,,,,,,,,,,,,,,,,,,,,,,,,,,,,,,,,,,,,,,
,,,,,,,,,,00001210123,2020-10-12_18h53.59.663,swahili,2020.2.4,MacIntel,60,,,,,,,,,,0.427159288,0.030789931,1,0,0,1.049115,test_pile,19,0,19,0,1,CORN - NAFAKA,,,,,,,,,,,,,,,,,,,,,,,,,,,,,,,,,,,,,,,,,,,,,,,,,,,,,,,,,,,,,,,,,,,,,,,,,,,,,,,,
,,,,,,,,,,00001210123,2020-10-12_18h53.59.663,swahili,2020.2.4,MacIntel,60,,,,,,,,,,-0.215429687,-0.042552083,1,0,0,0.815295,unsorted_card,20,0,20,0,1,,,,,,,,,,,,,,,,,,,,,,,,,,,,,,,,,,,,,,,,,,,,,,,,,,,,,,,,,,,,,,,,,,,,,,,,,,,,,,,,,
,,,,,,,,,,00001210123,2020-10-12_18h53.59.663,swahili,2020.2.4,MacIntel,60,,,,,,,,,,0.523084852,-0.022100694,1,0,0,1.282545,test_pile,21,0,21,0,1,POEM - UTENZI,,,,,,,,,,,,,,,,,,,,,,,,,,,,,,,,,,,,,,,,,,,,,,,,,,,,,,,,,,,,,,,,,,,,,,,,,,,,,,,,
,,,,,,,,,,00001210123,2020-10-12_18h53.59.663,swahili,2020.2.4,MacIntel,60,,,,,,,,,,-0.138845486,-0.026111111,1,0,0,0.666515,unsorted_card,22,0,22,0,1,,,,,,,,,,,,,,,,,,,,,,,,,,,,,,,,,,,,,,,,,,,,,,,,,,,,,,,,,,,,,,,,,,,,,,,,,,,,,,,,,
,,,,,,,,,,00001210123,2020-10-12_18h53.59.663,swahili,2020.2.4,MacIntel,60,,,,,,,,,,0.53726671,-0.048949653,1,0,0,1.19743,test_pile,23,0,23,0,1,TAILOR - MSHONI,,,,,,,,,,,,,,,,,,,,,,,,,,,,,,,,,,,,,,,,,,,,,,,,,,,,,,,,,,,,,,,,,,,,,,,,,,,,,,,,
,,,,,,,,,,00001210123,2020-10-12_18h53.59.663,swahili,2020.2.4,MacIntel,60,,,,,,,,,,-0.183458116,-0.075130208,1,0,0,0.848535,unsorted_card,24,0,24,0,1,,,,,,,,,,,,,,,,,,,,,,,,,,,,,,,,,,,,,,,,,,,,,,,,,,,,,,,,,,,,,,,,,,,,,,,,,,,,,,,,,
,,,,,,,,,,00001210123,2020-10-12_18h53.59.663,swahili,2020.2.4,MacIntel,60,,,,,,,,,,0.37742513,-0.041414931,1,0,0,1.449475,test_pile,25,0,25,0,1,CHEESE - JIBINI,,,,,,,,,,,,,,,,,,,,,,,,,,,,,,,,,,,,,,,,,,,,,,,,,,,,,,,,,,,,,,,,,,,,,,,,,,,,,,,,
,,,,,,,,,,00001210123,2020-10-12_18h53.59.663,swahili,2020.2.4,MacIntel,60,,,,,,,,,,-0.366183811,-0.040616319,1,0,0,0.71503,unsorted_card,26,0,26,0,1,,,,,,,,,,,,,,,,,,,,,,,,,,,,,,,,,,,,,,,,,,,,,,,,,,,,,,,,,,,,,,,,,,,,,,,,,,,,,,,,,
,,,,,,,,,,00001210123,2020-10-12_18h53.59.663,swahili,2020.2.4,MacIntel,60,,,,,,,,,,0.393006727,-0.029678819,1,0,0,1.515555,test_pile,27,0,27,0,1,GRAPES - ZABIBU,,,,,,,,,,,,,,,,,,,,,,,,,,,,,,,,,,,,,,,,,,,,,,,,,,,,,,,,,,,,,,,,,,,,,,,,,,,,,,,,
,,,,,,,,,,00001210123,2020-10-12_18h53.59.663,swahili,2020.2.4,MacIntel,60,,,,,,,,,,-0.333566623,-0.03171875,1,0,0,0.815645,unsorted_card,28,0,28,0,1,,,,,,,,,,,,,,,,,,,,,,,,,,,,,,,,,,,,,,,,,,,,,,,,,,,,,,,,,,,,,,,,,,,,,,,,,,,,,,,,,
,,,,,,,,,,00001210123,2020-10-12_18h53.59.663,swahili,2020.2.4,MacIntel,60,,,,,,,,,,0.370274523,-0.0146875,1,0,0,2.06499,test_pile,29,0,29,0,1,GRAVE - KABURI,,,,,,,,,,,,,,,,,,,,,,,,,,,,,,,,,,,,,,,,,,,,,,,,,,,,,,,,,,,,,,,,,,,,,,,,,,,,,,,,
,,,,,,,,,,00001210123,2020-10-12_18h53.59.663,swahili,2020.2.4,MacIntel,60,,,,,,,,,,-0.379828559,-0.194852431,1,0,0,0.731925,unsorted_card,30,0,30,0,1,,,,,,,,,,,,,,,,,,,,,,,,,,,,,,,,,,,,,,,,,,,,,,,,,,,,,,,,,,,,,,,,,,,,,,,,,,,,,,,,,
,,,,,,,,,,00001210123,2020-10-12_18h53.59.663,swahili,2020.2.4,MacIntel,60,,,,,,,,,,0.462863498,-0.108541667,1,0,0,2.098315,test_pile,31,0,31,0,1,MANURE - SAMADI,,,,,,,,,,,,,,,,,,,,,,,,,,,,,,,,,,,,,,,,,,,,,,,,,,,,,,,,,,,,,,,,,,,,,,,,,,,,,,,,
,,,,,,,,,,00001210123,2020-10-12_18h53.59.663,swahili,2020.2.4,MacIntel,60,,,,,,,,,,-0.133344184,-0.071414931,1,0,0,0.715665,unsorted_card,32,0,32,0,1,,,,,,,,,,,,,,,,,,,,,,,,,,,,,,,,,,,,,,,,,,,,,,,,,,,,,,,,,,,,,,,,,,,,,,,,,,,,,,,,,
,,,,,,,,,,00001210123,2020-10-12_18h53.59.663,swahili,2020.2.4,MacIntel,60,,,,,,,,,,0.516688368,-0.025902778,1,0,0,1.61653,test_pile,33,0,33,0,1,AGENT - WAKILI,,,,,,,,,,,,,,,,,,,,,,,,,,,,,,,,,,,,,,,,,,,,,,,,,,,,,,,,,,,,,,,,,,,,,,,,,,,,,,,,
,,,,,,,,,,00001210123,2020-10-12_18h53.59.663,swahili,2020.2.4,MacIntel,60,,,,,,,,,,-0.21999783,-0.052586806,1,0,0,0.714085,unsorted_card,34,0,34,0,1,,,,,,,,,,,,,,,,,,,,,,,,,,,,,,,,,,,,,,,,,,,,,,,,,,,,,,,,,,,,,,,,,,,,,,,,,,,,,,,,,
,,,,,,,,,,00001210123,2020-10-12_18h53.59.663,swahili,2020.2.4,MacIntel,60,,,,,,,,,,0.421934679,-0.012743056,1,0,0,1.832735,test_pile,35,0,35,0,1,BRIBE - RUSHWA,,,,,,,,,,,,,,,,,,,,,,,,,,,,,,,,,,,,,,,,,,,,,,,,,,,,,,,,,,,,,,,,,,,,,,,,,,,,,,,,
,,,,,,,,,,00001210123,2020-10-12_18h53.59.663,swahili,2020.2.4,MacIntel,60,,,,,,,,,,-0.401828342,-0.019131944,1,0,0,0.748585,unsorted_card,36,0,36,0,1,,,,,,,,,,,,,,,,,,,,,,,,,,,,,,,,,,,,,,,,,,,,,,,,,,,,,,,,,,,,,,,,,,,,,,,,,,,,,,,,,
,,,,,,,,,,00001210123,2020-10-12_18h53.59.663,swahili,2020.2.4,MacIntel,60,,,,,,,,,,0.37569987,-0.0515625,1,0,0,2.13218,test_pile,37,0,37,0,1,ORPHAN - YATIMA,,,,,,,,,,,,,,,,,,,,,,,,,,,,,,,,,,,,,,,,,,,,,,,,,,,,,,,,,,,,,,,,,,,,,,,,,,,,,,,,
,,,,,,,,,,00001210123,2020-10-12_18h53.59.663,swahili,2020.2.4,MacIntel,60,,,,,,,,,,-0.206054688,-0.052013889,1,0,0,0.864965,unsorted_card,38,0,38,0,1,,,,,,,,,,,,,,,,,,,,,,,,,,,,,,,,,,,,,,,,,,,,,,,,,,,,,,,,,,,,,,,,,,,,,,,,,,,,,,,,,
,,,,,,,,,,00001210123,2020-10-12_18h53.59.663,swahili,2020.2.4,MacIntel,60,,,,,,,,,,0.41858724,-0.007256944,1,0,0,1.882565,test_pile,39,0,39,0,1,DIVORCE - TALAKA,,,,,,,,,,,,,,,,,,,,,,,,,,,,,,,,,,,,,,,,,,,,,,,,,,,,,,,,,,,,,,,,,,,,,,,,,,,,,,,,
,,,,,,,,,,00001210123,2020-10-12_18h53.59.663,swahili,2020.2.4,MacIntel,60,,,,,,,,,,-0.19147678,0.063723958,1,0,0,1.030975,unsorted_card,40,0,40,0,1,,,,,,,,,,,,,,,,,,,,,,,,,,,,,,,,,,,,,,,,,,,,,,,,,,,,,,,,,,,,,,,,,,,,,,,,,,,,,,,,,
,,,,,,,,,,00001210123,2020-10-12_18h53.59.663,swahili,2020.2.4,MacIntel,60,,,,,,,,,,0.466384549,-0.1328125,1,0,0,1.449355,test_pile,41,0,41,0,1,BOAT - MASHUA,,,,,,,,,,,,,,,,,,,,,,,,,,,,,,,,,,,,,,,,,,,,,,,,,,,,,,,,,,,,,,,,,,,,,,,,,,,,,,,,
,,,,,,,,,,00001210123,2020-10-12_18h53.59.663,swahili,2020.2.4,MacIntel,60,,,,,,,,,,-0.117475043,-0.1253125,1,0,0,0.948595,unsorted_card,42,0,42,0,1,,,,,,,,,,,,,,,,,,,,,,,,,,,,,,,,,,,,,,,,,,,,,,,,,,,,,,,,,,,,,,,,,,,,,,,,,,,,,,,,,
,,,,,,,,,,00001210123,2020-10-12_18h53.59.663,swahili,2020.2.4,MacIntel,60,,,,,,,,,,0.445171441,-0.056597222,1,0,0,1.01526,test_pile,43,0,43,0,1,TREASURE - DAFINA,,,,,,,,,,,,,,,,,,,,,,,,,,,,,,,,,,,,,,,,,,,,,,,,,,,,,,,,,,,,,,,,,,,,,,,,,,,,,,,,
,,,,,,,,,,00001210123,2020-10-12_18h53.59.663,swahili,2020.2.4,MacIntel,60,,,,,,,,,,,,,,,,,,,,,,,,,,,,,,,,0,0,0,0,1,,,,,,,,,,,,,,,,,,,,,,,,,,,,,,,,,,,,,,,,,,,,,,,,,,,,,,,,,,,,,,,,,,
,,,,,,,,,,00001210123,2020-10-12_18h53.59.663,swahili,2020.2.4,MacIntel,60,,,,,,,,,,,,,,,,,,,,,,,,,,,,,,,,,,,,,return,3.81188,15.14701,0.329248047,-0.063515625,1,0,0,1.99837,yes,TAILOR,NA,incorrect,0,0,0,0,1,,,,,,,,,,,,,,,,,,,,,,,,,,,,,,,,,,,,,,,,,,,,,,,,
,,,,,,,,,,00001210123,2020-10-12_18h53.59.663,swahili,2020.2.4,MacIntel,60,,,,,,,,,,,,,,,,,,,,,,,,,,,,,,,,,,,,,,,5.932195,0.461903212,-0.230407986,1,0,0,1.183145,yes,MANURE,KATUSHI,incorrect,1,0,1,0,1,,,,,,,,,,,,,,,,,,,,,,,,,,,,,,,,,,,,,,,,,,,,,,,,
,,,,,,,,,,00001210123,2020-10-12_18h53.59.663,swahili,2020.2.4,MacIntel,60,,,,,,,,,,,,,,,,,,,,,,,,,,,,,,,,,,,,,,,6.081085,0.345865885,-0.076979167,1,0,0,1.550685,yes,OATH,IDK,incorrect,2,0,2,0,1,,,,,,,,,,,,,,,,,,,,,,,,,,,,,,,,,,,,,,,,,,,,,,,,
,,,,,,,,,,00001210123,2020-10-12_18h53.59.663,swahili,2020.2.4,MacIntel,60,,,,,,,,,,,,,,,,,,,,,,,,,,,,,,,,,,,,,,,8.18172,0.483344184,-0.031501736,1,0,0,1.1665,yes,PARROT,IDK,incorrect,3,0,3,0,1,,,,,,,,,,,,,,,,,,,,,,,,,,,,,,,,,,,,,,,,,,,,,,,,
,,,,,,,,,,00001210123,2020-10-12_18h53.59.663,swahili,2020.2.4,MacIntel,60,,,,,,,,,,,,,,,,,,,,,,,,,,,,,,,,,,,,,,,5.298565,0.368006727,-0.202942708,1,0,0,1.18263,yes,GRAPES,UVAS,incorrect,4,0,4,0,1,,,,,,,,,,,,,,,,,,,,,,,,,,,,,,,,,,,,,,,,,,,,,,,,
,,,,,,,,,,00001210123,2020-10-12_18h53.59.663,swahili,2020.2.4,MacIntel,60,,,,,,,,,,,,,,,,,,,,,,,,,,,,,,,,,,,,,,,15.79783,0.36820204,-0.012847222,1,0,0,1.34955,yes,DIVORCE,TAKALA,incorrect,5,0,5,0,1,,,,,,,,,,,,,,,,,,,,,,,,,,,,,,,,,,,,,,,,,,,,,,,,
,,,,,,,,,,00001210123,2020-10-12_18h53.59.663,swahili,2020.2.4,MacIntel,60,,,,,,,,,,,,,,,,,,,,,,,,,,,,,,,,,,,,,,,4.24824,0.387722439,0.007682292,1,0,0,1.082875,yes,GRAVE,NA,incorrect,6,0,6,0,1,,,,,,,,,,,,,,,,,,,,,,,,,,,,,,,,,,,,,,,,,,,,,,,,
,,,,,,,,,,00001210123,2020-10-12_18h53.59.663,swahili,2020.2.4,MacIntel,60,,,,,,,,,,,,,,,,,,,,,,,,,,,,,,,,,,,,,,,6.349335,0.424104818,0.011883681,1,0,0,1.199715,yes,BLAME,NA,incorrect,7,0,7,0,1,,,,,,,,,,,,,,,,,,,,,,,,,,,,,,,,,,,,,,,,,,,,,,,,
,,,,,,,,,,00001210123,2020-10-12_18h53.59.663,swahili,2020.2.4,MacIntel,60,,,,,,,,,,,,,,,,,,,,,,,,,,,,,,,,,,,,,,,2.132435,-0.379622396,-0.048784722,1,0,0,1.949205,no,TREASURE,NA,incorrect,8,0,8,0,1,,,,,,,,,,,,,,,,,,,,,,,,,,,,,,,,,,,,,,,,,,,,,,,,
,,,,,,,,,,00001210123,2020-10-12_18h53.59.663,swahili,2020.2.4,MacIntel,60,,,,,,,,,,,,,,,,,,,,,,,,,,,,,,,,,,,,,,,3.24823,0.502284071,-0.013142361,1,0,0,1.982385,yes,CHEESE,QUESO,incorrect,9,0,9,0,1,,,,,,,,,,,,,,,,,,,,,,,,,,,,,,,,,,,,,,,,,,,,,,,,
,,,,,,,,,,00001210123,2020-10-12_18h53.59.663,swahili,2020.2.4,MacIntel,60,,,,,,,,,,,,,,,,,,,,,,,,,,,,,,,,,,,,,,,31.865255,-0.556678602,0.230503472,1,0,0,0.66615,no,BULL,NA,incorrect,10,0,10,0,1,,,,,,,,,,,,,,,,,,,,,,,,,,,,,,,,,,,,,,,,,,,,,,,,
,,,,,,,,,,00001210123,2020-10-12_18h53.59.663,swahili,2020.2.4,MacIntel,60,,,,,,,,,,,,,,,,,,,,,,,,,,,,,,,,,,,,,,,1.563455,-0.363883464,-0.043862847,1,0,0,0.58476,no,AGENT,NA,incorrect,11,0,11,0,1,,,,,,,,,,,,,,,,,,,,,,,,,,,,,,,,,,,,,,,,,,,,,,,,
,,,,,,,,,,00001210123,2020-10-12_18h53.59.663,swahili,2020.2.4,MacIntel,60,,,,,,,,,,,,,,,,,,,,,,,,,,,,,,,,,,,,,,,2.430185,0.298947483,-0.074748264,1,0,0,0.96732,yes,PLATE,PLATO,incorrect,12,0,12,0,1,,,,,,,,,,,,,,,,,,,,,,,,,,,,,,,,,,,,,,,,,,,,,,,,
,,,,,,,,,,00001210123,2020-10-12_18h53.59.663,swahili,2020.2.4,MacIntel,60,,,,,,,,,,,,,,,,,,,,,,,,,,,,,,,,,,,,,,,3.548545,-0.438183594,-0.054505208,1,0,0,0.651315,no,POEM,MA,incorrect,13,0,13,0,1,,,,,,,,,,,,,,,,,,,,,,,,,,,,,,,,,,,,,,,,,,,,,,,,
,,,,,,,,,,00001210123,2020-10-12_18h53.59.663,swahili,2020.2.4,MacIntel,60,,,,,,,,,,,,,,,,,,,,,,,,,,,,,,,,,,,,,,,1.37886,-0.317046441,-0.047421875,1,0,0,0.6336,no,ORPHAN,NA,incorrect,14,0,14,0,1,,,,,,,,,,,,,,,,,,,,,,,,,,,,,,,,,,,,,,,,,,,,,,,,
,,,,,,,,,,00001210123,2020-10-12_18h53.59.663,swahili,2020.2.4,MacIntel,60,,,,,,,,,,,,,,,,,,,,,,,,,,,,,,,,,,,,,,,1.297295,-0.347558594,-0.043420139,1,0,0,0.533155,no,BOAT,NA,incorrect,15,0,15,0,1,,,,,,,,,,,,,,,,,,,,,,,,,,,,,,,,,,,,,,,,,,,,,,,,
,,,,,,,,,,00001210123,2020-10-12_18h53.59.663,swahili,2020.2.4,MacIntel,60,,,,,,,,,,,,,,,,,,,,,,,,,,,,,,,,,,,,,,,1.364875,-0.317800564,-0.098133681,1,0,0,0.717875,no,CORN,NA,incorrect,16,0,16,0,1,,,,,,,,,,,,,,,,,,,,,,,,,,,,,,,,,,,,,,,,,,,,,,,,
,,,,,,,,,,00001210123,2020-10-12_18h53.59.663,swahili,2020.2.4,MacIntel,60,,,,,,,,,,,,,,,,,,,,,,,,,,,,,,,,,,,,,,,1.461245,-0.329633247,-0.037881944,1,0,0,0.784115,no,YEAST,NA,incorrect,17,0,17,0,1,,,,,,,,,,,,,,,,,,,,,,,,,,,,,,,,,,,,,,,,,,,,,,,,
,,,,,,,,,,00001210123,2020-10-12_18h53.59.663,swahili,2020.2.4,MacIntel,60,,,,,,,,,,,,,,,,,,,,,,,,,,,,,,,,,,,,,,,1.34809,-0.329633247,-0.037881944,1,0,0,0.66676,no,BRIBE,NA,incorrect,18,0,18,0,1,,,,,,,,,,,,,,,,,,,,,,,,,,,,,,,,,,,,,,,,,,,,,,,,
,,,,,,,,,,00001210123,2020-10-12_18h53.59.663,swahili,2020.2.4,MacIntel,60,,,,,,,,,,,,,,,,,,,,,,,,,,,,,,,,,,,,,,,1.314595,-0.329633247,-0.037881944,1,0,0,0.49986,no,MERCHANT,NA,incorrect,19,0,19,0,1,,,,,,,,,,,,,,,,,,,,,,,,,,,,,,,,,,,,,,,,,,,,,,,,
,,,,,,,,,,00001210123,2020-10-12_18h53.59.663,swahili,2020.2.4,MacIntel,60,,,,,,,,,,,,,,,,,,,,,,,,,,,,,,,,,,,,,,,,,,,,,,,,,,,,,,,0,0,0,0,1,,,,,,,,,,,,,,,,,,,,,,,,,,,,,,,,,,,,,,,,,,,
,,,,,,,,,,00001210123,2020-10-12_18h53.59.663,swahili,2020.2.4,MacIntel,60,,,,,,,,,,,,,,,,,,,,,,,,,,,,,,,,,,,,,,,,,,,,,,,,,,,,,,,1,0,1,0,1,,,,,,,,,,,,,,,,,,,,,,,,,,,,,,,,,,,,,,,,,,,
,,,,,,,,,,00001210123,2020-10-12_18h53.59.663,swahili,2020.2.4,MacIntel,60,,,,,,,,,,,,,,,,,,,,,,,,,,,,,,,,,,,,,,,,,,,,,,,,,,,,,,,,,,,,0,0,0,0,1,,,,,,,,,,,,,,,,,,,,,,,,,,,,,,,,,,,,,,
,,,,,,,,,,00001210123,2020-10-12_18h53.59.663,swahili,2020.2.4,MacIntel,60,,,,,,,,,,-0.329633247,-0.037881944,1,0,0,1.145495,unsorted_card,0,0,0,0,1,,,,,,,,,,,,,,,,,,,,,,,,,,,,,,,,,,,,,,,,,,,,,,,,,,,,,,,,,,,,,,,,,,,,,,,,,,,,,,,,,
,,,,,,,,,,00001210123,2020-10-12_18h53.59.663,swahili,2020.2.4,MacIntel,60,,,,,,,,,,-0.244303385,-0.050833333,1,0,0,4.232355,unsorted_card,1,0,1,0,1,MERCHANT - TAJIRI,,,,,,,,,,,,,,,,,,,,,,,,,,,,,,,,,,,,,,,,,,,,,,,,,,,,,,,,,,,,,,,,,,,,,,,,,,,,,,,,
,,,,,,,,,,00001210123,2020-10-12_18h53.59.663,swahili,2020.2.4,MacIntel,60,,,,,,,,,,0.457834201,0.454236111,1,0,0,2.08205,study_pile,2,0,2,0,1,MERCHANT - TAJIRI,,,,,,,,,,,,,,,,,,,,,,,,,,,,,,,,,,,,,,,,,,,,,,,,,,,,,,,,,,,,,,,,,,,,,,,,,,,,,,,,
,,,,,,,,,,00001210123,2020-10-12_18h53.59.663,swahili,2020.2.4,MacIntel,60,,,,,,,,,,-0.375406901,-0.115225694,1,0,0,0.83234,unsorted_card,3,0,3,0,1,,,,,,,,,,,,,,,,,,,,,,,,,,,,,,,,,,,,,,,,,,,,,,,,,,,,,,,,,,,,,,,,,,,,,,,,,,,,,,,,,
,,,,,,,,,,00001210123,2020-10-12_18h53.59.663,swahili,2020.2.4,MacIntel,60,,,,,,,,,,0.433175998,0.379357639,1,0,0,1.36575,study_pile,4,0,4,0,1,PARROT - KASUKU,,,,,,,,,,,,,,,,,,,,,,,,,,,,,,,,,,,,,,,,,,,,,,,,,,,,,,,,,,,,,,,,,,,,,,,,,,,,,,,,
,,,,,,,,,,00001210123,2020-10-12_18h53.59.663,swahili,2020.2.4,MacIntel,60,,,,,,,,,,-0.336724175,-0.089921875,1,0,0,0.682565,unsorted_card,5,0,5,0,1,,,,,,,,,,,,,,,,,,,,,,,,,,,,,,,,,,,,,,,,,,,,,,,,,,,,,,,,,,,,,,,,,,,,,,,,,,,,,,,,,
,,,,,,,,,,00001210123,2020-10-12_18h53.59.663,swahili,2020.2.4,MacIntel,60,,,,,,,,,,0.426942274,0.516857639,1,0,0,0.81465,study_pile,6,0,6,0,1,BULL - FAHILI,,,,,,,,,,,,,,,,,,,,,,,,,,,,,,,,,,,,,,,,,,,,,,,,,,,,,,,,,,,,,,,,,,,,,,,,,,,,,,,,
,,,,,,,,,,00001210123,2020-10-12_18h53.59.663,swahili,2020.2.4,MacIntel,60,,,,,,,,,,-0.259814453,0.002517361,1,0,0,0.51689,unsorted_card,7,0,7,0,1,,,,,,,,,,,,,,,,,,,,,,,,,,,,,,,,,,,,,,,,,,,,,,,,,,,,,,,,,,,,,,,,,,,,,,,,,,,,,,,,,
,,,,,,,,,,00001210123,2020-10-12_18h53.59.663,swahili,2020.2.4,MacIntel,60,,,,,,,,,,0.516834852,0.515746528,1,0,0,1.79803,study_pile,8,0,8,0,1,PLATE - SAHANI,,,,,,,,,,,,,,,,,,,,,,,,,,,,,,,,,,,,,,,,,,,,,,,,,,,,,,,,,,,,,,,,,,,,,,,,,,,,,,,,
,,,,,,,,,,00001210123,2020-10-12_18h53.59.663,swahili,2020.2.4,MacIntel,60,,,,,,,,,,-0.189051649,0.239427083,1,0,0,0.634125,unsorted_card,9,0,9,0,1,,,,,,,,,,,,,,,,,,,,,,,,,,,,,,,,,,,,,,,,,,,,,,,,,,,,,,,,,,,,,,,,,,,,,,,,,,,,,,,,,
,,,,,,,,,,00001210123,2020-10-12_18h53.59.663,swahili,2020.2.4,MacIntel,60,,,,,,,,,,0.501139323,0.500980903,1,0,0,0.94833,study_pile,10,0,10,0,1,YEAST - HAMIRA,,,,,,,,,,,,,,,,,,,,,,,,,,,,,,,,,,,,,,,,,,,,,,,,,,,,,,,,,,,,,,,,,,,,,,,,,,,,,,,,
,,,,,,,,,,00001210123,2020-10-12_18h53.59.663,swahili,2020.2.4,MacIntel,60,,,,,,,,,,-0.247129991,-0.047873264,1,0,0,0.61497,unsorted_card,11,0,11,0,1,,,,,,,,,,,,,,,,,,,,,,,,,,,,,,,,,,,,,,,,,,,,,,,,,,,,,,,,,,,,,,,,,,,,,,,,,,,,,,,,,
,,,,,,,,,,00001210123,2020-10-12_18h53.59.663,swahili,2020.2.4,MacIntel,60,,,,,,,,,,0.459147135,0.384253472,1,0,0,1.64978,study_pile,12,0,12,0,1,BLAME - LAWAMA,,,,,,,,,,,,,,,,,,,,,,,,,,,,,,,,,,,,,,,,,,,,,,,,,,,,,,,,,,,,,,,,,,,,,,,,,,,,,,,,
,,,,,,,,,,00001210123,2020-10-12_18h53.59.663,swahili,2020.2.4,MacIntel,60,,,,,,,,,,-0.426915148,-0.122447917,1,0,0,0.564575,unsorted_card,13,0,13,0,1,,,,,,,,,,,,,,,,,,,,,,,,,,,,,,,,,,,,,,,,,,,,,,,,,,,,,,,,,,,,,,,,,,,,,,,,,,,,,,,,,
,,,,,,,,,,00001210123,2020-10-12_18h53.59.663,swahili,2020.2.4,MacIntel,60,,,,,,,,,,0.445377604,0.010503472,1,0,0,1.34881,test_pile,14,0,14,0,1,OATH - YAMINI,,,,,,,,,,,,,,,,,,,,,,,,,,,,,,,,,,,,,,,,,,,,,,,,,,,,,,,,,,,,,,,,,,,,,,,,,,,,,,,,
,,,,,,,,,,00001210123,2020-10-12_18h53.59.663,swahili,2020.2.4,MacIntel,60,,,,,,,,,,-0.342643229,0.027604167,1,0,0,0.666035,unsorted_card,15,0,15,0,1,,,,,,,,,,,,,,,,,,,,,,,,,,,,,,,,,,,,,,,,,,,,,,,,,,,,,,,,,,,,,,,,,,,,,,,,,,,,,,,,,
,,,,,,,,,,00001210123,2020-10-12_18h53.59.663,swahili,2020.2.4,MacIntel,60,,,,,,,,,,0.365196398,0.405538194,1,0,0,2.06459,study_pile,16,0,16,0,1,CORN - NAFAKA,,,,,,,,,,,,,,,,,,,,,,,,,,,,,,,,,,,,,,,,,,,,,,,,,,,,,,,,,,,,,,,,,,,,,,,,,,,,,,,,
,,,,,,,,,,00001210123,2020-10-12_18h53.59.663,swahili,2020.2.4,MacIntel,60,,,,,,,,,,-0.433403863,-0.077552083,1,0,0,0.56585,unsorted_card,17,0,17,0,1,,,,,,,,,,,,,,,,,,,,,,,,,,,,,,,,,,,,,,,,,,,,,,,,,,,,,,,,,,,,,,,,,,,,,,,,,,,,,,,,,
,,,,,,,,,,00001210123,2020-10-12_18h53.59.663,swahili,2020.2.4,MacIntel,60,,,,,,,,,,0.363888889,0.448723958,1,0,0,1.165955,study_pile,18,0,18,0,1,POEM - UTENZI,,,,,,,,,,,,,,,,,,,,,,,,,,,,,,,,,,,,,,,,,,,,,,,,,,,,,,,,,,,,,,,,,,,,,,,,,,,,,,,,
,,,,,,,,,,00001210123,2020-10-12_18h53.59.663,swahili,2020.2.4,MacIntel,60,,,,,,,,,,-0.284472656,0.034513889,1,0,0,0.71485,unsorted_card,19,0,19,0,1,,,,,,,,,,,,,,,,,,,,,,,,,,,,,,,,,,,,,,,,,,,,,,,,,,,,,,,,,,,,,,,,,,,,,,,,,,,,,,,,,
,,,,,,,,,,00001210123,2020-10-12_18h53.59.663,swahili,2020.2.4,MacIntel,60,,,,,,,,,,0.389919705,0.46328125,1,0,0,1.349115,study_pile,20,0,20,0,1,TAILOR - MSHONI,,,,,,,,,,,,,,,,,,,,,,,,,,,,,,,,,,,,,,,,,,,,,,,,,,,,,,,,,,,,,,,,,,,,,,,,,,,,,,,,
,,,,,,,,,,00001210123,2020-10-12_18h53.59.663,swahili,2020.2.4,MacIntel,60,,,,,,,,,,-0.232899306,0.081171875,1,0,0,0.699365,unsorted_card,21,0,21,0,1,,,,,,,,,,,,,,,,,,,,,,,,,,,,,,,,,,,,,,,,,,,,,,,,,,,,,,,,,,,,,,,,,,,,,,,,,,,,,,,,,
,,,,,,,,,,00001210123,2020-10-12_18h53.59.663,swahili,2020.2.4,MacIntel,60,,,,,,,,,,0.478797743,-0.057230903,1,0,0,1.299765,test_pile,22,0,22,0,1,CHEESE - JIBINI,,,,,,,,,,,,,,,,,,,,,,,,,,,,,,,,,,,,,,,,,,,,,,,,,,,,,,,,,,,,,,,,,,,,,,,,,,,,,,,,
,,,,,,,,,,00001210123,2020-10-12_18h53.59.663,swahili,2020.2.4,MacIntel,60,,,,,,,,,,-0.308642578,-0.031918403,1,0,0,1.015785,unsorted_card,23,0,23,0,1,,,,,,,,,,,,,,,,,,,,,,,,,,,,,,,,,,,,,,,,,,,,,,,,,,,,,,,,,,,,,,,,,,,,,,,,,,,,,,,,,
,,,,,,,,,,00001210123,2020-10-12_18h53.59.663,swahili,2020.2.4,MacIntel,60,,,,,,,,,,0.404264323,0.002786458,1,0,0,3.16413,test_pile,24,0,24,0,1,GRAPES - ZABIBU,,,,,,,,,,,,,,,,,,,,,,,,,,,,,,,,,,,,,,,,,,,,,,,,,,,,,,,,,,,,,,,,,,,,,,,,,,,,,,,,
,,,,,,,,,,00001210123,2020-10-12_18h53.59.663,swahili,2020.2.4,MacIntel,60,,,,,,,,,,-0.318815104,-0.085130208,1,0,0,0.51712,unsorted_card,25,0,25,0,1,,,,,,,,,,,,,,,,,,,,,,,,,,,,,,,,,,,,,,,,,,,,,,,,,,,,,,,,,,,,,,,,,,,,,,,,,,,,,,,,,
,,,,,,,,,,00001210123,2020-10-12_18h53.59.663,swahili,2020.2.4,MacIntel,60,,,,,,,,,,0.479844835,-0.01078125,1,0,0,1.548515,test_pile,26,0,26,0,1,GRAVE - KABURI,,,,,,,,,,,,,,,,,,,,,,,,,,,,,,,,,,,,,,,,,,,,,,,,,,,,,,,,,,,,,,,,,,,,,,,,,,,,,,,,
,,,,,,,,,,00001210123,2020-10-12_18h53.59.663,swahili,2020.2.4,MacIntel,60,,,,,,,,,,-0.250358073,-0.078949653,1,0,0,0.614845,unsorted_card,27,0,27,0,1,,,,,,,,,,,,,,,,,,,,,,,,,,,,,,,,,,,,,,,,,,,,,,,,,,,,,,,,,,,,,,,,,,,,,,,,,,,,,,,,,
,,,,,,,,,,00001210123,2020-10-12_18h53.59.663,swahili,2020.2.4,MacIntel,60,,,,,,,,,,0.412364366,0.023342014,1,0,0,1.54979,test_pile,28,0,28,0,1,MANURE - SAMADI,,,,,,,,,,,,,,,,,,,,,,,,,,,,,,,,,,,,,,,,,,,,,,,,,,,,,,,,,,,,,,,,,,,,,,,,,,,,,,,,
,,,,,,,,,,00001210123,2020-10-12_18h53.59.663,swahili,2020.2.4,MacIntel,60,,,,,,,,,,-0.318581814,-0.002578125,1,0,0,0.799285,unsorted_card,29,0,29,0,1,,,,,,,,,,,,,,,,,,,,,,,,,,,,,,,,,,,,,,,,,,,,,,,,,,,,,,,,,,,,,,,,,,,,,,,,,,,,,,,,,
,,,,,,,,,,00001210123,2020-10-12_18h53.59.663,swahili,2020.2.4,MacIntel,60,,,,,,,,,,0.233588325,0.344331597,1,0,0,1.198235,study_pile,30,0,30,0,1,AGENT - WAKILI,,,,,,,,,,,,,,,,,,,,,,,,,,,,,,,,,,,,,,,,,,,,,,,,,,,,,,,,,,,,,,,,,,,,,,,,,,,,,,,,
,,,,,,,,,,00001210123,2020-10-12_18h53.59.663,swahili,2020.2.4,MacIntel,60,,,,,,,,,,-0.408273655,-0.100069444,1,0,0,0.51464,unsorted_card,31,0,31,0,1,,,,,,,,,,,,,,,,,,,,,,,,,,,,,,,,,,,,,,,,,,,,,,,,,,,,,,,,,,,,,,,,,,,,,,,,,,,,,,,,,
,,,,,,,,,,00001210123,2020-10-12_18h53.59.663,swahili,2020.2.4,MacIntel,60,,,,,,,,,,0.394504123,0.518072917,1,0,0,1.09914,study_pile,32,0,32,0,1,BRIBE - RUSHWA,,,,,,,,,,,,,,,,,,,,,,,,,,,,,,,,,,,,,,,,,,,,,,,,,,,,,,,,,,,,,,,,,,,,,,,,,,,,,,,,
,,,,,,,,,,00001210123,2020-10-12_18h53.59.663,swahili,2020.2.4,MacIntel,60,,,,,,,,,,-0.357394748,-0.047196181,1,0,0,0.56549,unsorted_card,33,0,33,0,1,,,,,,,,,,,,,,,,,,,,,,,,,,,,,,,,,,,,,,,,,,,,,,,,,,,,,,,,,,,,,,,,,,,,,,,,,,,,,,,,,
,,,,,,,,,,00001210123,2020-10-12_18h53.59.663,swahili,2020.2.4,MacIntel,60,,,,,,,,,,0.387017144,0.521137153,1,0,0,1.55015,study_pile,34,0,34,0,1,ORPHAN - YATIMA,,,,,,,,,,,,,,,,,,,,,,,,,,,,,,,,,,,,,,,,,,,,,,,,,,,,,,,,,,,,,,,,,,,,,,,,,,,,,,,,
,,,,,,,,,,00001210123,2020-10-12_18h53.59.663,swahili,2020.2.4,MacIntel,60,,,,,,,,,,-0.332253689,-0.053784722,1,0,0,0.69813,unsorted_card,35,0,35,0,1,,,,,,,,,,,,,,,,,,,,,,,,,,,,,,,,,,,,,,,,,,,,,,,,,,,,,,,,,,,,,,,,,,,,,,,,,,,,,,,,,
,,,,,,,,,,00001210123,2020-10-12_18h53.59.663,swahili,2020.2.4,MacIntel,60,,,,,,,,,,0.463633898,0.155963542,1,0,0,1.132775,test_pile,36,0,36,0,1,DIVORCE - TALAKA,,,,,,,,,,,,,,,,,,,,,,,,,,,,,,,,,,,,,,,,,,,,,,,,,,,,,,,,,,,,,,,,,,,,,,,,,,,,,,,,
,,,,,,,,,,00001210123,2020-10-12_18h53.59.663,swahili,2020.2.4,MacIntel,60,,,,,,,,,,-0.170567491,0.004375,1,0,0,0.59913,unsorted_card,37,0,37,0,1,,,,,,,,,,,,,,,,,,,,,,,,,,,,,,,,,,,,,,,,,,,,,,,,,,,,,,,,,,,,,,,,,,,,,,,,,,,,,,,,,
,,,,,,,,,,00001210123,2020-10-12_18h53.59.663,swahili,2020.2.4,MacIntel,60,,,,,,,,,,0.500737847,0.427942708,1,0,0,1.99912,study_pile,38,0,38,0,1,BOAT - MASHUA,,,,,,,,,,,,,,,,,,,,,,,,,,,,,,,,,,,,,,,,,,,,,,,,,,,,,,,,,,,,,,,,,,,,,,,,,,,,,,,,
,,,,,,,,,,00001210123,2020-10-12_18h53.59.663,swahili,2020.2.4,MacIntel,60,,,,,,,,,,-0.306092665,0.125989583,1,0,0,0.54954,unsorted_card,39,0,39,0,1,,,,,,,,,,,,,,,,,,,,,,,,,,,,,,,,,,,,,,,,,,,,,,,,,,,,,,,,,,,,,,,,,,,,,,,,,,,,,,,,,
,,,,,,,,,,00001210123,2020-10-12_18h53.59.663,swahili,2020.2.4,MacIntel,60,,,,,,,,,,0.382367622,0.464305556,1,0,0,2.148435,study_pile,40,0,40,0,1,TREASURE - DAFINA,,,,,,,,,,,,,,,,,,,,,,,,,,,,,,,,,,,,,,,,,,,,,,,,,,,,,,,,,,,,,,,,,,,,,,,,,,,,,,,,
,,,,,,,,,,00001210123,2020-10-12_18h53.59.663,swahili,2020.2.4,MacIntel,60,,,,,,,,,,,,,,,,,,,,,,,0.420730252,0.044157986,1,0,0,2.04857,test_first,,,0,0,0,0,1,,,,,,,,,,,,,,,,,,,,,,,,,,,,,,,,,,,,,,,,,,,,,,,,,,,,,,,,,,,,,,,,,,
,,,,,,,,,,00001210123,2020-10-12_18h53.59.663,swahili,2020.2.4,MacIntel,60,,,,,,,,,,,,,,,,,,,,,,,,,,,,,,,,,,,,,return,4.904775,7.362395,0.520100911,0.162170139,1,0,0,0.964435,yes,MANURE,NA,incorrect,0,0,0,0,1,,,,,,,,,,,,,,,,,,,,,,,,,,,,,,,,,,,,,,,,,,,,,,,,
,,,,,,,,,,00001210123,2020-10-12_18h53.59.663,swahili,2020.2.4,MacIntel,60,,,,,,,,,,,,,,,,,,,,,,,,,,,,,,,,,,,,,,,5.131005,0.448540582,0.035946181,1,0,0,1.133065,yes,DIVORCE,TALAKA,incorrect,1,0,1,0,1,,,,,,,,,,,,,,,,,,,,,,,,,,,,,,,,,,,,,,,,,,,,,,,,
,,,,,,,,,,00001210123,2020-10-12_18h53.59.663,swahili,2020.2.4,MacIntel,60,,,,,,,,,,,,,,,,,,,,,,,,,,,,,,,,,,,,,,,3.58071,0.375108507,-0.047612847,1,0,0,0.8005,yes,GRAVE,KABURI,incorrect,2,0,2,0,1,,,,,,,,,,,,,,,,,,,,,,,,,,,,,,,,,,,,,,,,,,,,,,,,
,,,,,,,,,,00001210123,2020-10-12_18h53.59.663,swahili,2020.2.4,MacIntel,60,,,,,,,,,,,,,,,,,,,,,,,,,,,,,,,,,,,,,,,6.931285,0.462999132,-0.054088542,1,0,0,0.68375,yes,CHEESE,JIBINI,incorrect,3,0,3,0,1,,,,,,,,,,,,,,,,,,,,,,,,,,,,,,,,,,,,,,,,,,,,,,,,
,,,,,,,,,,00001210123,2020-10-12_18h53.59.663,swahili,2020.2.4,MacIntel,60,,,,,,,,,,,,,,,,,,,,,,,,,,,,,,,,,,,,,,,4.6317,0.323790148,-0.186805556,1,0,0,0.849925,yes,GRAPES,KABIBU,incorrect,4,0,4,0,1,,,,,,,,,,,,,,,,,,,,,,,,,,,,,,,,,,,,,,,,,,,,,,,,
,,,,,,,,,,00001210123,2020-10-12_18h53.59.663,swahili,2020.2.4,MacIntel,60,,,,,,,,,,,,,,,,,,,,,,,,,,,,,,,,,,,,,,,4.69733,0.386794705,-0.060217014,1,0,0,0.851765,yes,OATH,KASHUA,incorrect,5,0,5,0,1,,,,,,,,,,,,,,,,,,,,,,,,,,,,,,,,,,,,,,,,,,,,,,,,
,,,,,,,,,,00001210123,2020-10-12_18h53.59.663,swahili,2020.2.4,MacIntel,60,,,,,,,,,,,,,,,,,,,,,,,,,,,,,,,,,,,,,,,,,,,,,,,,,,,,,,,0,0,0,0,1,,,,,,,,,,,,,,,,,,,,,,,,,,,,,,,,,,,,,,,,,,,
,,,,,,,,,,00001210123,2020-10-12_18h53.59.663,swahili,2020.2.4,MacIntel,60,,,,,,,,,,,,,,,,,,,,,,ORPHAN - YATIMA,,,,,,,,return,return,0,0,0,0,1,,,,,,,,,,,,,,,,,,,,,,,,,,,,,5.53481,7.280565,,,,,,,,,,,,,,,,,,,,,,,,,,,,,,,,,,,,
,,,,,,,,,,00001210123,2020-10-12_18h53.59.663,swahili,2020.2.4,MacIntel,60,,,,,,,,,,,,,,,,,,,,,,TAILOR - MSHONI,,,,,,,,,return,1,0,1,0,1,,,,,,,,,,,,,,,,,,,,,,,,,,,,,,11.30088,,,,,,,,,,,,,,,,,,,,,,,,,,,,,,,,,,,,
,,,,,,,,,,00001210123,2020-10-12_18h53.59.663,swahili,2020.2.4,MacIntel,60,,,,,,,,,,,,,,,,,,,,,,BULL - FAHILI,,,,,,,,,return,2,0,2,0,1,,,,,,,,,,,,,,,,,,,,,,,,,,,,,,1.78402,,,,,,,,,,,,,,,,,,,,,,,,,,,,,,,,,,,,
,,,,,,,,,,00001210123,2020-10-12_18h53.59.663,swahili,2020.2.4,MacIntel,60,,,,,,,,,,,,,,,,,,,,,,YEAST - HAMIRA,,,,,,,,,return,3,0,3,0,1,,,,,,,,,,,,,,,,,,,,,,,,,,,,,,3.102715,,,,,,,,,,,,,,,,,,,,,,,,,,,,,,,,,,,,
,,,,,,,,,,00001210123,2020-10-12_18h53.59.663,swahili,2020.2.4,MacIntel,60,,,,,,,,,,,,,,,,,,,,,,POEM - UTENZI,,,,,,,,,return,4,0,4,0,1,,,,,,,,,,,,,,,,,,,,,,,,,,,,,,25.682295,,,,,,,,,,,,,,,,,,,,,,,,,,,,,,,,,,,,
,,,,,,,,,,00001210123,2020-10-12_18h53.59.663,swahili,2020.2.4,MacIntel,60,,,,,,,,,,,,,,,,,,,,,,MERCHANT - TAJIRI,,,,,,,,,return,5,0,5,0,1,,,,,,,,,,,,,,,,,,,,,,,,,,,,,,1.3345,,,,,,,,,,,,,,,,,,,,,,,,,,,,,,,,,,,,
,,,,,,,,,,00001210123,2020-10-12_18h53.59.663,swahili,2020.2.4,MacIntel,60,,,,,,,,,,,,,,,,,,,,,,TREASURE - DAFINA,,,,,,,,,return,6,0,6,0,1,,,,,,,,,,,,,,,,,,,,,,,,,,,,,,2.899225,,,,,,,,,,,,,,,,,,,,,,,,,,,,,,,,,,,,
,,,,,,,,,,00001210123,2020-10-12_18h53.59.663,swahili,2020.2.4,MacIntel,60,,,,,,,,,,,,,,,,,,,,,,BLAME - LAWAMA,,,,,,,,,return,7,0,7,0,1,,,,,,,,,,,,,,,,,,,,,,,,,,,,,,33.150355,,,,,,,,,,,,,,,,,,,,,,,,,,,,,,,,,,,,
,,,,,,,,,,00001210123,2020-10-12_18h53.59.663,swahili,2020.2.4,MacIntel,60,,,,,,,,,,,,,,,,,,,,,,CORN - NAFAKA,,,,,,,,,return,8,0,8,0,1,,,,,,,,,,,,,,,,,,,,,,,,,,,,,,0.667845,,,,,,,,,,,,,,,,,,,,,,,,,,,,,,,,,,,,
,,,,,,,,,,00001210123,2020-10-12_18h53.59.663,swahili,2020.2.4,MacIntel,60,,,,,,,,,,,,,,,,,,,,,,BRIBE - RUSHWA,,,,,,,,,return,9,0,9,0,1,,,,,,,,,,,,,,,,,,,,,,,,,,,,,,0.68226,,,,,,,,,,,,,,,,,,,,,,,,,,,,,,,,,,,,
,,,,,,,,,,00001210123,2020-10-12_18h53.59.663,swahili,2020.2.4,MacIntel,60,,,,,,,,,,,,,,,,,,,,,,PARROT - KASUKU,,,,,,,,,return,10,0,10,0,1,,,,,,,,,,,,,,,,,,,,,,,,,,,,,,0.666305,,,,,,,,,,,,,,,,,,,,,,,,,,,,,,,,,,,,
,,,,,,,,,,00001210123,2020-10-12_18h53.59.663,swahili,2020.2.4,MacIntel,60,,,,,,,,,,,,,,,,,,,,,,BOAT - MASHUA,,,,,,,,,return,11,0,11,0,1,,,,,,,,,,,,,,,,,,,,,,,,,,,,,,1.083895,,,,,,,,,,,,,,,,,,,,,,,,,,,,,,,,,,,,
,,,,,,,,,,00001210123,2020-10-12_18h53.59.663,swahili,2020.2.4,MacIntel,60,,,,,,,,,,,,,,,,,,,,,,PLATE - SAHANI,,,,,,,,,return,12,0,12,0,1,,,,,,,,,,,,,,,,,,,,,,,,,,,,,,0.784495,,,,,,,,,,,,,,,,,,,,,,,,,,,,,,,,,,,,
,,,,,,,,,,00001210123,2020-10-12_18h53.59.663,swahili,2020.2.4,MacIntel,60,,,,,,,,,,,,,,,,,,,,,,AGENT - WAKILI,,,,,,,,,return,13,0,13,0,1,,,,,,,,,,,,,,,,,,,,,,,,,,,,,,0.80032,,,,,,,,,,,,,,,,,,,,,,,,,,,,,,,,,,,,
,,,,,,,,,,00001210123,2020-10-12_18h53.59.663,swahili,2020.2.4,MacIntel,60,,,,,,,,,,,,,,,,,,,,,,,,,,,,,,,,,,,,,,,,,,,,,,,,,,,,,,,1,0,1,0,1,,,,,,,,,,,,,,,,,,,,,,,,,,,,,,,,,,,,,,,,,,,
,,,,,,,,,,00001210123,2020-10-12_18h53.59.663,swahili,2020.2.4,MacIntel,60,,,,,,,,,,,,,,,,,,,,,,,,,,,,,,,,,,,,,,,,,,,,,,,,,,,,,,,,,,,,1,0,1,0,1,,,,,,,,,,,,,,,,,,,,,,,,,,,,,,,,,,,,,,
,,,,,,,,,,00001210123,2020-10-12_18h53.59.663,swahili,2020.2.4,MacIntel,60,,,,,,,,,,-0.372086589,0.029071181,1,0,0,1.15654,unsorted_card,0,0,0,0,1,,,,,,,,,,,,,,,,,,,,,,,,,,,,,,,,,,,,,,,,,,,,,,,,,,,,,,,,,,,,,,,,,,,,,,,,,,,,,,,,,
,,,,,,,,,,00001210123,2020-10-12_18h53.59.663,swahili,2020.2.4,MacIntel,60,,,,,,,,,,0.420648872,0.407170139,1,0,0,1.615635,study_pile,1,0,1,0,1,MERCHANT - TAJIRI,,,,,,,,,,,,,,,,,,,,,,,,,,,,,,,,,,,,,,,,,,,,,,,,,,,,,,,,,,,,,,,,,,,,,,,,,,,,,,,,
,,,,,,,,,,00001210123,2020-10-12_18h53.59.663,swahili,2020.2.4,MacIntel,60,,,,,,,,,,-0.205181207,-0.164782986,1,0,0,0.56469,unsorted_card,2,0,2,0,1,,,,,,,,,,,,,,,,,,,,,,,,,,,,,,,,,,,,,,,,,,,,,,,,,,,,,,,,,,,,,,,,,,,,,,,,,,,,,,,,,
,,,,,,,,,,00001210123,2020-10-12_18h53.59.663,swahili,2020.2.4,MacIntel,60,,,,,,,,,,0.44539388,0.556822917,1,0,0,1.44933,study_pile,3,0,3,0,1,PARROT - KASUKU,,,,,,,,,,,,,,,,,,,,,,,,,,,,,,,,,,,,,,,,,,,,,,,,,,,,,,,,,,,,,,,,,,,,,,,,,,,,,,,,
,,,,,,,,,,00001210123,2020-10-12_18h53.59.663,swahili,2020.2.4,MacIntel,60,,,,,,,,,,-0.24625651,-0.050633681,1,0,0,0.73224,unsorted_card,4,0,4,0,1,,,,,,,,,,,,,,,,,,,,,,,,,,,,,,,,,,,,,,,,,,,,,,,,,,,,,,,,,,,,,,,,,,,,,,,,,,,,,,,,,
,,,,,,,,,,00001210123,2020-10-12_18h53.59.663,swahili,2020.2.4,MacIntel,60,,,,,,,,,,0.364453125,0.514661458,1,0,0,1.06583,study_pile,5,0,5,0,1,BULL - FAHILI,,,,,,,,,,,,,,,,,,,,,,,,,,,,,,,,,,,,,,,,,,,,,,,,,,,,,,,,,,,,,,,,,,,,,,,,,,,,,,,,
,,,,,,,,,,00001210123,2020-10-12_18h53.59.663,swahili,2020.2.4,MacIntel,60,,,,,,,,,,-0.174745009,0.150138889,1,0,0,0.681915,unsorted_card,6,0,6,0,1,,,,,,,,,,,,,,,,,,,,,,,,,,,,,,,,,,,,,,,,,,,,,,,,,,,,,,,,,,,,,,,,,,,,,,,,,,,,,,,,,
,,,,,,,,,,00001210123,2020-10-12_18h53.59.663,swahili,2020.2.4,MacIntel,60,,,,,,,,,,0.347032335,0.428368056,1,0,0,1.465885,study_pile,7,0,7,0,1,PLATE - SAHANI,,,,,,,,,,,,,,,,,,,,,,,,,,,,,,,,,,,,,,,,,,,,,,,,,,,,,,,,,,,,,,,,,,,,,,,,,,,,,,,,
,,,,,,,,,,00001210123,2020-10-12_18h53.59.663,swahili,2020.2.4,MacIntel,60,,,,,,,,,,-0.339811198,-0.039192708,1,0,0,0.58136,unsorted_card,8,0,8,0,1,,,,,,,,,,,,,,,,,,,,,,,,,,,,,,,,,,,,,,,,,,,,,,,,,,,,,,,,,,,,,,,,,,,,,,,,,,,,,,,,,
,,,,,,,,,,00001210123,2020-10-12_18h53.59.663,swahili,2020.2.4,MacIntel,60,,,,,,,,,,0.323149957,0.465807292,1,0,0,1.283785,study_pile,9,0,9,0,1,YEAST - HAMIRA,,,,,,,,,,,,,,,,,,,,,,,,,,,,,,,,,,,,,,,,,,,,,,,,,,,,,,,,,,,,,,,,,,,,,,,,,,,,,,,,
,,,,,,,,,,00001210123,2020-10-12_18h53.59.663,swahili,2020.2.4,MacIntel,60,,,,,,,,,,-0.214339193,-0.017743056,1,0,0,0.56394,unsorted_card,10,0,10,0,1,,,,,,,,,,,,,,,,,,,,,,,,,,,,,,,,,,,,,,,,,,,,,,,,,,,,,,,,,,,,,,,,,,,,,,,,,,,,,,,,,
,,,,,,,,,,00001210123,2020-10-12_18h53.59.663,swahili,2020.2.4,MacIntel,60,,,,,,,,,,0.463194444,-0.016458333,1,0,0,1.433045,test_pile,11,0,11,0,1,BLAME - LAWAMA,,,,,,,,,,,,,,,,,,,,,,,,,,,,,,,,,,,,,,,,,,,,,,,,,,,,,,,,,,,,,,,,,,,,,,,,,,,,,,,,
,,,,,,,,,,00001210123,2020-10-12_18h53.59.663,swahili,2020.2.4,MacIntel,60,,,,,,,,,,-0.219395616,-0.061597222,1,0,0,0.511985,unsorted_card,12,0,12,0,1,,,,,,,,,,,,,,,,,,,,,,,,,,,,,,,,,,,,,,,,,,,,,,,,,,,,,,,,,,,,,,,,,,,,,,,,,,,,,,,,,
,,,,,,,,,,00001210123,2020-10-12_18h53.59.663,swahili,2020.2.4,MacIntel,60,,,,,,,,,,0.502794054,0.415199653,1,0,0,2.867495,study_pile,13,0,13,0,1,OATH - YAMINI,,,,,,,,,,,,,,,,,,,,,,,,,,,,,,,,,,,,,,,,,,,,,,,,,,,,,,,,,,,,,,,,,,,,,,,,,,,,,,,,
,,,,,,,,,,00001210123,2020-10-12_18h53.59.663,swahili,2020.2.4,MacIntel,60,,,,,,,,,,-0.190988498,0.024704861,1,0,0,0.513955,unsorted_card,14,0,14,0,1,,,,,,,,,,,,,,,,,,,,,,,,,,,,,,,,,,,,,,,,,,,,,,,,,,,,,,,,,,,,,,,,,,,,,,,,,,,,,,,,,
,,,,,,,,,,00001210123,2020-10-12_18h53.59.663,swahili,2020.2.4,MacIntel,60,,,,,,,,,,0.36640625,0.395963542,1,0,0,1.39929,study_pile,15,0,15,0,1,CORN - NAFAKA,,,,,,,,,,,,,,,,,,,,,,,,,,,,,,,,,,,,,,,,,,,,,,,,,,,,,,,,,,,,,,,,,,,,,,,,,,,,,,,,
,,,,,,,,,,00001210123,2020-10-12_18h53.59.663,swahili,2020.2.4,MacIntel,60,,,,,,,,,,-0.246435547,-0.045894097,1,0,0,0.532095,unsorted_card,16,0,16,0,1,,,,,,,,,,,,,,,,,,,,,,,,,,,,,,,,,,,,,,,,,,,,,,,,,,,,,,,,,,,,,,,,,,,,,,,,,,,,,,,,,
,,,,,,,,,,00001210123,2020-10-12_18h53.59.663,swahili,2020.2.4,MacIntel,60,,,,,,,,,,0.339545356,-0.162282986,1,0,0,1.017355,test_pile,17,0,17,0,1,POEM - UTENZI,,,,,,,,,,,,,,,,,,,,,,,,,,,,,,,,,,,,,,,,,,,,,,,,,,,,,,,,,,,,,,,,,,,,,,,,,,,,,,,,
,,,,,,,,,,00001210123,2020-10-12_18h53.59.663,swahili,2020.2.4,MacIntel,60,,,,,,,,,,-0.292540148,-0.170121528,1,0,0,0.61486,unsorted_card,18,0,18,0,1,,,,,,,,,,,,,,,,,,,,,,,,,,,,,,,,,,,,,,,,,,,,,,,,,,,,,,,,,,,,,,,,,,,,,,,,,,,,,,,,,
,,,,,,,,,,00001210123,2020-10-12_18h53.59.663,swahili,2020.2.4,MacIntel,60,,,,,,,,,,0.416975911,-0.154088542,1,0,0,1.381865,test_pile,19,0,19,0,1,TAILOR - MSHONI,,,,,,,,,,,,,,,,,,,,,,,,,,,,,,,,,,,,,,,,,,,,,,,,,,,,,,,,,,,,,,,,,,,,,,,,,,,,,,,,
,,,,,,,,,,00001210123,2020-10-12_18h53.59.663,swahili,2020.2.4,MacIntel,60,,,,,,,,,,-0.185107422,-0.05609375,1,0,0,0.548705,unsorted_card,20,0,20,0,1,,,,,,,,,,,,,,,,,,,,,,,,,,,,,,,,,,,,,,,,,,,,,,,,,,,,,,,,,,,,,,,,,,,,,,,,,,,,,,,,,
,,,,,,,,,,00001210123,2020-10-12_18h53.59.663,swahili,2020.2.4,MacIntel,60,,,,,,,,,,0.339165582,-0.009314236,1,0,0,1.03283,test_pile,21,0,21,0,1,CHEESE - JIBINI,,,,,,,,,,,,,,,,,,,,,,,,,,,,,,,,,,,,,,,,,,,,,,,,,,,,,,,,,,,,,,,,,,,,,,,,,,,,,,,,
,,,,,,,,,,00001210123,2020-10-12_18h53.59.663,swahili,2020.2.4,MacIntel,60,,,,,,,,,,-0.277582465,-0.091380208,1,0,0,0.53088,unsorted_card,22,0,22,0,1,,,,,,,,,,,,,,,,,,,,,,,,,,,,,,,,,,,,,,,,,,,,,,,,,,,,,,,,,,,,,,,,,,,,,,,,,,,,,,,,,
,,,,,,,,,,00001210123,2020-10-12_18h53.59.663,swahili,2020.2.4,MacIntel,60,,,,,,,,,,0.412201606,-0.011961806,1,0,0,5.23283,test_pile,23,0,23,0,1,GRAPES - ZABIBU,,,,,,,,,,,,,,,,,,,,,,,,,,,,,,,,,,,,,,,,,,,,,,,,,,,,,,,,,,,,,,,,,,,,,,,,,,,,,,,,
,,,,,,,,,,00001210123,2020-10-12_18h53.59.663,swahili,2020.2.4,MacIntel,60,,,,,,,,,,-0.330859375,-0.128315972,1,0,0,0.68091,unsorted_card,24,0,24,0,1,,,,,,,,,,,,,,,,,,,,,,,,,,,,,,,,,,,,,,,,,,,,,,,,,,,,,,,,,,,,,,,,,,,,,,,,,,,,,,,,,
,,,,,,,,,,00001210123,2020-10-12_18h53.59.663,swahili,2020.2.4,MacIntel,60,,,,,,,,,,0.413519965,-0.005920139,1,0,0,1.5827,test_pile,25,0,25,0,1,GRAVE - KABURI,,,,,,,,,,,,,,,,,,,,,,,,,,,,,,,,,,,,,,,,,,,,,,,,,,,,,,,,,,,,,,,,,,,,,,,,,,,,,,,,
,,,,,,,,,,00001210123,2020-10-12_18h53.59.663,swahili,2020.2.4,MacIntel,60,,,,,,,,,,-0.186968316,-0.078810764,1,0,0,0.865615,unsorted_card,26,0,26,0,1,,,,,,,,,,,,,,,,,,,,,,,,,,,,,,,,,,,,,,,,,,,,,,,,,,,,,,,,,,,,,,,,,,,,,,,,,,,,,,,,,
,,,,,,,,,,00001210123,2020-10-12_18h53.59.663,swahili,2020.2.4,MacIntel,60,,,,,,,,,,0.330034722,0.441831597,1,0,0,1.45042,study_pile,27,0,27,0,1,MANURE - SAMADI,,,,,,,,,,,,,,,,,,,,,,,,,,,,,,,,,,,,,,,,,,,,,,,,,,,,,,,,,,,,,,,,,,,,,,,,,,,,,,,,
,,,,,,,,,,00001210123,2020-10-12_18h53.59.663,swahili,2020.2.4,MacIntel,60,,,,,,,,,,-0.208355035,-0.016024306,1,0,0,0.499015,unsorted_card,28,0,28,0,1,,,,,,,,,,,,,,,,,,,,,,,,,,,,,,,,,,,,,,,,,,,,,,,,,,,,,,,,,,,,,,,,,,,,,,,,,,,,,,,,,
,,,,,,,,,,00001210123,2020-10-12_18h53.59.663,swahili,2020.2.4,MacIntel,60,,,,,,,,,,0.552669271,0.407751736,1,0,0,4.08151,study_pile,29,0,29,0,1,AGENT - WAKILI,,,,,,,,,,,,,,,,,,,,,,,,,,,,,,,,,,,,,,,,,,,,,,,,,,,,,,,,,,,,,,,,,,,,,,,,,,,,,,,,
,,,,,,,,,,00001210123,2020-10-12_18h53.59.663,swahili,2020.2.4,MacIntel,60,,,,,,,,,,-0.314643012,-0.074557292,1,0,0,0.54819,unsorted_card,30,0,30,0,1,,,,,,,,,,,,,,,,,,,,,,,,,,,,,,,,,,,,,,,,,,,,,,,,,,,,,,,,,,,,,,,,,,,,,,,,,,,,,,,,,
,,,,,,,,,,00001210123,2020-10-12_18h53.59.663,swahili,2020.2.4,MacIntel,60,,,,,,,,,,0.363080512,0.489322917,1,0,0,1.2325,study_pile,31,0,31,0,1,BRIBE - RUSHWA,,,,,,,,,,,,,,,,,,,,,,,,,,,,,,,,,,,,,,,,,,,,,,,,,,,,,,,,,,,,,,,,,,,,,,,,,,,,,,,,
,,,,,,,,,,00001210123,2020-10-12_18h53.59.663,swahili,2020.2.4,MacIntel,60,,,,,,,,,,-0.264279514,0.072222222,1,0,0,0.68235,unsorted_card,32,0,32,0,1,,,,,,,,,,,,,,,,,,,,,,,,,,,,,,,,,,,,,,,,,,,,,,,,,,,,,,,,,,,,,,,,,,,,,,,,,,,,,,,,,
,,,,,,,,,,00001210123,2020-10-12_18h53.59.663,swahili,2020.2.4,MacIntel,60,,,,,,,,,,0.307980686,0.096397569,1,0,0,1.48186,test_pile,33,0,33,0,1,ORPHAN - YATIMA,,,,,,,,,,,,,,,,,,,,,,,,,,,,,,,,,,,,,,,,,,,,,,,,,,,,,,,,,,,,,,,,,,,,,,,,,,,,,,,,
,,,,,,,,,,00001210123,2020-10-12_18h53.59.663,swahili,2020.2.4,MacIntel,60,,,,,,,,,,-0.131336806,-0.027977431,1,0,0,0.682575,unsorted_card,34,0,34,0,1,,,,,,,,,,,,,,,,,,,,,,,,,,,,,,,,,,,,,,,,,,,,,,,,,,,,,,,,,,,,,,,,,,,,,,,,,,,,,,,,,
,,,,,,,,,,00001210123,2020-10-12_18h53.59.663,swahili,2020.2.4,MacIntel,60,,,,,,,,,,0.36108941,0.039635417,1,0,0,1.84993,test_pile,35,0,35,0,1,DIVORCE - TALAKA,,,,,,,,,,,,,,,,,,,,,,,,,,,,,,,,,,,,,,,,,,,,,,,,,,,,,,,,,,,,,,,,,,,,,,,,,,,,,,,,
,,,,,,,,,,00001210123,2020-10-12_18h53.59.663,swahili,2020.2.4,MacIntel,60,,,,,,,,,,-0.271761068,-0.064366319,1,0,0,0.863925,unsorted_card,36,0,36,0,1,,,,,,,,,,,,,,,,,,,,,,,,,,,,,,,,,,,,,,,,,,,,,,,,,,,,,,,,,,,,,,,,,,,,,,,,,,,,,,,,,
,,,,,,,,,,00001210123,2020-10-12_18h53.59.663,swahili,2020.2.4,MacIntel,60,,,,,,,,,,0.538628472,0.488663194,1,0,0,1.68312,study_pile,37,0,37,0,1,BOAT - MASHUA,,,,,,,,,,,,,,,,,,,,,,,,,,,,,,,,,,,,,,,,,,,,,,,,,,,,,,,,,,,,,,,,,,,,,,,,,,,,,,,,
,,,,,,,,,,00001210123,2020-10-12_18h53.59.663,swahili,2020.2.4,MacIntel,60,,,,,,,,,,-0.140809462,0.037447917,1,0,0,0.832125,unsorted_card,38,0,38,0,1,,,,,,,,,,,,,,,,,,,,,,,,,,,,,,,,,,,,,,,,,,,,,,,,,,,,,,,,,,,,,,,,,,,,,,,,,,,,,,,,,
,,,,,,,,,,00001210123,2020-10-12_18h53.59.663,swahili,2020.2.4,MacIntel,60,,,,,,,,,,0.430013021,0.419409722,1,0,0,2.348905,study_pile,39,0,39,0,1,TREASURE - DAFINA,,,,,,,,,,,,,,,,,,,,,,,,,,,,,,,,,,,,,,,,,,,,,,,,,,,,,,,,,,,,,,,,,,,,,,,,,,,,,,,,
,,,,,,,,,,00001210123,2020-10-12_18h53.59.663,swahili,2020.2.4,MacIntel,60,,,,,,,,,,,,,,,,,,,,,,,0.318370226,0.016875,1,0,0,1.34968,test_first,,,0,0,0,0,1,,,,,,,,,,,,,,,,,,,,,,,,,,,,,,,,,,,,,,,,,,,,,,,,,,,,,,,,,,,,,,,,,,
,,,,,,,,,,00001210123,2020-10-12_18h53.59.663,swahili,2020.2.4,MacIntel,60,,,,,,,,,,,,,,,,,,,,,,,,,,,,,,,,,,,,,return,1.651955,6.078585,0.597054036,0.066215278,1,0,0,0.849455,yes,BLAME,LAWAMA,incorrect,0,0,0,0,1,,,,,,,,,,,,,,,,,,,,,,,,,,,,,,,,,,,,,,,,,,,,,,,,
,,,,,,,,,,00001210123,2020-10-12_18h53.59.663,swahili,2020.2.4,MacIntel,60,,,,,,,,,,,,,,,,,,,,,,,,,,,,,,,,,,,,,,,5.89855,0.344476997,-0.132543403,1,0,0,0.76566,yes,GRAVE,KABURI,incorrect,1,0,1,0,1,,,,,,,,,,,,,,,,,,,,,,,,,,,,,,,,,,,,,,,,,,,,,,,,
,,,,,,,,,,00001210123,2020-10-12_18h53.59.663,swahili,2020.2.4,MacIntel,60,,,,,,,,,,,,,,,,,,,,,,,,,,,,,,,,,,,,,,,3.014395,0.307763672,0.018394097,1,0,0,0.89997,yes,CHEESE,JIBINI,incorrect,2,0,2,0,1,,,,,,,,,,,,,,,,,,,,,,,,,,,,,,,,,,,,,,,,,,,,,,,,
,,,,,,,,,,00001210123,2020-10-12_18h53.59.663,swahili,2020.2.4,MacIntel,60,,,,,,,,,,,,,,,,,,,,,,,,,,,,,,,,,,,,,,,11.830575,0.3828125,-0.001692708,1,0,0,0.66735,yes,GRAPES,KABIBU,incorrect,3,0,3,0,1,,,,,,,,,,,,,,,,,,,,,,,,,,,,,,,,,,,,,,,,,,,,,,,,
,,,,,,,,,,00001210123,2020-10-12_18h53.59.663,swahili,2020.2.4,MacIntel,60,,,,,,,,,,,,,,,,,,,,,,,,,,,,,,,,,,,,,,,4.56466,0.249267578,-0.133220486,1,0,0,0.71669,yes,DIVORCE,TALAKA,incorrect,4,0,4,0,1,,,,,,,,,,,,,,,,,,,,,,,,,,,,,,,,,,,,,,,,,,,,,,,,
,,,,,,,,,,00001210123,2020-10-12_18h53.59.663,swahili,2020.2.4,MacIntel,60,,,,,,,,,,,,,,,,,,,,,,,,,,,,,,,,,,,,,,,4.14873,0.43617079,0.149609375,1,0,0,0.91629,yes,ORPHAN,YATIMA,incorrect,5,0,5,0,1,,,,,,,,,,,,,,,,,,,,,,,,,,,,,,,,,,,,,,,,,,,,,,,,
,,,,,,,,,,00001210123,2020-10-12_18h53.59.663,swahili,2020.2.4,MacIntel,60,,,,,,,,,,,,,,,,,,,,,,,,,,,,,,,,,,,,,,,3.79767,0.38796658,-0.028272569,1,0,0,0.63338,yes,POEM,UTENZI,incorrect,6,0,6,0,1,,,,,,,,,,,,,,,,,,,,,,,,,,,,,,,,,,,,,,,,,,,,,,,,
,,,,,,,,,,00001210123,2020-10-12_18h53.59.663,swahili,2020.2.4,MacIntel,60,,,,,,,,,,,,,,,,,,,,,,,,,,,,,,,,,,,,,,,2.86439,0.404492187,0.036788194,1,0,0,0.984395,yes,TAILOR,MSHONI,incorrect,7,0,7,0,1,,,,,,,,,,,,,,,,,,,,,,,,,,,,,,,,,,,,,,,,,,,,,,,,
,,,,,,,,,,00001210123,2020-10-12_18h53.59.663,swahili,2020.2.4,MacIntel,60,,,,,,,,,,,,,,,,,,,,,,,,,,,,,,,,,,,,,,,,,,,,,,,,,,,,,,,0,0,0,0,1,,,,,,,,,,,,,,,,,,,,,,,,,,,,,,,,,,,,,,,,,,,
,,,,,,,,,,00001210123,2020-10-12_18h53.59.663,swahili,2020.2.4,MacIntel,60,,,,,,,,,,,,,,,,,,,,,,MANURE - SAMADI,,,,,,,,return,return,0,0,0,0,1,,,,,,,,,,,,,,,,,,,,,,,,,,,,,1.531695,7.735705,,,,,,,,,,,,,,,,,,,,,,,,,,,,,,,,,,,,
,,,,,,,,,,00001210123,2020-10-12_18h53.59.663,swahili,2020.2.4,MacIntel,60,,,,,,,,,,,,,,,,,,,,,,YEAST - HAMIRA,,,,,,,,,return,1,0,1,0,1,,,,,,,,,,,,,,,,,,,,,,,,,,,,,,1.517525,,,,,,,,,,,,,,,,,,,,,,,,,,,,,,,,,,,,
,,,,,,,,,,00001210123,2020-10-12_18h53.59.663,swahili,2020.2.4,MacIntel,60,,,,,,,,,,,,,,,,,,,,,,BULL - FAHILI,,,,,,,,,return,2,0,2,0,1,,,,,,,,,,,,,,,,,,,,,,,,,,,,,,2.433945,,,,,,,,,,,,,,,,,,,,,,,,,,,,,,,,,,,,
,,,,,,,,,,00001210123,2020-10-12_18h53.59.663,swahili,2020.2.4,MacIntel,60,,,,,,,,,,,,,,,,,,,,,,OATH - YAMINI,,,,,,,,,return,3,0,3,0,1,,,,,,,,,,,,,,,,,,,,,,,,,,,,,,9.796615,,,,,,,,,,,,,,,,,,,,,,,,,,,,,,,,,,,,
,,,,,,,,,,00001210123,2020-10-12_18h53.59.663,swahili,2020.2.4,MacIntel,60,,,,,,,,,,,,,,,,,,,,,,BRIBE - RUSHWA,,,,,,,,,return,4,0,4,0,1,,,,,,,,,,,,,,,,,,,,,,,,,,,,,,16.33084,,,,,,,,,,,,,,,,,,,,,,,,,,,,,,,,,,,,
,,,,,,,,,,00001210123,2020-10-12_18h53.59.663,swahili,2020.2.4,MacIntel,60,,,,,,,,,,,,,,,,,,,,,,AGENT - WAKILI,,,,,,,,,return,5,0,5,0,1,,,,,,,,,,,,,,,,,,,,,,,,,,,,,,11.551575,,,,,,,,,,,,,,,,,,,,,,,,,,,,,,,,,,,,
,,,,,,,,,,00001210123,2020-10-12_18h53.59.663,swahili,2020.2.4,MacIntel,60,,,,,,,,,,,,,,,,,,,,,,PARROT - KASUKU,,,,,,,,,return,6,0,6,0,1,,,,,,,,,,,,,,,,,,,,,,,,,,,,,,1.21751,,,,,,,,,,,,,,,,,,,,,,,,,,,,,,,,,,,,
,,,,,,,,,,00001210123,2020-10-12_18h53.59.663,swahili,2020.2.4,MacIntel,60,,,,,,,,,,,,,,,,,,,,,,TREASURE - DAFINA,,,,,,,,,return,7,0,7,0,1,,,,,,,,,,,,,,,,,,,,,,,,,,,,,,2.284625,,,,,,,,,,,,,,,,,,,,,,,,,,,,,,,,,,,,
,,,,,,,,,,00001210123,2020-10-12_18h53.59.663,swahili,2020.2.4,MacIntel,60,,,,,,,,,,,,,,,,,,,,,,BOAT - MASHUA,,,,,,,,,return,8,0,8,0,1,,,,,,,,,,,,,,,,,,,,,,,,,,,,,,13.031965,,,,,,,,,,,,,,,,,,,,,,,,,,,,,,,,,,,,
,,,,,,,,,,00001210123,2020-10-12_18h53.59.663,swahili,2020.2.4,MacIntel,60,,,,,,,,,,,,,,,,,,,,,,MERCHANT - TAJIRI,,,,,,,,,return,9,0,9,0,1,,,,,,,,,,,,,,,,,,,,,,,,,,,,,,1.90043,,,,,,,,,,,,,,,,,,,,,,,,,,,,,,,,,,,,
,,,,,,,,,,00001210123,2020-10-12_18h53.59.663,swahili,2020.2.4,MacIntel,60,,,,,,,,,,,,,,,,,,,,,,CORN - NAFAKA,,,,,,,,,return,10,0,10,0,1,,,,,,,,,,,,,,,,,,,,,,,,,,,,,,0.72943,,,,,,,,,,,,,,,,,,,,,,,,,,,,,,,,,,,,
,,,,,,,,,,00001210123,2020-10-12_18h53.59.663,swahili,2020.2.4,MacIntel,60,,,,,,,,,,,,,,,,,,,,,,PLATE - SAHANI,,,,,,,,,return,11,0,11,0,1,,,,,,,,,,,,,,,,,,,,,,,,,,,,,,1.04972,,,,,,,,,,,,,,,,,,,,,,,,,,,,,,,,,,,,
,,,,,,,,,,00001210123,2020-10-12_18h53.59.663,swahili,2020.2.4,MacIntel,60,,,,,,,,,,,,,,,,,,,,,,,,,,,,,,,,,,,,,,,,,,,,,,,,,,,,,,,1,0,1,0,1,,,,,,,,,,,,,,,,,,,,,,,,,,,,,,,,,,,,,,,,,,,
,,,,,,,,,,00001210123,2020-10-12_18h53.59.663,swahili,2020.2.4,MacIntel,60,,,,,,,,,,,,,,,,,,,,,,,,,,,,,,,,,,,,,,,,,,,,,,,,,,,,,,,,,,,,2,0,2,0,1,,,,,,,,,,,,,,,,,,,,,,,,,,,,,,,,,,,,,,
,,,,,,,,,,00001210123,2020-10-12_18h53.59.663,swahili,2020.2.4,MacIntel,60,,,,,,,,,,-0.275184462,-0.101163194,1,0,0,1.039225,unsorted_card,0,0,0,0,1,,,,,,,,,,,,,,,,,,,,,,,,,,,,,,,,,,,,,,,,,,,,,,,,,,,,,,,,,,,,,,,,,,,,,,,,,,,,,,,,,
,,,,,,,,,,00001210123,2020-10-12_18h53.59.663,swahili,2020.2.4,MacIntel,60,,,,,,,,,,0.338449436,0.486788194,1,0,0,2.265495,study_pile,1,0,1,0,1,MERCHANT - TAJIRI,,,,,,,,,,,,,,,,,,,,,,,,,,,,,,,,,,,,,,,,,,,,,,,,,,,,,,,,,,,,,,,,,,,,,,,,,,,,,,,,
,,,,,,,,,,00001210123,2020-10-12_18h53.59.663,swahili,2020.2.4,MacIntel,60,,,,,,,,,,-0.267892795,-0.071501736,1,0,0,0.49869,unsorted_card,2,0,2,0,1,,,,,,,,,,,,,,,,,,,,,,,,,,,,,,,,,,,,,,,,,,,,,,,,,,,,,,,,,,,,,,,,,,,,,,,,,,,,,,,,,
,,,,,,,,,,00001210123,2020-10-12_18h53.59.663,swahili,2020.2.4,MacIntel,60,,,,,,,,,,0.474462891,0.452118056,1,0,0,0.99894,study_pile,3,0,3,0,1,PARROT - KASUKU,,,,,,,,,,,,,,,,,,,,,,,,,,,,,,,,,,,,,,,,,,,,,,,,,,,,,,,,,,,,,,,,,,,,,,,,,,,,,,,,
,,,,,,,,,,00001210123,2020-10-12_18h53.59.663,swahili,2020.2.4,MacIntel,60,,,,,,,,,,-0.336360677,-0.143637153,1,0,0,0.46621,unsorted_card,4,0,4,0,1,,,,,,,,,,,,,,,,,,,,,,,,,,,,,,,,,,,,,,,,,,,,,,,,,,,,,,,,,,,,,,,,,,,,,,,,,,,,,,,,,
,,,,,,,,,,00001210123,2020-10-12_18h53.59.663,swahili,2020.2.4,MacIntel,60,,,,,,,,,,0.438926866,-0.132282986,1,0,0,1.09947,test_pile,5,0,5,0,1,BULL - FAHILI,,,,,,,,,,,,,,,,,,,,,,,,,,,,,,,,,,,,,,,,,,,,,,,,,,,,,,,,,,,,,,,,,,,,,,,,,,,,,,,,
,,,,,,,,,,00001210123,2020-10-12_18h53.59.663,swahili,2020.2.4,MacIntel,60,,,,,,,,,,-0.275477431,-0.104774306,1,0,0,0.615135,unsorted_card,6,0,6,0,1,,,,,,,,,,,,,,,,,,,,,,,,,,,,,,,,,,,,,,,,,,,,,,,,,,,,,,,,,,,,,,,,,,,,,,,,,,,,,,,,,
,,,,,,,,,,00001210123,2020-10-12_18h53.59.663,swahili,2020.2.4,MacIntel,60,,,,,,,,,,0.507383898,0.553741319,1,0,0,1.348155,study_pile,7,0,7,0,1,PLATE - SAHANI,,,,,,,,,,,,,,,,,,,,,,,,,,,,,,,,,,,,,,,,,,,,,,,,,,,,,,,,,,,,,,,,,,,,,,,,,,,,,,,,
,,,,,,,,,,00001210123,2020-10-12_18h53.59.663,swahili,2020.2.4,MacIntel,60,,,,,,,,,,-0.234624566,0.007760417,1,0,0,0.61549,unsorted_card,8,0,8,0,1,,,,,,,,,,,,,,,,,,,,,,,,,,,,,,,,,,,,,,,,,,,,,,,,,,,,,,,,,,,,,,,,,,,,,,,,,,,,,,,,,
,,,,,,,,,,00001210123,2020-10-12_18h53.59.663,swahili,2020.2.4,MacIntel,60,,,,,,,,,,0.395692274,0.472994792,1,0,0,1.93284,study_pile,9,0,9,0,1,YEAST - HAMIRA,,,,,,,,,,,,,,,,,,,,,,,,,,,,,,,,,,,,,,,,,,,,,,,,,,,,,,,,,,,,,,,,,,,,,,,,,,,,,,,,
,,,,,,,,,,00001210123,2020-10-12_18h53.59.663,swahili,2020.2.4,MacIntel,60,,,,,,,,,,-0.343961589,0.049392361,1,0,0,0.49837,unsorted_card,10,0,10,0,1,,,,,,,,,,,,,,,,,,,,,,,,,,,,,,,,,,,,,,,,,,,,,,,,,,,,,,,,,,,,,,,,,,,,,,,,,,,,,,,,,
,,,,,,,,,,00001210123,2020-10-12_18h53.59.663,swahili,2020.2.4,MacIntel,60,,,,,,,,,,0.501611328,0.018368056,1,0,0,1.366485,test_pile,11,0,11,0,1,BLAME - LAWAMA,,,,,,,,,,,,,,,,,,,,,,,,,,,,,,,,,,,,,,,,,,,,,,,,,,,,,,,,,,,,,,,,,,,,,,,,,,,,,,,,
,,,,,,,,,,00001210123,2020-10-12_18h53.59.663,swahili,2020.2.4,MacIntel,60,,,,,,,,,,-0.277034505,-0.079366319,1,0,0,0.53175,unsorted_card,12,0,12,0,1,,,,,,,,,,,,,,,,,,,,,,,,,,,,,,,,,,,,,,,,,,,,,,,,,,,,,,,,,,,,,,,,,,,,,,,,,,,,,,,,,
,,,,,,,,,,00001210123,2020-10-12_18h53.59.663,swahili,2020.2.4,MacIntel,60,,,,,,,,,,0.370784505,0.390720486,1,0,0,1.915345,study_pile,13,0,13,0,1,OATH - YAMINI,,,,,,,,,,,,,,,,,,,,,,,,,,,,,,,,,,,,,,,,,,,,,,,,,,,,,,,,,,,,,,,,,,,,,,,,,,,,,,,,
,,,,,,,,,,00001210123,2020-10-12_18h53.59.663,swahili,2020.2.4,MacIntel,60,,,,,,,,,,-0.314241536,-0.027005208,1,0,0,0.51614,unsorted_card,14,0,14,0,1,,,,,,,,,,,,,,,,,,,,,,,,,,,,,,,,,,,,,,,,,,,,,,,,,,,,,,,,,,,,,,,,,,,,,,,,,,,,,,,,,
,,,,,,,,,,00001210123,2020-10-12_18h53.59.663,swahili,2020.2.4,MacIntel,60,,,,,,,,,,0.480946181,0.491519097,1,0,0,1.01661,study_pile,15,0,15,0,1,CORN - NAFAKA,,,,,,,,,,,,,,,,,,,,,,,,,,,,,,,,,,,,,,,,,,,,,,,,,,,,,,,,,,,,,,,,,,,,,,,,,,,,,,,,
,,,,,,,,,,00001210123,2020-10-12_18h53.59.663,swahili,2020.2.4,MacIntel,60,,,,,,,,,,-0.266129557,0.127118056,1,0,0,0.69879,unsorted_card,16,0,16,0,1,,,,,,,,,,,,,,,,,,,,,,,,,,,,,,,,,,,,,,,,,,,,,,,,,,,,,,,,,,,,,,,,,,,,,,,,,,,,,,,,,
,,,,,,,,,,00001210123,2020-10-12_18h53.59.663,swahili,2020.2.4,MacIntel,60,,,,,,,,,,0.41953125,-0.094982639,1,0,0,1.23239,test_pile,17,0,17,0,1,POEM - UTENZI,,,,,,,,,,,,,,,,,,,,,,,,,,,,,,,,,,,,,,,,,,,,,,,,,,,,,,,,,,,,,,,,,,,,,,,,,,,,,,,,
,,,,,,,,,,00001210123,2020-10-12_18h53.59.663,swahili,2020.2.4,MacIntel,60,,,,,,,,,,-0.26890191,-0.150659722,1,0,0,0.49931,unsorted_card,18,0,18,0,1,,,,,,,,,,,,,,,,,,,,,,,,,,,,,,,,,,,,,,,,,,,,,,,,,,,,,,,,,,,,,,,,,,,,,,,,,,,,,,,,,
,,,,,,,,,,00001210123,2020-10-12_18h53.59.663,swahili,2020.2.4,MacIntel,60,,,,,,,,,,0.369536675,-0.02484375,1,0,0,1.06539,test_pile,19,0,19,0,1,TAILOR - MSHONI,,,,,,,,,,,,,,,,,,,,,,,,,,,,,,,,,,,,,,,,,,,,,,,,,,,,,,,,,,,,,,,,,,,,,,,,,,,,,,,,
,,,,,,,,,,00001210123,2020-10-12_18h53.59.663,swahili,2020.2.4,MacIntel,60,,,,,,,,,,-0.226915148,-0.058611111,1,0,0,0.533615,unsorted_card,20,0,20,0,1,,,,,,,,,,,,,,,,,,,,,,,,,,,,,,,,,,,,,,,,,,,,,,,,,,,,,,,,,,,,,,,,,,,,,,,,,,,,,,,,,
,,,,,,,,,,00001210123,2020-10-12_18h53.59.663,swahili,2020.2.4,MacIntel,60,,,,,,,,,,0.441851128,-0.040052083,1,0,0,1.047655,test_pile,21,0,21,0,1,CHEESE - JIBINI,,,,,,,,,,,,,,,,,,,,,,,,,,,,,,,,,,,,,,,,,,,,,,,,,,,,,,,,,,,,,,,,,,,,,,,,,,,,,,,,
,,,,,,,,,,00001210123,2020-10-12_18h53.59.663,swahili,2020.2.4,MacIntel,60,,,,,,,,,,-0.204660373,-0.027664931,1,0,0,0.584365,unsorted_card,22,0,22,0,1,,,,,,,,,,,,,,,,,,,,,,,,,,,,,,,,,,,,,,,,,,,,,,,,,,,,,,,,,,,,,,,,,,,,,,,,,,,,,,,,,
,,,,,,,,,,00001210123,2020-10-12_18h53.59.663,swahili,2020.2.4,MacIntel,60,,,,,,,,,,0.422390408,0.025529514,1,0,0,1.59859,test_pile,23,0,23,0,1,GRAPES - ZABIBU,,,,,,,,,,,,,,,,,,,,,,,,,,,,,,,,,,,,,,,,,,,,,,,,,,,,,,,,,,,,,,,,,,,,,,,,,,,,,,,,
,,,,,,,,,,00001210123,2020-10-12_18h53.59.663,swahili,2020.2.4,MacIntel,60,,,,,,,,,,-0.265945095,-0.110381944,1,0,0,0.54854,unsorted_card,24,0,24,0,1,,,,,,,,,,,,,,,,,,,,,,,,,,,,,,,,,,,,,,,,,,,,,,,,,,,,,,,,,,,,,,,,,,,,,,,,,,,,,,,,,
,,,,,,,,,,00001210123,2020-10-12_18h53.59.663,swahili,2020.2.4,MacIntel,60,,,,,,,,,,0.471099175,-0.07671875,1,0,0,3.04902,test_pile,25,0,25,0,1,GRAVE - KABURI,,,,,,,,,,,,,,,,,,,,,,,,,,,,,,,,,,,,,,,,,,,,,,,,,,,,,,,,,,,,,,,,,,,,,,,,,,,,,,,,
,,,,,,,,,,00001210123,2020-10-12_18h53.59.663,swahili,2020.2.4,MacIntel,60,,,,,,,,,,-0.362326389,-0.17765625,1,0,0,0.582675,unsorted_card,26,0,26,0,1,,,,,,,,,,,,,,,,,,,,,,,,,,,,,,,,,,,,,,,,,,,,,,,,,,,,,,,,,,,,,,,,,,,,,,,,,,,,,,,,,
,,,,,,,,,,00001210123,2020-10-12_18h53.59.663,swahili,2020.2.4,MacIntel,60,,,,,,,,,,0.562608507,0.537821181,1,0,0,2.082225,study_pile,27,0,27,0,1,MANURE - SAMADI,,,,,,,,,,,,,,,,,,,,,,,,,,,,,,,,,,,,,,,,,,,,,,,,,,,,,,,,,,,,,,,,,,,,,,,,,,,,,,,,
,,,,,,,,,,00001210123,2020-10-12_18h53.59.663,swahili,2020.2.4,MacIntel,60,,,,,,,,,,-0.204595269,0.113472222,1,0,0,0.7487,unsorted_card,28,0,28,0,1,,,,,,,,,,,,,,,,,,,,,,,,,,,,,,,,,,,,,,,,,,,,,,,,,,,,,,,,,,,,,,,,,,,,,,,,,,,,,,,,,
,,,,,,,,,,00001210123,2020-10-12_18h53.59.663,swahili,2020.2.4,MacIntel,60,,,,,,,,,,0.396137153,0.037256944,1,0,0,1.6491,test_pile,29,0,29,0,1,AGENT - WAKILI,,,,,,,,,,,,,,,,,,,,,,,,,,,,,,,,,,,,,,,,,,,,,,,,,,,,,,,,,,,,,,,,,,,,,,,,,,,,,,,,
,,,,,,,,,,00001210123,2020-10-12_18h53.59.663,swahili,2020.2.4,MacIntel,60,,,,,,,,,,-0.302153863,-0.069696181,1,0,0,0.549035,unsorted_card,30,0,30,0,1,,,,,,,,,,,,,,,,,,,,,,,,,,,,,,,,,,,,,,,,,,,,,,,,,,,,,,,,,,,,,,,,,,,,,,,,,,,,,,,,,
,,,,,,,,,,00001210123,2020-10-12_18h53.59.663,swahili,2020.2.4,MacIntel,60,,,,,,,,,,0.302235243,0.037456597,1,0,0,1.21717,test_pile,31,0,31,0,1,BRIBE - RUSHWA,,,,,,,,,,,,,,,,,,,,,,,,,,,,,,,,,,,,,,,,,,,,,,,,,,,,,,,,,,,,,,,,,,,,,,,,,,,,,,,,
,,,,,,,,,,00001210123,2020-10-12_18h53.59.663,swahili,2020.2.4,MacIntel,60,,,,,,,,,,-0.403331163,0.018836806,1,0,0,1.41417,unsorted_card,32,0,32,0,1,,,,,,,,,,,,,,,,,,,,,,,,,,,,,,,,,,,,,,,,,,,,,,,,,,,,,,,,,,,,,,,,,,,,,,,,,,,,,,,,,
,,,,,,,,,,00001210123,2020-10-12_18h53.59.663,swahili,2020.2.4,MacIntel,60,,,,,,,,,,0.439718967,-0.010434028,1,0,0,1.28279,test_pile,33,0,33,0,1,ORPHAN - YATIMA,,,,,,,,,,,,,,,,,,,,,,,,,,,,,,,,,,,,,,,,,,,,,,,,,,,,,,,,,,,,,,,,,,,,,,,,,,,,,,,,
,,,,,,,,,,00001210123,2020-10-12_18h53.59.663,swahili,2020.2.4,MacIntel,60,,,,,,,,,,-0.265407986,-0.107560764,1,0,0,0.632275,unsorted_card,34,0,34,0,1,,,,,,,,,,,,,,,,,,,,,,,,,,,,,,,,,,,,,,,,,,,,,,,,,,,,,,,,,,,,,,,,,,,,,,,,,,,,,,,,,
,,,,,,,,,,00001210123,2020-10-12_18h53.59.663,swahili,2020.2.4,MacIntel,60,,,,,,,,,,0.418332248,0.000798611,1,0,0,1.266285,test_pile,35,0,35,0,1,DIVORCE - TALAKA,,,,,,,,,,,,,,,,,,,,,,,,,,,,,,,,,,,,,,,,,,,,,,,,,,,,,,,,,,,,,,,,,,,,,,,,,,,,,,,,
,,,,,,,,,,00001210123,2020-10-12_18h53.59.663,swahili,2020.2.4,MacIntel,60,,,,,,,,,,-0.400656467,-0.171953125,1,0,0,1.015035,unsorted_card,36,0,36,0,1,,,,,,,,,,,,,,,,,,,,,,,,,,,,,,,,,,,,,,,,,,,,,,,,,,,,,,,,,,,,,,,,,,,,,,,,,,,,,,,,,
,,,,,,,,,,00001210123,2020-10-12_18h53.59.663,swahili,2020.2.4,MacIntel,60,,,,,,,,,,0.463422309,0.523871528,1,0,0,1.26613,study_pile,37,0,37,0,1,BOAT - MASHUA,,,,,,,,,,,,,,,,,,,,,,,,,,,,,,,,,,,,,,,,,,,,,,,,,,,,,,,,,,,,,,,,,,,,,,,,,,,,,,,,
,,,,,,,,,,00001210123,2020-10-12_18h53.59.663,swahili,2020.2.4,MacIntel,60,,,,,,,,,,-0.240863715,0.165642361,1,0,0,0.581625,unsorted_card,38,0,38,0,1,,,,,,,,,,,,,,,,,,,,,,,,,,,,,,,,,,,,,,,,,,,,,,,,,,,,,,,,,,,,,,,,,,,,,,,,,,,,,,,,,
,,,,,,,,,,00001210123,2020-10-12_18h53.59.663,swahili,2020.2.4,MacIntel,60,,,,,,,,,,0.49694553,0.107291667,1,0,0,1.06563,test_pile,39,0,39,0,1,TREASURE - DAFINA,,,,,,,,,,,,,,,,,,,,,,,,,,,,,,,,,,,,,,,,,,,,,,,,,,,,,,,,,,,,,,,,,,,,,,,,,,,,,,,,
,,,,,,,,,,00001210123,2020-10-12_18h53.59.663,swahili,2020.2.4,MacIntel,60,,,,,,,,,,,,,,,,,,,,,,,0.49694553,0.101597222,1,0,0,0.91655,test_first,,,0,0,0,0,1,,,,,,,,,,,,,,,,,,,,,,,,,,,,,,,,,,,,,,,,,,,,,,,,,,,,,,,,,,,,,,,,,,
,,,,,,,,,,00001210123,2020-10-12_18h53.59.663,swahili,2020.2.4,MacIntel,60,,,,,,,,,,,,,,,,,,,,,,,,,,,,,,,,,,,,,return,0.94831,3.26421,0.378602431,-0.119765625,1,0,0,0.84894,yes,AGENT,WAKILI,incorrect,0,0,0,0,1,,,,,,,,,,,,,,,,,,,,,,,,,,,,,,,,,,,,,,,,,,,,,,,,
,,,,,,,,,,00001210123,2020-10-12_18h53.59.663,swahili,2020.2.4,MacIntel,60,,,,,,,,,,,,,,,,,,,,,,,,,,,,,,,,,,,,,,,4.297925,0.376144748,-0.124947917,1,0,0,0.60015,yes,BLAME,LAWAMA,incorrect,1,0,1,0,1,,,,,,,,,,,,,,,,,,,,,,,,,,,,,,,,,,,,,,,,,,,,,,,,
,,,,,,,,,,00001210123,2020-10-12_18h53.59.663,swahili,2020.2.4,MacIntel,60,,,,,,,,,,,,,,,,,,,,,,,,,,,,,,,,,,,,,,,5.56386,0.460454644,-0.019366319,1,0,0,1.467085,yes,TREASURE,DAFINA,incorrect,2,0,2,0,1,,,,,,,,,,,,,,,,,,,,,,,,,,,,,,,,,,,,,,,,,,,,,,,,
,,,,,,,,,,00001210123,2020-10-12_18h53.59.663,swahili,2020.2.4,MacIntel,60,,,,,,,,,,,,,,,,,,,,,,,,,,,,,,,,,,,,,,,3.86417,0.319672309,-0.052118056,1,0,0,0.74969,yes,GRAVE,KABURI,incorrect,3,0,3,0,1,,,,,,,,,,,,,,,,,,,,,,,,,,,,,,,,,,,,,,,,,,,,,,,,
,,,,,,,,,,00001210123,2020-10-12_18h53.59.663,swahili,2020.2.4,MacIntel,60,,,,,,,,,,,,,,,,,,,,,,,,,,,,,,,,,,,,,,,10.81361,0.259950087,-0.116241319,1,0,0,0.950865,yes,BULL,ZAHILI,incorrect,4,0,4,0,1,,,,,,,,,,,,,,,,,,,,,,,,,,,,,,,,,,,,,,,,,,,,,,,,
,,,,,,,,,,00001210123,2020-10-12_18h53.59.663,swahili,2020.2.4,MacIntel,60,,,,,,,,,,,,,,,,,,,,,,,,,,,,,,,,,,,,,,,4.114505,0.445404731,0.004696181,1,0,0,2.59959,yes,POEM,UTENZI,incorrect,5,0,5,0,1,,,,,,,,,,,,,,,,,,,,,,,,,,,,,,,,,,,,,,,,,,,,,,,,
,,,,,,,,,,00001210123,2020-10-12_18h53.59.663,swahili,2020.2.4,MacIntel,60,,,,,,,,,,,,,,,,,,,,,,,,,,,,,,,,,,,,,,,2.74741,0.4191352,0.045460069,1,0,0,1.00022,yes,DIVORCE,TALAKA,incorrect,6,0,6,0,1,,,,,,,,,,,,,,,,,,,,,,,,,,,,,,,,,,,,,,,,,,,,,,,,
,,,,,,,,,,00001210123,2020-10-12_18h53.59.663,swahili,2020.2.4,MacIntel,60,,,,,,,,,,,,,,,,,,,,,,,,,,,,,,,,,,,,,,,2.4158,0.32516276,-0.134435764,1,0,0,1.03246,yes,CHEESE,JIBINI,incorrect,7,0,7,0,1,,,,,,,,,,,,,,,,,,,,,,,,,,,,,,,,,,,,,,,,,,,,,,,,
,,,,,,,,,,00001210123,2020-10-12_18h53.59.663,swahili,2020.2.4,MacIntel,60,,,,,,,,,,,,,,,,,,,,,,,,,,,,,,,,,,,,,,,9.731145,0.427837457,-0.029913194,1,0,0,0.667905,yes,GRAPES,ZABIBU,incorrect,8,0,8,0,1,,,,,,,,,,,,,,,,,,,,,,,,,,,,,,,,,,,,,,,,,,,,,,,,
,,,,,,,,,,00001210123,2020-10-12_18h53.59.663,swahili,2020.2.4,MacIntel,60,,,,,,,,,,,,,,,,,,,,,,,,,,,,,,,,,,,,,,,4.932,0.357899306,-0.12359375,1,0,0,0.68467,yes,BRIBE,RUSHWA,incorrect,9,0,9,0,1,,,,,,,,,,,,,,,,,,,,,,,,,,,,,,,,,,,,,,,,,,,,,,,,
,,,,,,,,,,00001210123,2020-10-12_18h53.59.663,swahili,2020.2.4,MacIntel,60,,,,,,,,,,,,,,,,,,,,,,,,,,,,,,,,,,,,,,,2.96533,0.501589627,-0.012534722,1,0,0,0.91565,yes,TAILOR,MSHONI,incorrect,10,0,10,0,1,,,,,,,,,,,,,,,,,,,,,,,,,,,,,,,,,,,,,,,,,,,,,,,,
,,,,,,,,,,00001210123,2020-10-12_18h53.59.663,swahili,2020.2.4,MacIntel,60,,,,,,,,,,,,,,,,,,,,,,,,,,,,,,,,,,,,,,,14.01381,0.358436415,-0.075052083,1,0,0,0.68456,yes,ORPHAN,YAMINA,incorrect,11,0,11,0,1,,,,,,,,,,,,,,,,,,,,,,,,,,,,,,,,,,,,,,,,,,,,,,,,
,,,,,,,,,,00001210123,2020-10-12_18h53.59.663,swahili,2020.2.4,MacIntel,60,,,,,,,,,,,,,,,,,,,,,,,,,,,,,,,,,,,,,,,,,,,,,,,,,,,,,,,0,0,0,0,1,,,,,,,,,,,,,,,,,,,,,,,,,,,,,,,,,,,,,,,,,,,
,,,,,,,,,,00001210123,2020-10-12_18h53.59.663,swahili,2020.2.4,MacIntel,60,,,,,,,,,,,,,,,,,,,,,,PARROT - KASUKU,,,,,,,,return,return,0,0,0,0,1,,,,,,,,,,,,,,,,,,,,,,,,,,,,,1.63359,4.551425,,,,,,,,,,,,,,,,,,,,,,,,,,,,,,,,,,,,
,,,,,,,,,,00001210123,2020-10-12_18h53.59.663,swahili,2020.2.4,MacIntel,60,,,,,,,,,,,,,,,,,,,,,,OATH - YAMINI,,,,,,,,,return,1,0,1,0,1,,,,,,,,,,,,,,,,,,,,,,,,,,,,,,1.53195,,,,,,,,,,,,,,,,,,,,,,,,,,,,,,,,,,,,
,,,,,,,,,,00001210123,2020-10-12_18h53.59.663,swahili,2020.2.4,MacIntel,60,,,,,,,,,,,,,,,,,,,,,,YEAST - HAMIRA,,,,,,,,,return,2,0,2,0,1,,,,,,,,,,,,,,,,,,,,,,,,,,,,,,1.65024,,,,,,,,,,,,,,,,,,,,,,,,,,,,,,,,,,,,
,,,,,,,,,,00001210123,2020-10-12_18h53.59.663,swahili,2020.2.4,MacIntel,60,,,,,,,,,,,,,,,,,,,,,,MANURE - SAMADI,,,,,,,,,return,3,0,3,0,1,,,,,,,,,,,,,,,,,,,,,,,,,,,,,,20.81804,,,,,,,,,,,,,,,,,,,,,,,,,,,,,,,,,,,,
,,,,,,,,,,00001210123,2020-10-12_18h53.59.663,swahili,2020.2.4,MacIntel,60,,,,,,,,,,,,,,,,,,,,,,BOAT - MASHUA,,,,,,,,,return,4,0,4,0,1,,,,,,,,,,,,,,,,,,,,,,,,,,,,,,3.466165,,,,,,,,,,,,,,,,,,,,,,,,,,,,,,,,,,,,
,,,,,,,,,,00001210123,2020-10-12_18h53.59.663,swahili,2020.2.4,MacIntel,60,,,,,,,,,,,,,,,,,,,,,,PLATE - SAHANI,,,,,,,,,return,5,0,5,0,1,,,,,,,,,,,,,,,,,,,,,,,,,,,,,,0.86883,,,,,,,,,,,,,,,,,,,,,,,,,,,,,,,,,,,,
,,,,,,,,,,00001210123,2020-10-12_18h53.59.663,swahili,2020.2.4,MacIntel,60,,,,,,,,,,,,,,,,,,,,,,CORN - NAFAKA,,,,,,,,,return,6,0,6,0,1,,,,,,,,,,,,,,,,,,,,,,,,,,,,,,14.232175,,,,,,,,,,,,,,,,,,,,,,,,,,,,,,,,,,,,
,,,,,,,,,,00001210123,2020-10-12_18h53.59.663,swahili,2020.2.4,MacIntel,60,,,,,,,,,,,,,,,,,,,,,,MERCHANT - TAJIRI,,,,,,,,,return,7,0,7,0,1,,,,,,,,,,,,,,,,,,,,,,,,,,,,,,1.21685,,,,,,,,,,,,,,,,,,,,,,,,,,,,,,,,,,,,
,,,,,,,,,,00001210123,2020-10-12_18h53.59.663,swahili,2020.2.4,MacIntel,60,,,,,,,,,,,,,,,,,,,,,,,,,,,,,,,,,,,,,,,,,,,,,,,,,,,,,,,1,0,1,0,1,,,,,,,,,,,,,,,,,,,,,,,,,,,,,,,,,,,,,,,,,,,
,,,,,,,,,,00001210123,2020-10-12_18h53.59.663,swahili,2020.2.4,MacIntel,60,,,,,,,,,,,,,,,,,,,,,,,,,,,,,,,,,,,,,,,,,,,,,,,,,,,,,,,,,,,,3,0,3,0,1,,,,,,,,,,,,,,,,,,,,,,,,,,,,,,,,,,,,,,
,,,,,,,,,,00001210123,2020-10-12_18h53.59.663,swahili,2020.2.4,MacIntel,60,,,,,,,,,,-0.302756076,-0.201440972,1,0,0,1.072255,unsorted_card,0,0,0,0,1,,,,,,,,,,,,,,,,,,,,,,,,,,,,,,,,,,,,,,,,,,,,,,,,,,,,,,,,,,,,,,,,,,,,,,,,,,,,,,,,,
,,,,,,,,,,00001210123,2020-10-12_18h53.59.663,swahili,2020.2.4,MacIntel,60,,,,,,,,,,0.434819878,0.354036458,1,0,0,1.21471,study_pile,1,0,1,0,1,MERCHANT - TAJIRI,,,,,,,,,,,,,,,,,,,,,,,,,,,,,,,,,,,,,,,,,,,,,,,,,,,,,,,,,,,,,,,,,,,,,,,,,,,,,,,,
,,,,,,,,,,00001210123,2020-10-12_18h53.59.663,swahili,2020.2.4,MacIntel,60,,,,,,,,,,-0.350021701,-0.036918403,1,0,0,0.53276,unsorted_card,2,0,2,0,1,,,,,,,,,,,,,,,,,,,,,,,,,,,,,,,,,,,,,,,,,,,,,,,,,,,,,,,,,,,,,,,,,,,,,,,,,,,,,,,,,
,,,,,,,,,,00001210123,2020-10-12_18h53.59.663,swahili,2020.2.4,MacIntel,60,,,,,,,,,,0.509510634,0.566970486,1,0,0,3.03177,study_pile,3,0,3,0,1,PARROT - KASUKU,,,,,,,,,,,,,,,,,,,,,,,,,,,,,,,,,,,,,,,,,,,,,,,,,,,,,,,,,,,,,,,,,,,,,,,,,,,,,,,,
,,,,,,,,,,00001210123,2020-10-12_18h53.59.663,swahili,2020.2.4,MacIntel,60,,,,,,,,,,-0.302398003,-0.0403125,1,0,0,0.55006,unsorted_card,4,0,4,0,1,,,,,,,,,,,,,,,,,,,,,,,,,,,,,,,,,,,,,,,,,,,,,,,,,,,,,,,,,,,,,,,,,,,,,,,,,,,,,,,,,
,,,,,,,,,,00001210123,2020-10-12_18h53.59.663,swahili,2020.2.4,MacIntel,60,,,,,,,,,,0.339572483,0.066953125,1,0,0,1.68145,test_pile,5,0,5,0,1,BULL - FAHILI,,,,,,,,,,,,,,,,,,,,,,,,,,,,,,,,,,,,,,,,,,,,,,,,,,,,,,,,,,,,,,,,,,,,,,,,,,,,,,,,
,,,,,,,,,,00001210123,2020-10-12_18h53.59.663,swahili,2020.2.4,MacIntel,60,,,,,,,,,,-0.350726997,0.001232639,1,0,0,0.515815,unsorted_card,6,0,6,0,1,,,,,,,,,,,,,,,,,,,,,,,,,,,,,,,,,,,,,,,,,,,,,,,,,,,,,,,,,,,,,,,,,,,,,,,,,,,,,,,,,
,,,,,,,,,,00001210123,2020-10-12_18h53.59.663,swahili,2020.2.4,MacIntel,60,,,,,,,,,,0.507150608,0.428619792,1,0,0,2.26532,study_pile,7,0,7,0,1,PLATE - SAHANI,,,,,,,,,,,,,,,,,,,,,,,,,,,,,,,,,,,,,,,,,,,,,,,,,,,,,,,,,,,,,,,,,,,,,,,,,,,,,,,,
,,,,,,,,,,00001210123,2020-10-12_18h53.59.663,swahili,2020.2.4,MacIntel,60,,,,,,,,,,-0.313264974,0.130381944,1,0,0,0.58242,unsorted_card,8,0,8,0,1,,,,,,,,,,,,,,,,,,,,,,,,,,,,,,,,,,,,,,,,,,,,,,,,,,,,,,,,,,,,,,,,,,,,,,,,,,,,,,,,,
,,,,,,,,,,00001210123,2020-10-12_18h53.59.663,swahili,2020.2.4,MacIntel,60,,,,,,,,,,0.532915582,0.530034722,1,0,0,1.982585,study_pile,9,0,9,0,1,YEAST - HAMIRA,,,,,,,,,,,,,,,,,,,,,,,,,,,,,,,,,,,,,,,,,,,,,,,,,,,,,,,,,,,,,,,,,,,,,,,,,,,,,,,,
,,,,,,,,,,00001210123,2020-10-12_18h53.59.663,swahili,2020.2.4,MacIntel,60,,,,,,,,,,-0.418240017,0.034791667,1,0,0,0.58248,unsorted_card,10,0,10,0,1,,,,,,,,,,,,,,,,,,,,,,,,,,,,,,,,,,,,,,,,,,,,,,,,,,,,,,,,,,,,,,,,,,,,,,,,,,,,,,,,,
,,,,,,,,,,00001210123,2020-10-12_18h53.59.663,swahili,2020.2.4,MacIntel,60,,,,,,,,,,0.552240668,-0.065928819,1,0,0,5.84972,test_pile,11,0,11,0,1,BLAME - LAWAMA,,,,,,,,,,,,,,,,,,,,,,,,,,,,,,,,,,,,,,,,,,,,,,,,,,,,,,,,,,,,,,,,,,,,,,,,,,,,,,,,
,,,,,,,,,,00001210123,2020-10-12_18h53.59.663,swahili,2020.2.4,MacIntel,60,,,,,,,,,,-0.363319227,-0.177847222,1,0,0,0.632465,unsorted_card,12,0,12,0,1,,,,,,,,,,,,,,,,,,,,,,,,,,,,,,,,,,,,,,,,,,,,,,,,,,,,,,,,,,,,,,,,,,,,,,,,,,,,,,,,,
,,,,,,,,,,00001210123,2020-10-12_18h53.59.663,swahili,2020.2.4,MacIntel,60,,,,,,,,,,0.459130859,0.372048611,1,0,0,1.96467,study_pile,13,0,13,0,1,OATH - YAMINI,,,,,,,,,,,,,,,,,,,,,,,,,,,,,,,,,,,,,,,,,,,,,,,,,,,,,,,,,,,,,,,,,,,,,,,,,,,,,,,,
,,,,,,,,,,00001210123,2020-10-12_18h53.59.663,swahili,2020.2.4,MacIntel,60,,,,,,,,,,-0.436273872,-0.108029514,1,0,0,0.532,unsorted_card,14,0,14,0,1,,,,,,,,,,,,,,,,,,,,,,,,,,,,,,,,,,,,,,,,,,,,,,,,,,,,,,,,,,,,,,,,,,,,,,,,,,,,,,,,,
,,,,,,,,,,00001210123,2020-10-12_18h53.59.663,swahili,2020.2.4,MacIntel,60,,,,,,,,,,0.406982422,-0.090859375,1,0,0,1.38346,test_pile,15,0,15,0,1,CORN - NAFAKA,,,,,,,,,,,,,,,,,,,,,,,,,,,,,,,,,,,,,,,,,,,,,,,,,,,,,,,,,,,,,,,,,,,,,,,,,,,,,,,,
,,,,,,,,,,00001210123,2020-10-12_18h53.59.663,swahili,2020.2.4,MacIntel,60,,,,,,,,,,-0.451540799,-0.034522569,1,0,0,0.54876,unsorted_card,16,0,16,0,1,,,,,,,,,,,,,,,,,,,,,,,,,,,,,,,,,,,,,,,,,,,,,,,,,,,,,,,,,,,,,,,,,,,,,,,,,,,,,,,,,
,,,,,,,,,,00001210123,2020-10-12_18h53.59.663,swahili,2020.2.4,MacIntel,60,,,,,,,,,,0.495496962,-0.578298611,1,0,0,1.28295,done_pile,17,0,17,0,1,POEM - UTENZI,,,,,,,,,,,,,,,,,,,,,,,,,,,,,,,,,,,,,,,,,,,,,,,,,,,,,,,,,,,,,,,,,,,,,,,,,,,,,,,,
,,,,,,,,,,00001210123,2020-10-12_18h53.59.663,swahili,2020.2.4,MacIntel,60,,,,,,,,,,-0.358338759,-0.185086806,1,0,0,0.68276,unsorted_card,18,0,18,0,1,,,,,,,,,,,,,,,,,,,,,,,,,,,,,,,,,,,,,,,,,,,,,,,,,,,,,,,,,,,,,,,,,,,,,,,,,,,,,,,,,
,,,,,,,,,,00001210123,2020-10-12_18h53.59.663,swahili,2020.2.4,MacIntel,60,,,,,,,,,,0.534217665,-0.595217014,1,0,0,1.31516,done_pile,19,0,19,0,1,TAILOR - MSHONI,,,,,,,,,,,,,,,,,,,,,,,,,,,,,,,,,,,,,,,,,,,,,,,,,,,,,,,,,,,,,,,,,,,,,,,,,,,,,,,,
,,,,,,,,,,00001210123,2020-10-12_18h53.59.663,swahili,2020.2.4,MacIntel,60,,,,,,,,,,-0.382839627,-0.129270833,1,0,0,0.86708,unsorted_card,20,0,20,0,1,,,,,,,,,,,,,,,,,,,,,,,,,,,,,,,,,,,,,,,,,,,,,,,,,,,,,,,,,,,,,,,,,,,,,,,,,,,,,,,,,
,,,,,,,,,,00001210123,2020-10-12_18h53.59.663,swahili,2020.2.4,MacIntel,60,,,,,,,,,,0.461338976,-0.431137153,1,0,0,1.14822,done_pile,21,0,21,0,1,CHEESE - JIBINI,,,,,,,,,,,,,,,,,,,,,,,,,,,,,,,,,,,,,,,,,,,,,,,,,,,,,,,,,,,,,,,,,,,,,,,,,,,,,,,,
,,,,,,,,,,00001210123,2020-10-12_18h53.59.663,swahili,2020.2.4,MacIntel,60,,,,,,,,,,-0.352680122,0.095026042,1,0,0,0.531455,unsorted_card,22,0,22,0,1,,,,,,,,,,,,,,,,,,,,,,,,,,,,,,,,,,,,,,,,,,,,,,,,,,,,,,,,,,,,,,,,,,,,,,,,,,,,,,,,,
,,,,,,,,,,00001210123,2020-10-12_18h53.59.663,swahili,2020.2.4,MacIntel,60,,,,,,,,,,0.492643229,-0.333194444,1,0,0,2.61578,done_pile,23,0,23,0,1,GRAPES - ZABIBU,,,,,,,,,,,,,,,,,,,,,,,,,,,,,,,,,,,,,,,,,,,,,,,,,,,,,,,,,,,,,,,,,,,,,,,,,,,,,,,,
,,,,,,,,,,00001210123,2020-10-12_18h53.59.663,swahili,2020.2.4,MacIntel,60,,,,,,,,,,-0.474484592,-0.156684028,1,0,0,1.631855,unsorted_card,24,0,24,0,1,,,,,,,,,,,,,,,,,,,,,,,,,,,,,,,,,,,,,,,,,,,,,,,,,,,,,,,,,,,,,,,,,,,,,,,,,,,,,,,,,
,,,,,,,,,,00001210123,2020-10-12_18h53.59.663,swahili,2020.2.4,MacIntel,60,,,,,,,,,,0.391937934,-0.062395833,1,0,0,8.833555,test_pile,25,0,25,0,1,GRAVE - KABURI,,,,,,,,,,,,,,,,,,,,,,,,,,,,,,,,,,,,,,,,,,,,,,,,,,,,,,,,,,,,,,,,,,,,,,,,,,,,,,,,
,,,,,,,,,,00001210123,2020-10-12_18h53.59.663,swahili,2020.2.4,MacIntel,60,,,,,,,,,,-0.559749349,0.006744792,1,0,0,0.58102,unsorted_card,26,0,26,0,1,,,,,,,,,,,,,,,,,,,,,,,,,,,,,,,,,,,,,,,,,,,,,,,,,,,,,,,,,,,,,,,,,,,,,,,,,,,,,,,,,
,,,,,,,,,,00001210123,2020-10-12_18h53.59.663,swahili,2020.2.4,MacIntel,60,,,,,,,,,,0.3824273,0.090295139,1,0,0,3.61531,test_pile,27,0,27,0,1,MANURE - SAMADI,,,,,,,,,,,,,,,,,,,,,,,,,,,,,,,,,,,,,,,,,,,,,,,,,,,,,,,,,,,,,,,,,,,,,,,,,,,,,,,,
,,,,,,,,,,00001210123,2020-10-12_18h53.59.663,swahili,2020.2.4,MacIntel,60,,,,,,,,,,-0.367491319,0.13875,1,0,0,1.19852,unsorted_card,28,0,28,0,1,,,,,,,,,,,,,,,,,,,,,,,,,,,,,,,,,,,,,,,,,,,,,,,,,,,,,,,,,,,,,,,,,,,,,,,,,,,,,,,,,
,,,,,,,,,,00001210123,2020-10-12_18h53.59.663,swahili,2020.2.4,MacIntel,60,,,,,,,,,,0.404340278,0.017508681,1,0,0,4.26539,test_pile,29,0,29,0,1,AGENT - WAKILI,,,,,,,,,,,,,,,,,,,,,,,,,,,,,,,,,,,,,,,,,,,,,,,,,,,,,,,,,,,,,,,,,,,,,,,,,,,,,,,,
,,,,,,,,,,00001210123,2020-10-12_18h53.59.663,swahili,2020.2.4,MacIntel,60,,,,,,,,,,-0.377072483,0.035651042,1,0,0,0.53176,unsorted_card,30,0,30,0,1,,,,,,,,,,,,,,,,,,,,,,,,,,,,,,,,,,,,,,,,,,,,,,,,,,,,,,,,,,,,,,,,,,,,,,,,,,,,,,,,,
,,,,,,,,,,00001210123,2020-10-12_18h53.59.663,swahili,2020.2.4,MacIntel,60,,,,,,,,,,0.410953776,0.059427083,1,0,0,6.00073,test_pile,31,0,31,0,1,BRIBE - RUSHWA,,,,,,,,,,,,,,,,,,,,,,,,,,,,,,,,,,,,,,,,,,,,,,,,,,,,,,,,,,,,,,,,,,,,,,,,,,,,,,,,
,,,,,,,,,,00001210123,2020-10-12_18h53.59.663,swahili,2020.2.4,MacIntel,60,,,,,,,,,,-0.508056641,-0.101935764,1,0,0,1.447425,unsorted_card,32,0,32,0,1,,,,,,,,,,,,,,,,,,,,,,,,,,,,,,,,,,,,,,,,,,,,,,,,,,,,,,,,,,,,,,,,,,,,,,,,,,,,,,,,,
,,,,,,,,,,00001210123,2020-10-12_18h53.59.663,swahili,2020.2.4,MacIntel,60,,,,,,,,,,0.297233073,-0.003984375,1,0,0,5.865395,test_pile,33,0,33,0,1,ORPHAN - YATIMA,,,,,,,,,,,,,,,,,,,,,,,,,,,,,,,,,,,,,,,,,,,,,,,,,,,,,,,,,,,,,,,,,,,,,,,,,,,,,,,,
,,,,,,,,,,00001210123,2020-10-12_18h53.59.663,swahili,2020.2.4,MacIntel,60,,,,,,,,,,-0.371636285,0.088888889,1,0,0,0.83193,unsorted_card,34,0,34,0,1,,,,,,,,,,,,,,,,,,,,,,,,,,,,,,,,,,,,,,,,,,,,,,,,,,,,,,,,,,,,,,,,,,,,,,,,,,,,,,,,,
,,,,,,,,,,00001210123,2020-10-12_18h53.59.663,swahili,2020.2.4,MacIntel,60,,,,,,,,,,0.501801215,-0.559539931,1,0,0,3.06505,done_pile,35,0,35,0,1,DIVORCE - TALAKA,,,,,,,,,,,,,,,,,,,,,,,,,,,,,,,,,,,,,,,,,,,,,,,,,,,,,,,,,,,,,,,,,,,,,,,,,,,,,,,,
,,,,,,,,,,00001210123,2020-10-12_18h53.59.663,swahili,2020.2.4,MacIntel,60,,,,,,,,,,-0.480772569,-0.030147569,1,0,0,1.26474,unsorted_card,36,0,36,0,1,,,,,,,,,,,,,,,,,,,,,,,,,,,,,,,,,,,,,,,,,,,,,,,,,,,,,,,,,,,,,,,,,,,,,,,,,,,,,,,,,
,,,,,,,,,,00001210123,2020-10-12_18h53.59.663,swahili,2020.2.4,MacIntel,60,,,,,,,,,,0.362782118,0.025729167,1,0,0,2.98333,test_pile,37,0,37,0,1,BOAT - MASHUA,,,,,,,,,,,,,,,,,,,,,,,,,,,,,,,,,,,,,,,,,,,,,,,,,,,,,,,,,,,,,,,,,,,,,,,,,,,,,,,,
,,,,,,,,,,00001210123,2020-10-12_18h53.59.663,swahili,2020.2.4,MacIntel,60,,,,,,,,,,-0.172368707,0.088619792,1,0,0,0.8145,unsorted_card,38,0,38,0,1,,,,,,,,,,,,,,,,,,,,,,,,,,,,,,,,,,,,,,,,,,,,,,,,,,,,,,,,,,,,,,,,,,,,,,,,,,,,,,,,,
,,,,,,,,,,00001210123,2020-10-12_18h53.59.663,swahili,2020.2.4,MacIntel,60,,,,,,,,,,0.577631293,0.006067708,1,0,0,3.39892,test_pile,39,0,39,0,1,TREASURE - DAFINA,,,,,,,,,,,,,,,,,,,,,,,,,,,,,,,,,,,,,,,,,,,,,,,,,,,,,,,,,,,,,,,,,,,,,,,,,,,,,,,,
,,,,,,,,,,00001210123,2020-10-12_18h53.59.663,swahili,2020.2.4,MacIntel,60,,,,,,,,,,,,,,,,,,,,,,,0.54858941,-0.072239583,1,0,0,1.798905,test_first,,,0,0,0,0,1,,,,,,,,,,,,,,,,,,,,,,,,,,,,,,,,,,,,,,,,,,,,,,,,,,,,,,,,,,,,,,,,,,
,,,,,,,,,,00001210123,2020-10-12_18h53.59.663,swahili,2020.2.4,MacIntel,60,,,,,,,,,,,,,,,,,,,,,,,,,,,,,,,,,,,,,return,1.063435,3.580745,0.544715712,0.043046875,1,0,0,0.63364,yes,AGENT,WAKILI,incorrect,0,0,0,0,1,,,,,,,,,,,,,,,,,,,,,,,,,,,,,,,,,,,,,,,,,,,,,,,,
,,,,,,,,,,00001210123,2020-10-12_18h53.59.663,swahili,2020.2.4,MacIntel,60,,,,,,,,,,,,,,,,,,,,,,,,,,,,,,,,,,,,,,,7.18111,0.514751519,-0.180572917,1,0,0,0.699945,yes,BULL,NAFILI,incorrect,1,0,1,0,1,,,,,,,,,,,,,,,,,,,,,,,,,,,,,,,,,,,,,,,,,,,,,,,,
,,,,,,,,,,00001210123,2020-10-12_18h53.59.663,swahili,2020.2.4,MacIntel,60,,,,,,,,,,,,,,,,,,,,,,,,,,,,,,,,,,,,,,,2.54755,0.404909939,-0.015989583,1,0,0,1.59972,yes,BOAT,MASHUA,incorrect,2,0,2,0,1,,,,,,,,,,,,,,,,,,,,,,,,,,,,,,,,,,,,,,,,,,,,,,,,
,,,,,,,,,,00001210123,2020-10-12_18h53.59.663,swahili,2020.2.4,MacIntel,60,,,,,,,,,,,,,,,,,,,,,,,,,,,,,,,,,,,,,,,3.69873,0.420307075,-0.022361111,1,0,0,0.65083,yes,MANURE,SAMANI,incorrect,3,0,3,0,1,,,,,,,,,,,,,,,,,,,,,,,,,,,,,,,,,,,,,,,,,,,,,,,,
,,,,,,,,,,00001210123,2020-10-12_18h53.59.663,swahili,2020.2.4,MacIntel,60,,,,,,,,,,,,,,,,,,,,,,,,,,,,,,,,,,,,,,,3.88113,0.465820313,0.012994792,1,0,0,1.11627,yes,BLAME,LAWAMA,incorrect,4,0,4,0,1,,,,,,,,,,,,,,,,,,,,,,,,,,,,,,,,,,,,,,,,,,,,,,,,
,,,,,,,,,,00001210123,2020-10-12_18h53.59.663,swahili,2020.2.4,MacIntel,60,,,,,,,,,,,,,,,,,,,,,,,,,,,,,,,,,,,,,,,4.2816,0.434016927,-0.02125,1,0,0,0.651005,yes,CORN,NAFAKA,incorrect,5,0,5,0,1,,,,,,,,,,,,,,,,,,,,,,,,,,,,,,,,,,,,,,,,,,,,,,,,
,,,,,,,,,,00001210123,2020-10-12_18h53.59.663,swahili,2020.2.4,MacIntel,60,,,,,,,,,,,,,,,,,,,,,,,,,,,,,,,,,,,,,,,5.515805,0.432128906,0.002890625,1,0,0,0.83193,yes,BRIBE,RUSHWA,incorrect,6,0,6,0,1,,,,,,,,,,,,,,,,,,,,,,,,,,,,,,,,,,,,,,,,,,,,,,,,
,,,,,,,,,,00001210123,2020-10-12_18h53.59.663,swahili,2020.2.4,MacIntel,60,,,,,,,,,,,,,,,,,,,,,,,,,,,,,,,,,,,,,,,3.847935,0.528965929,0.098828125,1,0,0,1.01628,yes,ORPHAN,YATIMA,incorrect,7,0,7,0,1,,,,,,,,,,,,,,,,,,,,,,,,,,,,,,,,,,,,,,,,,,,,,,,,
,,,,,,,,,,00001210123,2020-10-12_18h53.59.663,swahili,2020.2.4,MacIntel,60,,,,,,,,,,,,,,,,,,,,,,,,,,,,,,,,,,,,,,,4.464525,0.549240451,0.047699653,1,0,0,0.684435,yes,GRAVE,KABURI,incorrect,8,0,8,0,1,,,,,,,,,,,,,,,,,,,,,,,,,,,,,,,,,,,,,,,,,,,,,,,,
,,,,,,,,,,00001210123,2020-10-12_18h53.59.663,swahili,2020.2.4,MacIntel,60,,,,,,,,,,,,,,,,,,,,,,,,,,,,,,,,,,,,,,,3.33143,0.412098524,0.099904514,1,0,0,0.68282,yes,TREASURE,DAFINA,incorrect,9,0,9,0,1,,,,,,,,,,,,,,,,,,,,,,,,,,,,,,,,,,,,,,,,,,,,,,,,
,,,,,,,,,,00001210123,2020-10-12_18h53.59.663,swahili,2020.2.4,MacIntel,60,,,,,,,,,,,,,,,,,,,,,,,,,,,,,,,,,,,,,,,,,,,,,,,,,,,,,,,0,0,0,0,1,,,,,,,,,,,,,,,,,,,,,,,,,,,,,,,,,,,,,,,,,,,
,,,,,,,,,,00001210123,2020-10-12_18h53.59.663,swahili,2020.2.4,MacIntel,60,,,,,,,,,,,,,,,,,,,,,,PARROT - KASUKU,,,,,,,,return,return,0,0,0,0,1,,,,,,,,,,,,,,,,,,,,,,,,,,,,,1.51501,5.228725,,,,,,,,,,,,,,,,,,,,,,,,,,,,,,,,,,,,
,,,,,,,,,,00001210123,2020-10-12_18h53.59.663,swahili,2020.2.4,MacIntel,60,,,,,,,,,,,,,,,,,,,,,,PLATE - SAHANI,,,,,,,,,return,1,0,1,0,1,,,,,,,,,,,,,,,,,,,,,,,,,,,,,,1.169115,,,,,,,,,,,,,,,,,,,,,,,,,,,,,,,,,,,,
,,,,,,,,,,00001210123,2020-10-12_18h53.59.663,swahili,2020.2.4,MacIntel,60,,,,,,,,,,,,,,,,,,,,,,YEAST - HAMIRA,,,,,,,,,return,2,0,2,0,1,,,,,,,,,,,,,,,,,,,,,,,,,,,,,,2.75089,,,,,,,,,,,,,,,,,,,,,,,,,,,,,,,,,,,,
,,,,,,,,,,00001210123,2020-10-12_18h53.59.663,swahili,2020.2.4,MacIntel,60,,,,,,,,,,,,,,,,,,,,,,OATH - YAMINI,,,,,,,,,return,3,0,3,0,1,,,,,,,,,,,,,,,,,,,,,,,,,,,,,,2.551245,,,,,,,,,,,,,,,,,,,,,,,,,,,,,,,,,,,,
,,,,,,,,,,00001210123,2020-10-12_18h53.59.663,swahili,2020.2.4,MacIntel,60,,,,,,,,,,,,,,,,,,,,,,MERCHANT - TAJIRI,,,,,,,,,return,4,0,4,0,1,,,,,,,,,,,,,,,,,,,,,,,,,,,,,,3.712435,,,,,,,,,,,,,,,,,,,,,,,,,,,,,,,,,,,,
,,,,,,,,,,00001210123,2020-10-12_18h53.59.663,swahili,2020.2.4,MacIntel,60,,,,,,,,,,,,,,,,,,,,,,,,,,,,,,,,,,,,,,,,,,,,,,,,,,,,,,,1,0,1,0,1,,,,,,,,,,,,,,,,,,,,,,,,,,,,,,,,,,,,,,,,,,,
,,,,,,,,,,00001210123,2020-10-12_18h53.59.663,swahili,2020.2.4,MacIntel,60,,,,,,,,,,,,,,,,,,,,,,,,,,,,,,,,,,,,,,,,,,,,,,,,,,,,,,,,,,,,4,0,4,0,1,,,,,,,,,,,,,,,,,,,,,,,,,,,,,,,,,,,,,,
,,,,,,,,,,00001210123,2020-10-12_18h53.59.663,swahili,2020.2.4,MacIntel,60,,,,,,,,,,-0.125509983,-0.142621528,1,0,0,1.10447,unsorted_card,0,0,0,0,1,,,,,,,,,,,,,,,,,,,,,,,,,,,,,,,,,,,,,,,,,,,,,,,,,,,,,,,,,,,,,,,,,,,,,,,,,,,,,,,,,
,,,,,,,,,,00001210123,2020-10-12_18h53.59.663,swahili,2020.2.4,MacIntel,60,,,,,,,,,,0.437510851,0.543949653,1,0,0,1.298095,study_pile,1,0,1,0,1,MERCHANT - TAJIRI,,,,,,,,,,,,,,,,,,,,,,,,,,,,,,,,,,,,,,,,,,,,,,,,,,,,,,,,,,,,,,,,,,,,,,,,,,,,,,,,
,,,,,,,,,,00001210123,2020-10-12_18h53.59.663,swahili,2020.2.4,MacIntel,60,,,,,,,,,,-0.272384983,-0.129097222,1,0,0,0.548945,unsorted_card,2,0,2,0,1,,,,,,,,,,,,,,,,,,,,,,,,,,,,,,,,,,,,,,,,,,,,,,,,,,,,,,,,,,,,,,,,,,,,,,,,,,,,,,,,,
,,,,,,,,,,00001210123,2020-10-12_18h53.59.663,swahili,2020.2.4,MacIntel,60,,,,,,,,,,0.407454427,0.065104167,1,0,0,2.23302,test_pile,3,0,3,0,1,PARROT - KASUKU,,,,,,,,,,,,,,,,,,,,,,,,,,,,,,,,,,,,,,,,,,,,,,,,,,,,,,,,,,,,,,,,,,,,,,,,,,,,,,,,
,,,,,,,,,,00001210123,2020-10-12_18h53.59.663,swahili,2020.2.4,MacIntel,60,,,,,,,,,,-0.117149523,0.030303819,1,0,0,0.564645,unsorted_card,4,0,4,0,1,,,,,,,,,,,,,,,,,,,,,,,,,,,,,,,,,,,,,,,,,,,,,,,,,,,,,,,,,,,,,,,,,,,,,,,,,,,,,,,,,
,,,,,,,,,,00001210123,2020-10-12_18h53.59.663,swahili,2020.2.4,MacIntel,60,,,,,,,,,,0.398692491,-0.028880208,1,0,0,1.14945,test_pile,5,0,5,0,1,BULL - FAHILI,,,,,,,,,,,,,,,,,,,,,,,,,,,,,,,,,,,,,,,,,,,,,,,,,,,,,,,,,,,,,,,,,,,,,,,,,,,,,,,,
,,,,,,,,,,00001210123,2020-10-12_18h53.59.663,swahili,2020.2.4,MacIntel,60,,,,,,,,,,-0.198996311,-0.028880208,1,0,0,0.565805,unsorted_card,6,0,6,0,1,,,,,,,,,,,,,,,,,,,,,,,,,,,,,,,,,,,,,,,,,,,,,,,,,,,,,,,,,,,,,,,,,,,,,,,,,,,,,,,,,
,,,,,,,,,,00001210123,2020-10-12_18h53.59.663,swahili,2020.2.4,MacIntel,60,,,,,,,,,,0.422162543,0.403671875,1,0,0,1.965245,study_pile,7,0,7,0,1,PLATE - SAHANI,,,,,,,,,,,,,,,,,,,,,,,,,,,,,,,,,,,,,,,,,,,,,,,,,,,,,,,,,,,,,,,,,,,,,,,,,,,,,,,,
,,,,,,,,,,00001210123,2020-10-12_18h53.59.663,swahili,2020.2.4,MacIntel,60,,,,,,,,,,-0.277300347,-0.122057292,1,0,0,0.600185,unsorted_card,8,0,8,0,1,,,,,,,,,,,,,,,,,,,,,,,,,,,,,,,,,,,,,,,,,,,,,,,,,,,,,,,,,,,,,,,,,,,,,,,,,,,,,,,,,
,,,,,,,,,,00001210123,2020-10-12_18h53.59.663,swahili,2020.2.4,MacIntel,60,,,,,,,,,,0.463986545,0.423098958,1,0,0,1.11546,study_pile,9,0,9,0,1,YEAST - HAMIRA,,,,,,,,,,,,,,,,,,,,,,,,,,,,,,,,,,,,,,,,,,,,,,,,,,,,,,,,,,,,,,,,,,,,,,,,,,,,,,,,
,,,,,,,,,,00001210123,2020-10-12_18h53.59.663,swahili,2020.2.4,MacIntel,60,,,,,,,,,,-0.226437717,0.043159722,1,0,0,0.71694,unsorted_card,10,0,10,0,1,,,,,,,,,,,,,,,,,,,,,,,,,,,,,,,,,,,,,,,,,,,,,,,,,,,,,,,,,,,,,,,,,,,,,,,,,,,,,,,,,
,,,,,,,,,,00001210123,2020-10-12_18h53.59.663,swahili,2020.2.4,MacIntel,60,,,,,,,,,,0.402267795,-0.449435764,1,0,0,2.597985,done_pile,11,0,11,0,1,BLAME - LAWAMA,,,,,,,,,,,,,,,,,,,,,,,,,,,,,,,,,,,,,,,,,,,,,,,,,,,,,,,,,,,,,,,,,,,,,,,,,,,,,,,,
,,,,,,,,,,00001210123,2020-10-12_18h53.59.663,swahili,2020.2.4,MacIntel,60,,,,,,,,,,-0.340380859,-0.106180556,1,0,0,0.598795,unsorted_card,12,0,12,0,1,,,,,,,,,,,,,,,,,,,,,,,,,,,,,,,,,,,,,,,,,,,,,,,,,,,,,,,,,,,,,,,,,,,,,,,,,,,,,,,,,
,,,,,,,,,,00001210123,2020-10-12_18h53.59.663,swahili,2020.2.4,MacIntel,60,,,,,,,,,,0.55249566,0.376901042,1,0,0,1.649075,study_pile,13,0,13,0,1,OATH - YAMINI,,,,,,,,,,,,,,,,,,,,,,,,,,,,,,,,,,,,,,,,,,,,,,,,,,,,,,,,,,,,,,,,,,,,,,,,,,,,,,,,
,,,,,,,,,,00001210123,2020-10-12_18h53.59.663,swahili,2020.2.4,MacIntel,60,,,,,,,,,,-0.240728082,-0.082404514,1,0,0,0.56674,unsorted_card,14,0,14,0,1,,,,,,,,,,,,,,,,,,,,,,,,,,,,,,,,,,,,,,,,,,,,,,,,,,,,,,,,,,,,,,,,,,,,,,,,,,,,,,,,,
,,,,,,,,,,00001210123,2020-10-12_18h53.59.663,swahili,2020.2.4,MacIntel,60,,,,,,,,,,0.491623264,-0.011267361,1,0,0,5.76474,test_pile,15,0,15,0,1,CORN - NAFAKA,,,,,,,,,,,,,,,,,,,,,,,,,,,,,,,,,,,,,,,,,,,,,,,,,,,,,,,,,,,,,,,,,,,,,,,,,,,,,,,,
,,,,,,,,,,00001210123,2020-10-12_18h53.59.663,swahili,2020.2.4,MacIntel,60,,,,,,,,,,-0.19898546,0.039409722,1,0,0,0.633275,unsorted_card,16,0,16,0,1,,,,,,,,,,,,,,,,,,,,,,,,,,,,,,,,,,,,,,,,,,,,,,,,,,,,,,,,,,,,,,,,,,,,,,,,,,,,,,,,,
,,,,,,,,,,00001210123,2020-10-12_18h53.59.663,swahili,2020.2.4,MacIntel,60,,,,,,,,,,0.372721354,-0.476197917,1,0,0,3.23207,done_pile,17,0,17,0,1,GRAVE - KABURI,,,,,,,,,,,,,,,,,,,,,,,,,,,,,,,,,,,,,,,,,,,,,,,,,,,,,,,,,,,,,,,,,,,,,,,,,,,,,,,,
,,,,,,,,,,00001210123,2020-10-12_18h53.59.663,swahili,2020.2.4,MacIntel,60,,,,,,,,,,-0.437293837,-0.068515625,1,0,0,0.515145,unsorted_card,18,0,18,0,1,,,,,,,,,,,,,,,,,,,,,,,,,,,,,,,,,,,,,,,,,,,,,,,,,,,,,,,,,,,,,,,,,,,,,,,,,,,,,,,,,
,,,,,,,,,,00001210123,2020-10-12_18h53.59.663,swahili,2020.2.4,MacIntel,60,,,,,,,,,,0.439360894,-0.044548611,1,0,0,1.483945,test_pile,19,0,19,0,1,MANURE - SAMADI,,,,,,,,,,,,,,,,,,,,,,,,,,,,,,,,,,,,,,,,,,,,,,,,,,,,,,,,,,,,,,,,,,,,,,,,,,,,,,,,
,,,,,,,,,,00001210123,2020-10-12_18h53.59.663,swahili,2020.2.4,MacIntel,60,,,,,,,,,,-0.260601128,-0.005980903,1,0,0,0.515475,unsorted_card,20,0,20,0,1,,,,,,,,,,,,,,,,,,,,,,,,,,,,,,,,,,,,,,,,,,,,,,,,,,,,,,,,,,,,,,,,,,,,,,,,,,,,,,,,,
,,,,,,,,,,00001210123,2020-10-12_18h53.59.663,swahili,2020.2.4,MacIntel,60,,,,,,,,,,0.339545356,-0.474513889,1,0,0,1.36428,done_pile,21,0,21,0,1,AGENT - WAKILI,,,,,,,,,,,,,,,,,,,,,,,,,,,,,,,,,,,,,,,,,,,,,,,,,,,,,,,,,,,,,,,,,,,,,,,,,,,,,,,,
,,,,,,,,,,00001210123,2020-10-12_18h53.59.663,swahili,2020.2.4,MacIntel,60,,,,,,,,,,-0.298583984,-0.033637153,1,0,0,0.49853,unsorted_card,22,0,22,0,1,,,,,,,,,,,,,,,,,,,,,,,,,,,,,,,,,,,,,,,,,,,,,,,,,,,,,,,,,,,,,,,,,,,,,,,,,,,,,,,,,
,,,,,,,,,,00001210123,2020-10-12_18h53.59.663,swahili,2020.2.4,MacIntel,60,,,,,,,,,,0.487120226,-0.566953125,1,0,0,1.349885,done_pile,23,0,23,0,1,BRIBE - RUSHWA,,,,,,,,,,,,,,,,,,,,,,,,,,,,,,,,,,,,,,,,,,,,,,,,,,,,,,,,,,,,,,,,,,,,,,,,,,,,,,,,
,,,,,,,,,,00001210123,2020-10-12_18h53.59.663,swahili,2020.2.4,MacIntel,60,,,,,,,,,,-0.204665799,-0.119947917,1,0,0,0.564965,unsorted_card,24,0,24,0,1,,,,,,,,,,,,,,,,,,,,,,,,,,,,,,,,,,,,,,,,,,,,,,,,,,,,,,,,,,,,,,,,,,,,,,,,,,,,,,,,,
,,,,,,,,,,00001210123,2020-10-12_18h53.59.663,swahili,2020.2.4,MacIntel,60,,,,,,,,,,0.527587891,-0.493619792,1,0,0,1.61546,done_pile,25,0,25,0,1,ORPHAN - YATIMA,,,,,,,,,,,,,,,,,,,,,,,,,,,,,,,,,,,,,,,,,,,,,,,,,,,,,,,,,,,,,,,,,,,,,,,,,,,,,,,,
,,,,,,,,,,00001210123,2020-10-12_18h53.59.663,swahili,2020.2.4,MacIntel,60,,,,,,,,,,-0.332313368,-0.072039931,1,0,0,0.74915,unsorted_card,26,0,26,0,1,,,,,,,,,,,,,,,,,,,,,,,,,,,,,,,,,,,,,,,,,,,,,,,,,,,,,,,,,,,,,,,,,,,,,,,,,,,,,,,,,
,,,,,,,,,,00001210123,2020-10-12_18h53.59.663,swahili,2020.2.4,MacIntel,60,,,,,,,,,,0.501486545,-0.060572917,1,0,0,2.899705,test_pile,27,0,27,0,1,BOAT - MASHUA,,,,,,,,,,,,,,,,,,,,,,,,,,,,,,,,,,,,,,,,,,,,,,,,,,,,,,,,,,,,,,,,,,,,,,,,,,,,,,,,
,,,,,,,,,,00001210123,2020-10-12_18h53.59.663,swahili,2020.2.4,MacIntel,60,,,,,,,,,,-0.263916016,0.107560764,1,0,0,0.51584,unsorted_card,28,0,28,0,1,,,,,,,,,,,,,,,,,,,,,,,,,,,,,,,,,,,,,,,,,,,,,,,,,,,,,,,,,,,,,,,,,,,,,,,,,,,,,,,,,
,,,,,,,,,,00001210123,2020-10-12_18h53.59.663,swahili,2020.2.4,MacIntel,60,,,,,,,,,,0.436414931,-0.498090278,1,0,0,1.2161,done_pile,29,0,29,0,1,TREASURE - DAFINA,,,,,,,,,,,,,,,,,,,,,,,,,,,,,,,,,,,,,,,,,,,,,,,,,,,,,,,,,,,,,,,,,,,,,,,,,,,,,,,,
,,,,,,,,,,00001210123,2020-10-12_18h53.59.663,swahili,2020.2.4,MacIntel,60,,,,,,,,,,,,,,,,,,,,,,,0.440646701,-0.101354167,1,0,0,1.18154,test_first,,,0,0,0,0,1,,,,,,,,,,,,,,,,,,,,,,,,,,,,,,,,,,,,,,,,,,,,,,,,,,,,,,,,,,,,,,,,,,
,,,,,,,,,,00001210123,2020-10-12_18h53.59.663,swahili,2020.2.4,MacIntel,60,,,,,,,,,,,,,,,,,,,,,,,,,,,,,,,,,,,,,return,1.00211,4.865135,0.33070204,-0.172022569,1,0,0,0.74938,yes,BOAT,MASHUA,incorrect,0,0,0,0,1,,,,,,,,,,,,,,,,,,,,,,,,,,,,,,,,,,,,,,,,,,,,,,,,
,,,,,,,,,,00001210123,2020-10-12_18h53.59.663,swahili,2020.2.4,MacIntel,60,,,,,,,,,,,,,,,,,,,,,,,,,,,,,,,,,,,,,,,3.33135,0.312353516,-0.040720486,1,0,0,0.767225,yes,CORN,NAFAKA,incorrect,1,0,1,0,1,,,,,,,,,,,,,,,,,,,,,,,,,,,,,,,,,,,,,,,,,,,,,,,,
,,,,,,,,,,00001210123,2020-10-12_18h53.59.663,swahili,2020.2.4,MacIntel,60,,,,,,,,,,,,,,,,,,,,,,,,,,,,,,,,,,,,,,,3.73169,0.405788845,-0.161024306,1,0,0,0.78318,yes,PARROT,RAFUKU,incorrect,2,0,2,0,1,,,,,,,,,,,,,,,,,,,,,,,,,,,,,,,,,,,,,,,,,,,,,,,,
,,,,,,,,,,00001210123,2020-10-12_18h53.59.663,swahili,2020.2.4,MacIntel,60,,,,,,,,,,,,,,,,,,,,,,,,,,,,,,,,,,,,,,,9.348425,0.334516059,-0.142977431,1,0,0,1.41552,yes,MANURE,SAMADI,incorrect,3,0,3,0,1,,,,,,,,,,,,,,,,,,,,,,,,,,,,,,,,,,,,,,,,,,,,,,,,
,,,,,,,,,,00001210123,2020-10-12_18h53.59.663,swahili,2020.2.4,MacIntel,60,,,,,,,,,,,,,,,,,,,,,,,,,,,,,,,,,,,,,,,3.665825,0.457150608,-0.048958333,1,0,0,0.865575,yes,BULL,NAFILI,incorrect,4,0,4,0,1,,,,,,,,,,,,,,,,,,,,,,,,,,,,,,,,,,,,,,,,,,,,,,,,
,,,,,,,,,,00001210123,2020-10-12_18h53.59.663,swahili,2020.2.4,MacIntel,60,,,,,,,,,,,,,,,,,,,,,,,,,,,,,,,,,,,,,,,,,,,,,,,,,,,,,,,0,0,0,0,1,,,,,,,,,,,,,,,,,,,,,,,,,,,,,,,,,,,,,,,,,,,
,,,,,,,,,,00001210123,2020-10-12_18h53.59.663,swahili,2020.2.4,MacIntel,60,,,,,,,,,,,,,,,,,,,,,,OATH - YAMINI,,,,,,,,return,return,0,0,0,0,1,,,,,,,,,,,,,,,,,,,,,,,,,,,,,1.0499,2.035105,,,,,,,,,,,,,,,,,,,,,,,,,,,,,,,,,,,,
,,,,,,,,,,00001210123,2020-10-12_18h53.59.663,swahili,2020.2.4,MacIntel,60,,,,,,,,,,,,,,,,,,,,,,YEAST - HAMIRA,,,,,,,,,return,1,0,1,0,1,,,,,,,,,,,,,,,,,,,,,,,,,,,,,,2.767165,,,,,,,,,,,,,,,,,,,,,,,,,,,,,,,,,,,,
,,,,,,,,,,00001210123,2020-10-12_18h53.59.663,swahili,2020.2.4,MacIntel,60,,,,,,,,,,,,,,,,,,,,,,PLATE - SAHANI,,,,,,,,,return,2,0,2,0,1,,,,,,,,,,,,,,,,,,,,,,,,,,,,,,5.86687,,,,,,,,,,,,,,,,,,,,,,,,,,,,,,,,,,,,
,,,,,,,,,,00001210123,2020-10-12_18h53.59.663,swahili,2020.2.4,MacIntel,60,,,,,,,,,,,,,,,,,,,,,,MERCHANT - TAJIRI,,,,,,,,,return,3,0,3,0,1,,,,,,,,,,,,,,,,,,,,,,,,,,,,,,2.718245,,,,,,,,,,,,,,,,,,,,,,,,,,,,,,,,,,,,
,,,,,,,,,,00001210123,2020-10-12_18h53.59.663,swahili,2020.2.4,MacIntel,60,,,,,,,,,,,,,,,,,,,,,,,,,,,,,,,,,,,,,,,,,,,,,,,,,,,,,,,1,0,1,0,1,,,,,,,,,,,,,,,,,,,,,,,,,,,,,,,,,,,,,,,,,,,
,,,,,,,,,,00001210123,2020-10-12_18h53.59.663,swahili,2020.2.4,MacIntel,60,,,,,,,,,,,,,,,,,,,,,,,,,,,,,,,,,,,,,,,,,,,,,,,,,,,,,,,,,,,,5,0,5,0,1,,,,,,,,,,,,,,,,,,,,,,,,,,,,,,,,,,,,,,
,,,,,,,,,,00001210123,2020-10-12_18h53.59.663,swahili,2020.2.4,MacIntel,60,,,,,,,,,,-0.204638672,0.019123264,1,0,0,1.04114,unsorted_card,0,0,0,0,1,,,,,,,,,,,,,,,,,,,,,,,,,,,,,,,,,,,,,,,,,,,,,,,,,,,,,,,,,,,,,,,,,,,,,,,,,,,,,,,,,
,,,,,,,,,,00001210123,2020-10-12_18h53.59.663,swahili,2020.2.4,MacIntel,60,,,,,,,,,,0.398019748,0.027491319,1,0,0,1.598785,test_pile,1,0,1,0,1,MERCHANT - TAJIRI,,,,,,,,,,,,,,,,,,,,,,,,,,,,,,,,,,,,,,,,,,,,,,,,,,,,,,,,,,,,,,,,,,,,,,,,,,,,,,,,
,,,,,,,,,,00001210123,2020-10-12_18h53.59.663,swahili,2020.2.4,MacIntel,60,,,,,,,,,,-0.207454427,-0.020529514,1,0,0,0.49851,unsorted_card,2,0,2,0,1,,,,,,,,,,,,,,,,,,,,,,,,,,,,,,,,,,,,,,,,,,,,,,,,,,,,,,,,,,,,,,,,,,,,,,,,,,,,,,,,,
,,,,,,,,,,00001210123,2020-10-12_18h53.59.663,swahili,2020.2.4,MacIntel,60,,,,,,,,,,0.409217665,0.438177083,1,0,0,2.4004,study_pile,3,0,3,0,1,PARROT - KASUKU,,,,,,,,,,,,,,,,,,,,,,,,,,,,,,,,,,,,,,,,,,,,,,,,,,,,,,,,,,,,,,,,,,,,,,,,,,,,,,,,
,,,,,,,,,,00001210123,2020-10-12_18h53.59.663,swahili,2020.2.4,MacIntel,60,,,,,,,,,,-0.26656901,0.008359375,1,0,0,0.53155,unsorted_card,4,0,4,0,1,,,,,,,,,,,,,,,,,,,,,,,,,,,,,,,,,,,,,,,,,,,,,,,,,,,,,,,,,,,,,,,,,,,,,,,,,,,,,,,,,
,,,,,,,,,,00001210123,2020-10-12_18h53.59.663,swahili,2020.2.4,MacIntel,60,,,,,,,,,,0.386458333,-0.045520833,1,0,0,1.06603,test_pile,5,0,5,0,1,BULL - FAHILI,,,,,,,,,,,,,,,,,,,,,,,,,,,,,,,,,,,,,,,,,,,,,,,,,,,,,,,,,,,,,,,,,,,,,,,,,,,,,,,,
,,,,,,,,,,00001210123,2020-10-12_18h53.59.663,swahili,2020.2.4,MacIntel,60,,,,,,,,,,-0.16984592,0.021328125,1,0,0,0.931445,unsorted_card,6,0,6,0,1,,,,,,,,,,,,,,,,,,,,,,,,,,,,,,,,,,,,,,,,,,,,,,,,,,,,,,,,,,,,,,,,,,,,,,,,,,,,,,,,,
,,,,,,,,,,00001210123,2020-10-12_18h53.59.663,swahili,2020.2.4,MacIntel,60,,,,,,,,,,0.526388889,-0.005694444,1,0,0,2.15091,test_pile,7,0,7,0,1,PLATE - SAHANI,,,,,,,,,,,,,,,,,,,,,,,,,,,,,,,,,,,,,,,,,,,,,,,,,,,,,,,,,,,,,,,,,,,,,,,,,,,,,,,,
,,,,,,,,,,00001210123,2020-10-12_18h53.59.663,swahili,2020.2.4,MacIntel,60,,,,,,,,,,-0.098296441,0.046041667,1,0,0,0.781485,unsorted_card,8,0,8,0,1,,,,,,,,,,,,,,,,,,,,,,,,,,,,,,,,,,,,,,,,,,,,,,,,,,,,,,,,,,,,,,,,,,,,,,,,,,,,,,,,,
,,,,,,,,,,00001210123,2020-10-12_18h53.59.663,swahili,2020.2.4,MacIntel,60,,,,,,,,,,0.475368924,0.540130208,1,0,0,1.965505,study_pile,9,0,9,0,1,YEAST - HAMIRA,,,,,,,,,,,,,,,,,,,,,,,,,,,,,,,,,,,,,,,,,,,,,,,,,,,,,,,,,,,,,,,,,,,,,,,,,,,,,,,,
,,,,,,,,,,00001210123,2020-10-12_18h53.59.663,swahili,2020.2.4,MacIntel,60,,,,,,,,,,-0.112060547,0.108975694,1,0,0,0.815935,unsorted_card,10,0,10,0,1,,,,,,,,,,,,,,,,,,,,,,,,,,,,,,,,,,,,,,,,,,,,,,,,,,,,,,,,,,,,,,,,,,,,,,,,,,,,,,,,,
,,,,,,,,,,00001210123,2020-10-12_18h53.59.663,swahili,2020.2.4,MacIntel,60,,,,,,,,,,0.416628689,0.540677083,1,0,0,1.5666,study_pile,11,0,11,0,1,OATH - YAMINI,,,,,,,,,,,,,,,,,,,,,,,,,,,,,,,,,,,,,,,,,,,,,,,,,,,,,,,,,,,,,,,,,,,,,,,,,,,,,,,,
,,,,,,,,,,00001210123,2020-10-12_18h53.59.663,swahili,2020.2.4,MacIntel,60,,,,,,,,,,-0.261409505,-0.005894097,1,0,0,0.64836,unsorted_card,12,0,12,0,1,,,,,,,,,,,,,,,,,,,,,,,,,,,,,,,,,,,,,,,,,,,,,,,,,,,,,,,,,,,,,,,,,,,,,,,,,,,,,,,,,
,,,,,,,,,,00001210123,2020-10-12_18h53.59.663,swahili,2020.2.4,MacIntel,60,,,,,,,,,,0.400694444,-0.00265625,1,0,0,1.449585,test_pile,13,0,13,0,1,CORN - NAFAKA,,,,,,,,,,,,,,,,,,,,,,,,,,,,,,,,,,,,,,,,,,,,,,,,,,,,,,,,,,,,,,,,,,,,,,,,,,,,,,,,
,,,,,,,,,,00001210123,2020-10-12_18h53.59.663,swahili,2020.2.4,MacIntel,60,,,,,,,,,,-0.296207682,-0.139140625,1,0,0,0.54898,unsorted_card,14,0,14,0,1,,,,,,,,,,,,,,,,,,,,,,,,,,,,,,,,,,,,,,,,,,,,,,,,,,,,,,,,,,,,,,,,,,,,,,,,,,,,,,,,,
,,,,,,,,,,00001210123,2020-10-12_18h53.59.663,swahili,2020.2.4,MacIntel,60,,,,,,,,,,0.420155165,-0.050043403,1,0,0,1.74805,test_pile,15,0,15,0,1,MANURE - SAMADI,,,,,,,,,,,,,,,,,,,,,,,,,,,,,,,,,,,,,,,,,,,,,,,,,,,,,,,,,,,,,,,,,,,,,,,,,,,,,,,,
,,,,,,,,,,00001210123,2020-10-12_18h53.59.663,swahili,2020.2.4,MacIntel,60,,,,,,,,,,-0.241937934,-0.030616319,1,0,0,0.567025,unsorted_card,16,0,16,0,1,,,,,,,,,,,,,,,,,,,,,,,,,,,,,,,,,,,,,,,,,,,,,,,,,,,,,,,,,,,,,,,,,,,,,,,,,,,,,,,,,
,,,,,,,,,,00001210123,2020-10-12_18h53.59.663,swahili,2020.2.4,MacIntel,60,,,,,,,,,,0.447222222,-0.536953125,1,0,0,2.164735,done_pile,17,0,17,0,1,BOAT - MASHUA,,,,,,,,,,,,,,,,,,,,,,,,,,,,,,,,,,,,,,,,,,,,,,,,,,,,,,,,,,,,,,,,,,,,,,,,,,,,,,,,
,,,,,,,,,,00001210123,2020-10-12_18h53.59.663,swahili,2020.2.4,MacIntel,60,,,,,,,,,,,,,,,,,,,,,,,0.557036675,-0.179418403,1,0,0,0.81722,test_first,,,0,0,0,0,1,,,,,,,,,,,,,,,,,,,,,,,,,,,,,,,,,,,,,,,,,,,,,,,,,,,,,,,,,,,,,,,,,,
,,,,,,,,,,00001210123,2020-10-12_18h53.59.663,swahili,2020.2.4,MacIntel,60,,,,,,,,,,,,,,,,,,,,,,,,,,,,,,,,,,,,,return,0.74886,5.329185,0.425059679,-0.020086806,1,0,0,0.79898,yes,MERCHANT,TAJIRI,incorrect,0,0,0,0,1,,,,,,,,,,,,,,,,,,,,,,,,,,,,,,,,,,,,,,,,,,,,,,,,
,,,,,,,,,,00001210123,2020-10-12_18h53.59.663,swahili,2020.2.4,MacIntel,60,,,,,,,,,,,,,,,,,,,,,,,,,,,,,,,,,,,,,,,7.61469,0.433566623,-0.068697917,1,0,0,0.700845,yes,BULL,NAFILI,incorrect,1,0,1,0,1,,,,,,,,,,,,,,,,,,,,,,,,,,,,,,,,,,,,,,,,,,,,,,,,
,,,,,,,,,,00001210123,2020-10-12_18h53.59.663,swahili,2020.2.4,MacIntel,60,,,,,,,,,,,,,,,,,,,,,,,,,,,,,,,,,,,,,,,4.665215,0.41796875,-0.060529514,1,0,0,0.616755,yes,MANURE,SAMADI,incorrect,2,0,2,0,1,,,,,,,,,,,,,,,,,,,,,,,,,,,,,,,,,,,,,,,,,,,,,,,,
,,,,,,,,,,00001210123,2020-10-12_18h53.59.663,swahili,2020.2.4,MacIntel,60,,,,,,,,,,,,,,,,,,,,,,,,,,,,,,,,,,,,,,,3.582655,0.41585829,-0.050503472,1,0,0,0.68247,yes,CORN,NAFAKA,incorrect,3,0,3,0,1,,,,,,,,,,,,,,,,,,,,,,,,,,,,,,,,,,,,,,,,,,,,,,,,
,,,,,,,,,,00001210123,2020-10-12_18h53.59.663,swahili,2020.2.4,MacIntel,60,,,,,,,,,,,,,,,,,,,,,,,,,,,,,,,,,,,,,,,3.014455,0.375813802,0.004210069,1,0,0,1.01667,yes,PLATE,SAHANI,incorrect,4,0,4,0,1,,,,,,,,,,,,,,,,,,,,,,,,,,,,,,,,,,,,,,,,,,,,,,,,
,,,,,,,,,,00001210123,2020-10-12_18h53.59.663,swahili,2020.2.4,MacIntel,60,,,,,,,,,,,,,,,,,,,,,,,,,,,,,,,,,,,,,,,,,,,,,,,,,,,,,,,0,0,0,0,1,,,,,,,,,,,,,,,,,,,,,,,,,,,,,,,,,,,,,,,,,,,
,,,,,,,,,,00001210123,2020-10-12_18h53.59.663,swahili,2020.2.4,MacIntel,60,,,,,,,,,,,,,,,,,,,,,,PARROT - KASUKU,,,,,,,,return,return,0,0,0,0,1,,,,,,,,,,,,,,,,,,,,,,,,,,,,,1.034105,7.83363,,,,,,,,,,,,,,,,,,,,,,,,,,,,,,,,,,,,
,,,,,,,,,,00001210123,2020-10-12_18h53.59.663,swahili,2020.2.4,MacIntel,60,,,,,,,,,,,,,,,,,,,,,,OATH - YAMINI,,,,,,,,,return,1,0,1,0,1,,,,,,,,,,,,,,,,,,,,,,,,,,,,,,1.200575,,,,,,,,,,,,,,,,,,,,,,,,,,,,,,,,,,,,
,,,,,,,,,,00001210123,2020-10-12_18h53.59.663,swahili,2020.2.4,MacIntel,60,,,,,,,,,,,,,,,,,,,,,,YEAST - HAMIRA,,,,,,,,,return,2,0,2,0,1,,,,,,,,,,,,,,,,,,,,,,,,,,,,,,0.46593,,,,,,,,,,,,,,,,,,,,,,,,,,,,,,,,,,,,
,,,,,,,,,,00001210123,2020-10-12_18h53.59.663,swahili,2020.2.4,MacIntel,60,,,,,,,,,,,,,,,,,,,,,,,,,,,,,,,,,,,,,,,,,,,,,,,,,,,,,,,1,0,1,0,1,,,,,,,,,,,,,,,,,,,,,,,,,,,,,,,,,,,,,,,,,,,
,,,,,,,,,,00001210123,2020-10-12_18h53.59.663,swahili,2020.2.4,MacIntel,60,,,,,,,,,,,,,,,,,,,,,,,,,,,,,,,,,,,,,,,,,,,,,,,,,,,,,,,,,,,,6,0,6,0,1,,,,,,,,,,,,,,,,,,,,,,,,,,,,,,,,,,,,,,
,,,,,,,,,,00001210123,2020-10-12_18h53.59.663,swahili,2020.2.4,MacIntel,60,,,,,,,,,,-0.155202908,-0.039487847,1,0,0,1.208665,unsorted_card,0,0,0,0,1,,,,,,,,,,,,,,,,,,,,,,,,,,,,,,,,,,,,,,,,,,,,,,,,,,,,,,,,,,,,,,,,,,,,,,,,,,,,,,,,,
,,,,,,,,,,00001210123,2020-10-12_18h53.59.663,swahili,2020.2.4,MacIntel,60,,,,,,,,,,0.467100694,-0.097361111,1,0,0,1.36703,test_pile,1,0,1,0,1,MERCHANT - TAJIRI,,,,,,,,,,,,,,,,,,,,,,,,,,,,,,,,,,,,,,,,,,,,,,,,,,,,,,,,,,,,,,,,,,,,,,,,,,,,,,,,
,,,,,,,,,,00001210123,2020-10-12_18h53.59.663,swahili,2020.2.4,MacIntel,60,,,,,,,,,,-0.348621962,-0.200859375,1,0,0,0.51507,unsorted_card,2,0,2,0,1,,,,,,,,,,,,,,,,,,,,,,,,,,,,,,,,,,,,,,,,,,,,,,,,,,,,,,,,,,,,,,,,,,,,,,,,,,,,,,,,,
,,,,,,,,,,00001210123,2020-10-12_18h53.59.663,swahili,2020.2.4,MacIntel,60,,,,,,,,,,0.424169922,-0.086258681,1,0,0,1.28173,test_pile,3,0,3,0,1,PARROT - KASUKU,,,,,,,,,,,,,,,,,,,,,,,,,,,,,,,,,,,,,,,,,,,,,,,,,,,,,,,,,,,,,,,,,,,,,,,,,,,,,,,,
,,,,,,,,,,00001210123,2020-10-12_18h53.59.663,swahili,2020.2.4,MacIntel,60,,,,,,,,,,-0.332736545,-0.109227431,1,0,0,0.51576,unsorted_card,4,0,4,0,1,,,,,,,,,,,,,,,,,,,,,,,,,,,,,,,,,,,,,,,,,,,,,,,,,,,,,,,,,,,,,,,,,,,,,,,,,,,,,,,,,
,,,,,,,,,,00001210123,2020-10-12_18h53.59.663,swahili,2020.2.4,MacIntel,60,,,,,,,,,,0.415879991,-0.027977431,1,0,0,1.050705,test_pile,5,0,5,0,1,BULL - FAHILI,,,,,,,,,,,,,,,,,,,,,,,,,,,,,,,,,,,,,,,,,,,,,,,,,,,,,,,,,,,,,,,,,,,,,,,,,,,,,,,,
,,,,,,,,,,00001210123,2020-10-12_18h53.59.663,swahili,2020.2.4,MacIntel,60,,,,,,,,,,-0.302457682,-0.090598958,1,0,0,0.480615,unsorted_card,6,0,6,0,1,,,,,,,,,,,,,,,,,,,,,,,,,,,,,,,,,,,,,,,,,,,,,,,,,,,,,,,,,,,,,,,,,,,,,,,,,,,,,,,,,
,,,,,,,,,,00001210123,2020-10-12_18h53.59.663,swahili,2020.2.4,MacIntel,60,,,,,,,,,,0.459152561,-0.018020833,1,0,0,1.15024,test_pile,7,0,7,0,1,PLATE - SAHANI,,,,,,,,,,,,,,,,,,,,,,,,,,,,,,,,,,,,,,,,,,,,,,,,,,,,,,,,,,,,,,,,,,,,,,,,,,,,,,,,
,,,,,,,,,,00001210123,2020-10-12_18h53.59.663,swahili,2020.2.4,MacIntel,60,,,,,,,,,,-0.208040365,-0.009262153,1,0,0,0.581265,unsorted_card,8,0,8,0,1,,,,,,,,,,,,,,,,,,,,,,,,,,,,,,,,,,,,,,,,,,,,,,,,,,,,,,,,,,,,,,,,,,,,,,,,,,,,,,,,,
,,,,,,,,,,00001210123,2020-10-12_18h53.59.663,swahili,2020.2.4,MacIntel,60,,,,,,,,,,0.554085286,0.521527778,1,0,0,1.549995,study_pile,9,0,9,0,1,YEAST - HAMIRA,,,,,,,,,,,,,,,,,,,,,,,,,,,,,,,,,,,,,,,,,,,,,,,,,,,,,,,,,,,,,,,,,,,,,,,,,,,,,,,,
,,,,,,,,,,00001210123,2020-10-12_18h53.59.663,swahili,2020.2.4,MacIntel,60,,,,,,,,,,-0.208262804,0.029800347,1,0,0,0.56536,unsorted_card,10,0,10,0,1,,,,,,,,,,,,,,,,,,,,,,,,,,,,,,,,,,,,,,,,,,,,,,,,,,,,,,,,,,,,,,,,,,,,,,,,,,,,,,,,,
,,,,,,,,,,00001210123,2020-10-12_18h53.59.663,swahili,2020.2.4,MacIntel,60,,,,,,,,,,0.460980903,0.454036458,1,0,0,1.39928,study_pile,11,0,11,0,1,OATH - YAMINI,,,,,,,,,,,,,,,,,,,,,,,,,,,,,,,,,,,,,,,,,,,,,,,,,,,,,,,,,,,,,,,,,,,,,,,,,,,,,,,,
