condition,consent_key.keys,consent_key.rt,done_with_instructions.keys,done_with_instructions.rt,instr_loop.thisRepN,instr_loop.thisTrialN,instr_loop.thisN,instr_loop.thisIndex,instr_loop.ran,Student ID #,date,expName,psychopyVersion,OS,frameRate,instr_learning_key.keys,instr_learning_key.rt,card_gen_loop.thisRepN,card_gen_loop.thisTrialN,card_gen_loop.thisN,card_gen_loop.thisIndex,card_gen_loop.ran,swa,eng,choose_pile.x,choose_pile.y,choose_pile.leftButton,choose_pile.midButton,choose_pile.rightButton,choose_pile.time,choose_pile.clicked_name,choices.thisRepN,choices.thisTrialN,choices.thisN,choices.thisIndex,choices.ran,card_to_show,mouse_pick.x,mouse_pick.y,mouse_pick.leftButton,mouse_pick.midButton,mouse_pick.rightButton,mouse_pick.time,mouse_pick.clicked_name,key_instr_study.keys,key_instr_study.rt,next_study.keys,next_study.rt,study_loop.thisRepN,study_loop.thisTrialN,study_loop.thisN,study_loop.thisIndex,study_loop.ran,key_instr_test.keys,learn_loop.thisRepN,learn_loop.thisTrialN,learn_loop.thisN,learn_loop.thisIndex,learn_loop.ran,key_instr_test.rt,duration,yes_or_no.x,yes_or_no.y,yes_or_no.leftButton,yes_or_no.midButton,yes_or_no.rightButton,yes_or_no.time,yes_or_no.clicked_name,test_response.stim,test_response.resp,test_response.eval,test_loop.thisRepN,test_loop.thisTrialN,test_loop.thisN,test_loop.thisIndex,test_loop.ran,trials.thisRepN,trials.thisTrialN,trials.thisN,trials.thisIndex,trials.ran,instr_movie_key.keys,instr_movie_key.rt,return_to_exp.keys,return_to_exp.rt,instr_assess_key.keys,instr_assess_key.rt,assess_loop.thisRepN,assess_loop.thisTrialN,assess_loop.thisN,assess_loop.thisIndex,assess_loop.ran,ans_gen_loop.thisRepN,ans_gen_loop.thisTrialN,ans_gen_loop.thisN,ans_gen_loop.thisIndex,ans_gen_loop.ran,sen,ans,instr_transfer_key.keys,instr_transfer_key.rt,transfer_response.resp,transfer_response.eval,select_word.x,select_word.y,select_word.leftButton,select_word.midButton,select_word.rightButton,select_word.time,select_word.clicked_name,transfers.thisRepN,transfers.thisTrialN,transfers.thisN,transfers.thisIndex,transfers.ran,end_experiment.keys,end_experiment.rt
2,return,22.66198,return,21.04729,0,0,0,0,1,00001597199,2020-10-30_22h03.33.159,swahili,2020.2.4,Win32,60,,,,,,,,,,,,,,,,,,,,,,,,,,,,,,,,,,,,,,,,,,,,,,,,,,,,,,,,,,,,,,,,,,,,,,,,,,,,,,,,,,,,,,,,,,,,,,,,,,,,,,
,,,return,21.62977,1,0,1,0,1,00001597199,2020-10-30_22h03.33.159,swahili,2020.2.4,Win32,60,,,,,,,,,,,,,,,,,,,,,,,,,,,,,,,,,,,,,,,,,,,,,,,,,,,,,,,,,,,,,,,,,,,,,,,,,,,,,,,,,,,,,,,,,,,,,,,,,,,,,,
,,,,,,,,,,00001597199,2020-10-30_22h03.33.159,swahili,2020.2.4,Win32,60,return,14.46666,0,0,0,0,1,TAJIRI,MERCHANT,,,,,,,,,,,,,,,,,,,,,,,,,,,,,,,,,,,,,,,,,,,,,,,,,,,,,,,,,,,,,,,,,,,,,,,,,,,,,,,,,,,,,,,,,,,,,
,,,,,,,,,,00001597199,2020-10-30_22h03.33.159,swahili,2020.2.4,Win32,60,,,0,1,1,1,1,KASUKU,PARROT,,,,,,,,,,,,,,,,,,,,,,,,,,,,,,,,,,,,,,,,,,,,,,,,,,,,,,,,,,,,,,,,,,,,,,,,,,,,,,,,,,,,,,,,,,,,,
,,,,,,,,,,00001597199,2020-10-30_22h03.33.159,swahili,2020.2.4,Win32,60,,,0,2,2,2,1,FAHILI,BULL,,,,,,,,,,,,,,,,,,,,,,,,,,,,,,,,,,,,,,,,,,,,,,,,,,,,,,,,,,,,,,,,,,,,,,,,,,,,,,,,,,,,,,,,,,,,,
,,,,,,,,,,00001597199,2020-10-30_22h03.33.159,swahili,2020.2.4,Win32,60,,,0,3,3,3,1,SAHANI,PLATE,,,,,,,,,,,,,,,,,,,,,,,,,,,,,,,,,,,,,,,,,,,,,,,,,,,,,,,,,,,,,,,,,,,,,,,,,,,,,,,,,,,,,,,,,,,,,
,,,,,,,,,,00001597199,2020-10-30_22h03.33.159,swahili,2020.2.4,Win32,60,,,0,4,4,4,1,HAMIRA,YEAST,,,,,,,,,,,,,,,,,,,,,,,,,,,,,,,,,,,,,,,,,,,,,,,,,,,,,,,,,,,,,,,,,,,,,,,,,,,,,,,,,,,,,,,,,,,,,
,,,,,,,,,,00001597199,2020-10-30_22h03.33.159,swahili,2020.2.4,Win32,60,,,0,5,5,5,1,LAWAMA,BLAME,,,,,,,,,,,,,,,,,,,,,,,,,,,,,,,,,,,,,,,,,,,,,,,,,,,,,,,,,,,,,,,,,,,,,,,,,,,,,,,,,,,,,,,,,,,,,
,,,,,,,,,,00001597199,2020-10-30_22h03.33.159,swahili,2020.2.4,Win32,60,,,0,6,6,6,1,YAMINI,OATH,,,,,,,,,,,,,,,,,,,,,,,,,,,,,,,,,,,,,,,,,,,,,,,,,,,,,,,,,,,,,,,,,,,,,,,,,,,,,,,,,,,,,,,,,,,,,
,,,,,,,,,,00001597199,2020-10-30_22h03.33.159,swahili,2020.2.4,Win32,60,,,0,7,7,7,1,NAFAKA,CORN,,,,,,,,,,,,,,,,,,,,,,,,,,,,,,,,,,,,,,,,,,,,,,,,,,,,,,,,,,,,,,,,,,,,,,,,,,,,,,,,,,,,,,,,,,,,,
,,,,,,,,,,00001597199,2020-10-30_22h03.33.159,swahili,2020.2.4,Win32,60,,,0,8,8,8,1,UTENZI,POEM,,,,,,,,,,,,,,,,,,,,,,,,,,,,,,,,,,,,,,,,,,,,,,,,,,,,,,,,,,,,,,,,,,,,,,,,,,,,,,,,,,,,,,,,,,,,,
,,,,,,,,,,00001597199,2020-10-30_22h03.33.159,swahili,2020.2.4,Win32,60,,,0,9,9,9,1,MSHONI,TAILOR,,,,,,,,,,,,,,,,,,,,,,,,,,,,,,,,,,,,,,,,,,,,,,,,,,,,,,,,,,,,,,,,,,,,,,,,,,,,,,,,,,,,,,,,,,,,,
,,,,,,,,,,00001597199,2020-10-30_22h03.33.159,swahili,2020.2.4,Win32,60,,,0,10,10,10,1,JIBINI,CHEESE,,,,,,,,,,,,,,,,,,,,,,,,,,,,,,,,,,,,,,,,,,,,,,,,,,,,,,,,,,,,,,,,,,,,,,,,,,,,,,,,,,,,,,,,,,,,,
,,,,,,,,,,00001597199,2020-10-30_22h03.33.159,swahili,2020.2.4,Win32,60,,,0,11,11,11,1,ZABIBU,GRAPES,,,,,,,,,,,,,,,,,,,,,,,,,,,,,,,,,,,,,,,,,,,,,,,,,,,,,,,,,,,,,,,,,,,,,,,,,,,,,,,,,,,,,,,,,,,,,
,,,,,,,,,,00001597199,2020-10-30_22h03.33.159,swahili,2020.2.4,Win32,60,,,0,12,12,12,1,KABURI,GRAVE,,,,,,,,,,,,,,,,,,,,,,,,,,,,,,,,,,,,,,,,,,,,,,,,,,,,,,,,,,,,,,,,,,,,,,,,,,,,,,,,,,,,,,,,,,,,,
,,,,,,,,,,00001597199,2020-10-30_22h03.33.159,swahili,2020.2.4,Win32,60,,,0,13,13,13,1,SAMADI,MANURE,,,,,,,,,,,,,,,,,,,,,,,,,,,,,,,,,,,,,,,,,,,,,,,,,,,,,,,,,,,,,,,,,,,,,,,,,,,,,,,,,,,,,,,,,,,,,
,,,,,,,,,,00001597199,2020-10-30_22h03.33.159,swahili,2020.2.4,Win32,60,,,0,14,14,14,1,WAKILI,AGENT,,,,,,,,,,,,,,,,,,,,,,,,,,,,,,,,,,,,,,,,,,,,,,,,,,,,,,,,,,,,,,,,,,,,,,,,,,,,,,,,,,,,,,,,,,,,,
,,,,,,,,,,00001597199,2020-10-30_22h03.33.159,swahili,2020.2.4,Win32,60,,,0,15,15,15,1,RUSHWA,BRIBE,,,,,,,,,,,,,,,,,,,,,,,,,,,,,,,,,,,,,,,,,,,,,,,,,,,,,,,,,,,,,,,,,,,,,,,,,,,,,,,,,,,,,,,,,,,,,
,,,,,,,,,,00001597199,2020-10-30_22h03.33.159,swahili,2020.2.4,Win32,60,,,0,16,16,16,1,YATIMA,ORPHAN,,,,,,,,,,,,,,,,,,,,,,,,,,,,,,,,,,,,,,,,,,,,,,,,,,,,,,,,,,,,,,,,,,,,,,,,,,,,,,,,,,,,,,,,,,,,,
,,,,,,,,,,00001597199,2020-10-30_22h03.33.159,swahili,2020.2.4,Win32,60,,,0,17,17,17,1,TALAKA,DIVORCE,,,,,,,,,,,,,,,,,,,,,,,,,,,,,,,,,,,,,,,,,,,,,,,,,,,,,,,,,,,,,,,,,,,,,,,,,,,,,,,,,,,,,,,,,,,,,
,,,,,,,,,,00001597199,2020-10-30_22h03.33.159,swahili,2020.2.4,Win32,60,,,0,18,18,18,1,MASHUA,BOAT,,,,,,,,,,,,,,,,,,,,,,,,,,,,,,,,,,,,,,,,,,,,,,,,,,,,,,,,,,,,,,,,,,,,,,,,,,,,,,,,,,,,,,,,,,,,,
,,,,,,,,,,00001597199,2020-10-30_22h03.33.159,swahili,2020.2.4,Win32,60,,,0,19,19,19,1,DAFINA,TREASURE,,,,,,,,,,,,,,,,,,,,,,,,,,,,,,,,,,,,,,,,,,,,,,,,,,,,,,,,,,,,,,,,,,,,,,,,,,,,,,,,,,,,,,,,,,,,,
,,,,,,,,,,00001597199,2020-10-30_22h03.33.159,swahili,2020.2.4,Win32,60,,,,,,,,,,-0.213762811,0.072916667,1,0,0,7.652335,unsorted_card,0,0,0,0,1,,,,,,,,,,,,,,,,,,,,,,,,,,,,,,,,,,,,,,,,,,,,,,,,,,,,,,,,,,,,,,,,,,,,,,,,,,,,,,,,,
,,,,,,,,,,00001597199,2020-10-30_22h03.33.159,swahili,2020.2.4,Win32,60,,,,,,,,,,0.606149341,0.4296875,1,0,0,11.21065,study_pile,1,0,1,0,1,MERCHANT - TAJIRI,,,,,,,,,,,,,,,,,,,,,,,,,,,,,,,,,,,,,,,,,,,,,,,,,,,,,,,,,,,,,,,,,,,,,,,,,,,,,,,,
,,,,,,,,,,00001597199,2020-10-30_22h03.33.159,swahili,2020.2.4,Win32,60,,,,,,,,,,-0.16398243,0.052083333,1,0,0,1.861025,unsorted_card,2,0,2,0,1,,,,,,,,,,,,,,,,,,,,,,,,,,,,,,,,,,,,,,,,,,,,,,,,,,,,,,,,,,,,,,,,,,,,,,,,,,,,,,,,,
,,,,,,,,,,00001597199,2020-10-30_22h03.33.159,swahili,2020.2.4,Win32,60,,,,,,,,,,0.530014641,0.489583333,1,0,0,15.1577,study_pile,3,0,3,0,1,PARROT - KASUKU,,,,,,,,,,,,,,,,,,,,,,,,,,,,,,,,,,,,,,,,,,,,,,,,,,,,,,,,,,,,,,,,,,,,,,,,,,,,,,,,
,,,,,,,,,,00001597199,2020-10-30_22h03.33.159,swahili,2020.2.4,Win32,60,,,,,,,,,,0.415812592,0.0078125,1,0,0,0.996075,test_pile,4,0,4,0,1,,,,,,,,,,,,,,,,,,,,,,,,,,,,,,,,,,,,,,,,,,,,,,,,,,,,,,,,,,,,,,,,,,,,,,,,,,,,,,,,,
,,,,,,,,,,00001597199,2020-10-30_22h03.33.159,swahili,2020.2.4,Win32,60,,,,,,,,,,0.575402635,0.453125,1,0,0,0.564545,study_pile,5,0,5,0,1,,,,,,,,,,,,,,,,,,,,,,,,,,,,,,,,,,,,,,,,,,,,,,,,,,,,,,,,,,,,,,,,,,,,,,,,,,,,,,,,,
,,,,,,,,,,00001597199,2020-10-30_22h03.33.159,swahili,2020.2.4,Win32,60,,,,,,,,,,0.487554905,0.091145833,1,0,0,2.777465,test_pile,6,0,6,0,1,,,,,,,,,,,,,,,,,,,,,,,,,,,,,,,,,,,,,,,,,,,,,,,,,,,,,,,,,,,,,,,,,,,,,,,,,,,,,,,,,
,,,,,,,,,,00001597199,2020-10-30_22h03.33.159,swahili,2020.2.4,Win32,60,,,,,,,,,,0.540263543,0.424479167,1,0,0,0.748305,study_pile,7,0,7,0,1,,,,,,,,,,,,,,,,,,,,,,,,,,,,,,,,,,,,,,,,,,,,,,,,,,,,,,,,,,,,,,,,,,,,,,,,,,,,,,,,,
,,,,,,,,,,00001597199,2020-10-30_22h03.33.159,swahili,2020.2.4,Win32,60,,,,,,,,,,0.540263543,0.424479167,1,0,0,0.148155,study_pile,8,0,8,0,1,,,,,,,,,,,,,,,,,,,,,,,,,,,,,,,,,,,,,,,,,,,,,,,,,,,,,,,,,,,,,,,,,,,,,,,,,,,,,,,,,
,,,,,,,,,,00001597199,2020-10-30_22h03.33.159,swahili,2020.2.4,Win32,60,,,,,,,,,,-0.212298682,0.010416667,1,0,0,14.344005,unsorted_card,9,0,9,0,1,,,,,,,,,,,,,,,,,,,,,,,,,,,,,,,,,,,,,,,,,,,,,,,,,,,,,,,,,,,,,,,,,,,,,,,,,,,,,,,,,
,,,,,,,,,,00001597199,2020-10-30_22h03.33.159,swahili,2020.2.4,Win32,60,,,,,,,,,,0.418740849,0.013020833,1,0,0,16.22486,test_pile,10,0,10,0,1,BULL - FAHILI,,,,,,,,,,,,,,,,,,,,,,,,,,,,,,,,,,,,,,,,,,,,,,,,,,,,,,,,,,,,,,,,,,,,,,,,,,,,,,,,
,,,,,,,,,,00001597199,2020-10-30_22h03.33.159,swahili,2020.2.4,Win32,60,,,,,,,,,,0.459736457,0.018229167,1,0,0,18.85256,test_pile,11,0,11,0,1,,,,,,,,,,,,,,,,,,,,,,,,,,,,,,,,,,,,,,,,,,,,,,,,,,,,,,,,,,,,,,,,,,,,,,,,,,,,,,,,,
,,,,,,,,,,00001597199,2020-10-30_22h03.33.159,swahili,2020.2.4,Win32,60,,,,,,,,,,-0.273792094,0.080729167,1,0,0,0.49799,unsorted_card,12,0,12,0,1,,,,,,,,,,,,,,,,,,,,,,,,,,,,,,,,,,,,,,,,,,,,,,,,,,,,,,,,,,,,,,,,,,,,,,,,,,,,,,,,,
,,,,,,,,,,00001597199,2020-10-30_22h03.33.159,swahili,2020.2.4,Win32,60,,,,,,,,,,0.480234261,0.028645833,1,0,0,25.324495,test_pile,13,0,13,0,1,PLATE - SAHANI,,,,,,,,,,,,,,,,,,,,,,,,,,,,,,,,,,,,,,,,,,,,,,,,,,,,,,,,,,,,,,,,,,,,,,,,,,,,,,,,
,,,,,,,,,,00001597199,2020-10-30_22h03.33.159,swahili,2020.2.4,Win32,60,,,,,,,,,,-0.281112738,0.002604167,1,0,0,1.861685,unsorted_card,14,0,14,0,1,,,,,,,,,,,,,,,,,,,,,,,,,,,,,,,,,,,,,,,,,,,,,,,,,,,,,,,,,,,,,,,,,,,,,,,,,,,,,,,,,
,,,,,,,,,,00001597199,2020-10-30_22h03.33.159,swahili,2020.2.4,Win32,60,,,,,,,,,,0.385065886,-0.044270833,1,0,0,56.214015,test_pile,15,0,15,0,1,YEAST - HAMIRA,,,,,,,,,,,,,,,,,,,,,,,,,,,,,,,,,,,,,,,,,,,,,,,,,,,,,,,,,,,,,,,,,,,,,,,,,,,,,,,,
,,,,,,,,,,00001597199,2020-10-30_22h03.33.159,swahili,2020.2.4,Win32,60,,,,,,,,,,-0.399707174,-0.026041667,1,0,0,3.207495,unsorted_card,16,0,16,0,1,,,,,,,,,,,,,,,,,,,,,,,,,,,,,,,,,,,,,,,,,,,,,,,,,,,,,,,,,,,,,,,,,,,,,,,,,,,,,,,,,
,,,,,,,,,,00001597199,2020-10-30_22h03.33.159,swahili,2020.2.4,Win32,60,,,,,,,,,,0.348462665,0.044270833,1,0,0,43.933,test_pile,17,0,17,0,1,BLAME - LAWAMA,,,,,,,,,,,,,,,,,,,,,,,,,,,,,,,,,,,,,,,,,,,,,,,,,,,,,,,,,,,,,,,,,,,,,,,,,,,,,,,,
,,,,,,,,,,00001597199,2020-10-30_22h03.33.159,swahili,2020.2.4,Win32,60,,,,,,,,,,0.612005857,0.473958333,1,0,0,4.340725,study_pile,18,0,18,0,1,,,,,,,,,,,,,,,,,,,,,,,,,,,,,,,,,,,,,,,,,,,,,,,,,,,,,,,,,,,,,,,,,,,,,,,,,,,,,,,,,
,,,,,,,,,,00001597199,2020-10-30_22h03.33.159,swahili,2020.2.4,Win32,60,,,,,,,,,,0.481698389,0.447916667,1,0,0,0.512825,study_pile,19,0,19,0,1,,,,,,,,,,,,,,,,,,,,,,,,,,,,,,,,,,,,,,,,,,,,,,,,,,,,,,,,,,,,,,,,,,,,,,,,,,,,,,,,,
,,,,,,,,,,00001597199,2020-10-30_22h03.33.159,swahili,2020.2.4,Win32,60,,,,,,,,,,0.481698389,0.447916667,1,0,0,0.265485,study_pile,20,0,20,0,1,,,,,,,,,,,,,,,,,,,,,,,,,,,,,,,,,,,,,,,,,,,,,,,,,,,,,,,,,,,,,,,,,,,,,,,,,,,,,,,,,
,,,,,,,,,,00001597199,2020-10-30_22h03.33.159,swahili,2020.2.4,Win32,60,,,,,,,,,,0.54465593,0.0625,0,0,1,0.503095,test_pile,21,0,21,0,1,,,,,,,,,,,,,,,,,,,,,,,,,,,,,,,,,,,,,,,,,,,,,,,,,,,,,,,,,,,,,,,,,,,,,,,,,,,,,,,,,
,,,,,,,,,,00001597199,2020-10-30_22h03.33.159,swahili,2020.2.4,Win32,60,,,,,,,,,,0.411420205,0.041666667,1,0,0,0.89632,test_pile,22,0,22,0,1,,,,,,,,,,,,,,,,,,,,,,,,,,,,,,,,,,,,,,,,,,,,,,,,,,,,,,,,,,,,,,,,,,,,,,,,,,,,,,,,,
,,,,,,,,,,00001597199,2020-10-30_22h03.33.159,swahili,2020.2.4,Win32,60,,,,,,,,,,-0.204978038,0.138020833,1,0,0,29.0543,unsorted_card,23,0,23,0,1,,,,,,,,,,,,,,,,,,,,,,,,,,,,,,,,,,,,,,,,,,,,,,,,,,,,,,,,,,,,,,,,,,,,,,,,,,,,,,,,,
,,,,,,,,,,00001597199,2020-10-30_22h03.33.159,swahili,2020.2.4,Win32,60,,,,,,,,,,-0.285505124,0.059895833,1,0,0,94.18389,unsorted_card,24,0,24,0,1,OATH - YAMINI,,,,,,,,,,,,,,,,,,,,,,,,,,,,,,,,,,,,,,,,,,,,,,,,,,,,,,,,,,,,,,,,,,,,,,,,,,,,,,,,
,,,,,,,,,,00001597199,2020-10-30_22h03.33.159,swahili,2020.2.4,Win32,60,,,,,,,,,,0.446559297,-0.033854167,1,0,0,0.549675,test_pile,25,0,25,0,1,OATH - YAMINI,,,,,,,,,,,,,,,,,,,,,,,,,,,,,,,,,,,,,,,,,,,,,,,,,,,,,,,,,,,,,,,,,,,,,,,,,,,,,,,,
,,,,,,,,,,00001597199,2020-10-30_22h03.33.159,swahili,2020.2.4,Win32,60,,,,,,,,,,-0.162518302,-0.059895833,1,0,0,1.27828,unsorted_card,26,0,26,0,1,,,,,,,,,,,,,,,,,,,,,,,,,,,,,,,,,,,,,,,,,,,,,,,,,,,,,,,,,,,,,,,,,,,,,,,,,,,,,,,,,
,,,,,,,,,,00001597199,2020-10-30_22h03.33.159,swahili,2020.2.4,Win32,60,,,,,,,,,,-0.212298682,0.09375,1,0,0,62.604465,unsorted_card,27,0,27,0,1,CORN - NAFAKA,,,,,,,,,,,,,,,,,,,,,,,,,,,,,,,,,,,,,,,,,,,,,,,,,,,,,,,,,,,,,,,,,,,,,,,,,,,,,,,,
,,,,,,,,,,00001597199,2020-10-30_22h03.33.159,swahili,2020.2.4,Win32,60,,,,,,,,,,0.49341142,-0.036458333,1,0,0,0.58236,test_pile,28,0,28,0,1,CORN - NAFAKA,,,,,,,,,,,,,,,,,,,,,,,,,,,,,,,,,,,,,,,,,,,,,,,,,,,,,,,,,,,,,,,,,,,,,,,,,,,,,,,,
,,,,,,,,,,00001597199,2020-10-30_22h03.33.159,swahili,2020.2.4,Win32,60,,,,,,,,,,-0.516837482,-0.013020833,1,0,0,0.66089,unsorted_card,29,0,29,0,1,,,,,,,,,,,,,,,,,,,,,,,,,,,,,,,,,,,,,,,,,,,,,,,,,,,,,,,,,,,,,,,,,,,,,,,,,,,,,,,,,
,,,,,,,,,,00001597199,2020-10-30_22h03.33.159,swahili,2020.2.4,Win32,60,,,,,,,,,,-0.262079063,-0.015625,1,0,0,70.123715,unsorted_card,30,0,30,0,1,POEM - UTENZI,,,,,,,,,,,,,,,,,,,,,,,,,,,,,,,,,,,,,,,,,,,,,,,,,,,,,,,,,,,,,,,,,,,,,,,,,,,,,,,,
,,,,,,,,,,00001597199,2020-10-30_22h03.33.159,swahili,2020.2.4,Win32,60,,,,,,,,,,0.402635432,0.0546875,1,0,0,0.348035,test_pile,31,0,31,0,1,POEM - UTENZI,,,,,,,,,,,,,,,,,,,,,,,,,,,,,,,,,,,,,,,,,,,,,,,,,,,,,,,,,,,,,,,,,,,,,,,,,,,,,,,,
,,,,,,,,,,00001597199,2020-10-30_22h03.33.159,swahili,2020.2.4,Win32,60,,,,,,,,,,-0.39238653,0.0234375,1,0,0,47.475125,unsorted_card,32,0,32,0,1,,,,,,,,,,,,,,,,,,,,,,,,,,,,,,,,,,,,,,,,,,,,,,,,,,,,,,,,,,,,,,,,,,,,,,,,,,,,,,,,,
,,,,,,,,,,00001597199,2020-10-30_22h03.33.159,swahili,2020.2.4,Win32,60,,,,,,,,,,-0.207906296,-0.078125,1,0,0,26.69209,unsorted_card,33,0,33,0,1,TAILOR - MSHONI,,,,,,,,,,,,,,,,,,,,,,,,,,,,,,,,,,,,,,,,,,,,,,,,,,,,,,,,,,,,,,,,,,,,,,,,,,,,,,,,
,,,,,,,,,,00001597199,2020-10-30_22h03.33.159,swahili,2020.2.4,Win32,60,,,,,,,,,,0.598828697,-0.0078125,1,0,0,1.68055,test_pile,34,0,34,0,1,TAILOR - MSHONI,,,,,,,,,,,,,,,,,,,,,,,,,,,,,,,,,,,,,,,,,,,,,,,,,,,,,,,,,,,,,,,,,,,,,,,,,,,,,,,,
,,,,,,,,,,00001597199,2020-10-30_22h03.33.159,swahili,2020.2.4,Win32,60,,,,,,,,,,-0.412884334,-0.020833333,1,0,0,39.701645,unsorted_card,35,0,35,0,1,,,,,,,,,,,,,,,,,,,,,,,,,,,,,,,,,,,,,,,,,,,,,,,,,,,,,,,,,,,,,,,,,,,,,,,,,,,,,,,,,
,,,,,,,,,,00001597199,2020-10-30_22h03.33.159,swahili,2020.2.4,Win32,60,,,,,,,,,,-0.282576867,0.033854167,1,0,0,42.84888,unsorted_card,36,0,36,0,1,CHEESE - JIBINI,,,,,,,,,,,,,,,,,,,,,,,,,,,,,,,,,,,,,,,,,,,,,,,,,,,,,,,,,,,,,,,,,,,,,,,,,,,,,,,,
,,,,,,,,,,00001597199,2020-10-30_22h03.33.159,swahili,2020.2.4,Win32,60,,,,,,,,,,0.448023426,-0.052083333,1,0,0,0.830845,test_pile,37,0,37,0,1,CHEESE - JIBINI,,,,,,,,,,,,,,,,,,,,,,,,,,,,,,,,,,,,,,,,,,,,,,,,,,,,,,,,,,,,,,,,,,,,,,,,,,,,,,,,
,,,,,,,,,,00001597199,2020-10-30_22h03.33.159,swahili,2020.2.4,Win32,60,,,,,,,,,,-0.40556369,0.018229167,1,0,0,93.65374,unsorted_card,38,0,38,0,1,,,,,,,,,,,,,,,,,,,,,,,,,,,,,,,,,,,,,,,,,,,,,,,,,,,,,,,,,,,,,,,,,,,,,,,,,,,,,,,,,
,,,,,,,,,,00001597199,2020-10-30_22h03.33.159,swahili,2020.2.4,Win32,60,,,,,,,,,,-0.207906296,0.033854167,1,0,0,39.323,unsorted_card,39,0,39,0,1,GRAPES - ZABIBU,,,,,,,,,,,,,,,,,,,,,,,,,,,,,,,,,,,,,,,,,,,,,,,,,,,,,,,,,,,,,,,,,,,,,,,,,,,,,,,,
,,,,,,,,,,00001597199,2020-10-30_22h03.33.159,swahili,2020.2.4,Win32,60,,,,,,,,,,0.389458272,0.075520833,1,0,0,0.39669,test_pile,40,0,40,0,1,GRAPES - ZABIBU,,,,,,,,,,,,,,,,,,,,,,,,,,,,,,,,,,,,,,,,,,,,,,,,,,,,,,,,,,,,,,,,,,,,,,,,,,,,,,,,
,,,,,,,,,,00001597199,2020-10-30_22h03.33.159,swahili,2020.2.4,Win32,60,,,,,,,,,,-0.32942899,-0.015625,1,0,0,0.832365,unsorted_card,41,0,41,0,1,,,,,,,,,,,,,,,,,,,,,,,,,,,,,,,,,,,,,,,,,,,,,,,,,,,,,,,,,,,,,,,,,,,,,,,,,,,,,,,,,
,,,,,,,,,,00001597199,2020-10-30_22h03.33.159,swahili,2020.2.4,Win32,60,,,,,,,,,,-0.269399707,-0.958333333,1,0,0,122.576125,unsorted_card,42,0,42,0,1,GRAVE - KABURI,,,,,,,,,,,,,,,,,,,,,,,,,,,,,,,,,,,,,,,,,,,,,,,,,,,,,,,,,,,,,,,,,,,,,,,,,,,,,,,,
,,,,,,,,,,00001597199,2020-10-30_22h03.33.159,swahili,2020.2.4,Win32,60,,,,,,,,,,-0.185944363,-0.182291667,1,0,0,0.396195,unsorted_card,43,0,43,0,1,GRAVE - KABURI,,,,,,,,,,,,,,,,,,,,,,,,,,,,,,,,,,,,,,,,,,,,,,,,,,,,,,,,,,,,,,,,,,,,,,,,,,,,,,,,
,,,,,,,,,,00001597199,2020-10-30_22h03.33.159,swahili,2020.2.4,Win32,60,,,,,,,,,,-0.185944363,-0.182291667,1,0,0,0.15083,unsorted_card,44,0,44,0,1,GRAVE - KABURI,,,,,,,,,,,,,,,,,,,,,,,,,,,,,,,,,,,,,,,,,,,,,,,,,,,,,,,,,,,,,,,,,,,,,,,,,,,,,,,,
,,,,,,,,,,00001597199,2020-10-30_22h03.33.159,swahili,2020.2.4,Win32,60,,,,,,,,,,-0.19033675,-0.182291667,1,0,0,0.215325,unsorted_card,45,0,45,0,1,GRAVE - KABURI,,,,,,,,,,,,,,,,,,,,,,,,,,,,,,,,,,,,,,,,,,,,,,,,,,,,,,,,,,,,,,,,,,,,,,,,,,,,,,,,
,,,,,,,,,,00001597199,2020-10-30_22h03.33.159,swahili,2020.2.4,Win32,60,,,,,,,,,,-0.19033675,-0.182291667,1,0,0,0.130085,unsorted_card,46,0,46,0,1,GRAVE - KABURI,,,,,,,,,,,,,,,,,,,,,,,,,,,,,,,,,,,,,,,,,,,,,,,,,,,,,,,,,,,,,,,,,,,,,,,,,,,,,,,,
,,,,,,,,,,00001597199,2020-10-30_22h03.33.159,swahili,2020.2.4,Win32,60,,,,,,,,,,-0.19033675,-0.182291667,1,0,0,0.14842,unsorted_card,47,0,47,0,1,GRAVE - KABURI,,,,,,,,,,,,,,,,,,,,,,,,,,,,,,,,,,,,,,,,,,,,,,,,,,,,,,,,,,,,,,,,,,,,,,,,,,,,,,,,
,,,,,,,,,,00001597199,2020-10-30_22h03.33.159,swahili,2020.2.4,Win32,60,,,,,,,,,,-0.19033675,-0.182291667,1,0,0,0.181855,unsorted_card,48,0,48,0,1,GRAVE - KABURI,,,,,,,,,,,,,,,,,,,,,,,,,,,,,,,,,,,,,,,,,,,,,,,,,,,,,,,,,,,,,,,,,,,,,,,,,,,,,,,,
,,,,,,,,,,00001597199,2020-10-30_22h03.33.159,swahili,2020.2.4,Win32,60,,,,,,,,,,-0.19033675,-0.182291667,1,0,0,0.151645,unsorted_card,49,0,49,0,1,GRAVE - KABURI,,,,,,,,,,,,,,,,,,,,,,,,,,,,,,,,,,,,,,,,,,,,,,,,,,,,,,,,,,,,,,,,,,,,,,,,,,,,,,,,
,,,,,,,,,,00001597199,2020-10-30_22h03.33.159,swahili,2020.2.4,Win32,60,,,,,,,,,,-0.366032211,0.015625,1,0,0,11.728315,unsorted_card,50,0,50,0,1,GRAVE - KABURI,,,,,,,,,,,,,,,,,,,,,,,,,,,,,,,,,,,,,,,,,,,,,,,,,,,,,,,,,,,,,,,,,,,,,,,,,,,,,,,,
,,,,,,,,,,00001597199,2020-10-30_22h03.33.159,swahili,2020.2.4,Win32,60,,,,,,,,,,0.426061493,0.03125,1,0,0,0.43455,test_pile,51,0,51,0,1,GRAVE - KABURI,,,,,,,,,,,,,,,,,,,,,,,,,,,,,,,,,,,,,,,,,,,,,,,,,,,,,,,,,,,,,,,,,,,,,,,,,,,,,,,,
,,,,,,,,,,00001597199,2020-10-30_22h03.33.159,swahili,2020.2.4,Win32,60,,,,,,,,,,-0.272327965,-0.078125,1,0,0,60.835085,unsorted_card,52,0,52,0,1,,,,,,,,,,,,,,,,,,,,,,,,,,,,,,,,,,,,,,,,,,,,,,,,,,,,,,,,,,,,,,,,,,,,,,,,,,,,,,,,,
,,,,,,,,,,00001597199,2020-10-30_22h03.33.159,swahili,2020.2.4,Win32,60,,,,,,,,,,0.342606149,0.046875,1,0,0,42.21655,test_pile,53,0,53,0,1,MANURE - SAMADI,,,,,,,,,,,,,,,,,,,,,,,,,,,,,,,,,,,,,,,,,,,,,,,,,,,,,,,,,,,,,,,,,,,,,,,,,,,,,,,,
,,,,,,,,,,00001597199,2020-10-30_22h03.33.159,swahili,2020.2.4,Win32,60,,,,,,,,,,-0.404099561,-0.153645833,1,0,0,0.763655,unsorted_card,54,0,54,0,1,,,,,,,,,,,,,,,,,,,,,,,,,,,,,,,,,,,,,,,,,,,,,,,,,,,,,,,,,,,,,,,,,,,,,,,,,,,,,,,,,
,,,,,,,,,,00001597199,2020-10-30_22h03.33.159,swahili,2020.2.4,Win32,60,,,,,,,,,,0.654465593,0.057291667,1,0,0,98.332555,test_pile,55,0,55,0,1,AGENT - WAKILI,,,,,,,,,,,,,,,,,,,,,,,,,,,,,,,,,,,,,,,,,,,,,,,,,,,,,,,,,,,,,,,,,,,,,,,,,,,,,,,,
,,,,,,,,,,00001597199,2020-10-30_22h03.33.159,swahili,2020.2.4,Win32,60,,,,,,,,,,-0.393850659,-0.1484375,1,0,0,4.239755,unsorted_card,56,0,56,0,1,,,,,,,,,,,,,,,,,,,,,,,,,,,,,,,,,,,,,,,,,,,,,,,,,,,,,,,,,,,,,,,,,,,,,,,,,,,,,,,,,
,,,,,,,,,,00001597199,2020-10-30_22h03.33.159,swahili,2020.2.4,Win32,60,,,,,,,,,,0.472913616,0.002604167,1,0,0,107.66562,test_pile,57,0,57,0,1,BRIBE - RUSHWA,,,,,,,,,,,,,,,,,,,,,,,,,,,,,,,,,,,,,,,,,,,,,,,,,,,,,,,,,,,,,,,,,,,,,,,,,,,,,,,,
,,,,,,,,,,00001597199,2020-10-30_22h03.33.159,swahili,2020.2.4,Win32,60,,,,,,,,,,-0.276720351,0.0859375,1,0,0,1.164605,unsorted_card,58,0,58,0,1,,,,,,,,,,,,,,,,,,,,,,,,,,,,,,,,,,,,,,,,,,,,,,,,,,,,,,,,,,,,,,,,,,,,,,,,,,,,,,,,,
,,,,,,,,,,00001597199,2020-10-30_22h03.33.159,swahili,2020.2.4,Win32,60,,,,,,,,,,-0.204978038,-0.0625,1,0,0,165.127685,unsorted_card,59,0,59,0,1,ORPHAN - YATIMA,,,,,,,,,,,,,,,,,,,,,,,,,,,,,,,,,,,,,,,,,,,,,,,,,,,,,,,,,,,,,,,,,,,,,,,,,,,,,,,,
,,,,,,,,,,00001597199,2020-10-30_22h03.33.159,swahili,2020.2.4,Win32,60,,,,,,,,,,0.565153734,0.1484375,1,0,0,0.428925,test_pile,60,0,60,0,1,ORPHAN - YATIMA,,,,,,,,,,,,,,,,,,,,,,,,,,,,,,,,,,,,,,,,,,,,,,,,,,,,,,,,,,,,,,,,,,,,,,,,,,,,,,,,
,,,,,,,,,,00001597199,2020-10-30_22h03.33.159,swahili,2020.2.4,Win32,60,,,,,,,,,,-0.357247438,0.0078125,1,0,0,68.328735,unsorted_card,61,0,61,0,1,,,,,,,,,,,,,,,,,,,,,,,,,,,,,,,,,,,,,,,,,,,,,,,,,,,,,,,,,,,,,,,,,,,,,,,,,,,,,,,,,
,,,,,,,,,,00001597199,2020-10-30_22h03.33.159,swahili,2020.2.4,Win32,60,,,,,,,,,,0.41727672,0.018229167,1,0,0,65.078905,test_pile,62,0,62,0,1,DIVORCE - TALAKA,,,,,,,,,,,,,,,,,,,,,,,,,,,,,,,,,,,,,,,,,,,,,,,,,,,,,,,,,,,,,,,,,,,,,,,,,,,,,,,,
,,,,,,,,,,00001597199,2020-10-30_22h03.33.159,swahili,2020.2.4,Win32,60,,,,,,,,,,-0.382137628,-0.080729167,1,0,0,110.03044,unsorted_card,63,0,63,0,1,,,,,,,,,,,,,,,,,,,,,,,,,,,,,,,,,,,,,,,,,,,,,,,,,,,,,,,,,,,,,,,,,,,,,,,,,,,,,,,,,
,,,,,,,,,,00001597199,2020-10-30_22h03.33.159,swahili,2020.2.4,Win32,60,,,,,,,,,,0.373352855,0.015625,1,0,0,28.51877,test_pile,64,0,64,0,1,BOAT - MASHUA,,,,,,,,,,,,,,,,,,,,,,,,,,,,,,,,,,,,,,,,,,,,,,,,,,,,,,,,,,,,,,,,,,,,,,,,,,,,,,,,
,,,,,,,,,,00001597199,2020-10-30_22h03.33.159,swahili,2020.2.4,Win32,60,,,,,,,,,,-0.327964861,-0.239583333,1,0,0,1.21505,unsorted_card,65,0,65,0,1,,,,,,,,,,,,,,,,,,,,,,,,,,,,,,,,,,,,,,,,,,,,,,,,,,,,,,,,,,,,,,,,,,,,,,,,,,,,,,,,,
,,,,,,,,,,00001597199,2020-10-30_22h03.33.159,swahili,2020.2.4,Win32,60,,,,,,,,,,0.385065886,0.013020833,1,0,0,118.530665,test_pile,66,0,66,0,1,TREASURE - DAFINA,,,,,,,,,,,,,,,,,,,,,,,,,,,,,,,,,,,,,,,,,,,,,,,,,,,,,,,,,,,,,,,,,,,,,,,,,,,,,,,,
,,,,,,,,,,00001597199,2020-10-30_22h03.33.159,swahili,2020.2.4,Win32,60,,,,,,,,,,,,,,,,,,,,,,PARROT - KASUKU,-0.31625183,-0.018229167,1,0,0,3.17375,study_first,return,5.432555,return,2.047245,0,0,0,0,1,,,,,,,,,,,,,,,,,,,,,,,,,,,,,,,,,,,,,,,,,,,,,,,,,,,,,,,,,,,,,,,,
,,,,,,,,,,00001597199,2020-10-30_22h03.33.159,swahili,2020.2.4,Win32,60,,,,,,,,,,,,,,,,,,,,,,MERCHANT - TAJIRI,,,,,,,,,,return,1.214925,1,0,1,0,1,,,,,,,,,,,,,,,,,,,,,,,,,,,,,,,,,,,,,,,,,,,,,,,,,,,,,,,,,,,,,,,,
,,,,,,,,,,00001597199,2020-10-30_22h03.33.159,swahili,2020.2.4,Win32,60,,,,,,,,,,,,,,,,,,,,,,,,,,,,,,,,,,,,,,,,0,0,0,0,1,,,,,,,,,,,,,,,,,,,,,,,,,,,,,,,,,,,,,,,,,,,,,,,,,,,,,,,,,,
,,,,,,,,,,00001597199,2020-10-30_22h03.33.159,swahili,2020.2.4,Win32,60,,,,,,,,,,,,,,,,,,,,,,,,,,,,,,,,,,0,0,0,0,1,,,,,,,,,,,,,,,,,,,,,,,,,,,,,,,,,,,,,,,,,,,,,,,,,,,,,,,,,,,,,,,,
,,,,,,,,,,00001597199,2020-10-30_22h03.33.159,swahili,2020.2.4,Win32,60,,,,,,,,,,,,,,,,,,,,,,,,,,,,,,,,,,,,,,,return,,,,,,3.26201,6.518855,0.573938507,0.0546875,1,0,0,1.24569,yes,GRAVE,KABURI,incorrect,0,0,0,0,1,,,,,,,,,,,,,,,,,,,,,,,,,,,,,,,,,,,,,,,,,
,,,,,,,,,,00001597199,2020-10-30_22h03.33.159,swahili,2020.2.4,Win32,60,,,,,,,,,,,,,,,,,,,,,,,,,,,,,,,,,,,,,,,,,,,,,,3.92532,0.418740849,-0.03125,1,0,0,0.915325,yes,AGENT,WAKILI,incorrect,1,0,1,0,1,,,,,,,,,,,,,,,,,,,,,,,,,,,,,,,,,,,,,,,,,
,,,,,,,,,,00001597199,2020-10-30_22h03.33.159,swahili,2020.2.4,Win32,60,,,,,,,,,,,,,,,,,,,,,,,,,,,,,,,,,,,,,,,,,,,,,,4.890345,0.418740849,-0.057291667,1,0,0,0.949075,yes,ORPHAN,YATIMA,incorrect,2,0,2,0,1,,,,,,,,,,,,,,,,,,,,,,,,,,,,,,,,,,,,,,,,,
,,,,,,,,,,00001597199,2020-10-30_22h03.33.159,swahili,2020.2.4,Win32,60,,,,,,,,,,,,,,,,,,,,,,,,,,,,,,,,,,,,,,,,,,,,,,2.26079,0.503660322,-0.005208333,1,0,0,0.96563,yes,BRIBE,RUSHWA,incorrect,3,0,3,0,1,,,,,,,,,,,,,,,,,,,,,,,,,,,,,,,,,,,,,,,,,
,,,,,,,,,,00001597199,2020-10-30_22h03.33.159,swahili,2020.2.4,Win32,60,,,,,,,,,,,,,,,,,,,,,,,,,,,,,,,,,,,,,,,,,,,,,,4.49011,0.465592972,-0.057291667,1,0,0,0.98157,yes,TREASURE,DAFINA,incorrect,4,0,4,0,1,,,,,,,,,,,,,,,,,,,,,,,,,,,,,,,,,,,,,,,,,
,,,,,,,,,,00001597199,2020-10-30_22h03.33.159,swahili,2020.2.4,Win32,60,,,,,,,,,,,,,,,,,,,,,,,,,,,,,,,,,,,,,,,,,,,,,,6.271985,0.452415813,-0.002604167,1,0,0,0.982255,yes,GRAPES,JABIBU,incorrect,5,0,5,0,1,,,,,,,,,,,,,,,,,,,,,,,,,,,,,,,,,,,,,,,,,
,,,,,,,,,,00001597199,2020-10-30_22h03.33.159,swahili,2020.2.4,Win32,60,,,,,,,,,,,,,,,,,,,,,,,,,,,,,,,,,,,,,,,,,,,,,,10.831335,0.560761347,0.036458333,1,0,0,0.982545,yes,CORN,KAFACKA,incorrect,6,0,6,0,1,,,,,,,,,,,,,,,,,,,,,,,,,,,,,,,,,,,,,,,,,
,,,,,,,,,,00001597199,2020-10-30_22h03.33.159,swahili,2020.2.4,Win32,60,,,,,,,,,,,,,,,,,,,,,,,,,,,,,,,,,,,,,,,,,,,,,,10.348555,0.420204978,-0.1796875,1,0,0,1.01623,yes,BLAME,HAWAMA,incorrect,7,0,7,0,1,,,,,,,,,,,,,,,,,,,,,,,,,,,,,,,,,,,,,,,,,
,,,,,,,,,,00001597199,2020-10-30_22h03.33.159,swahili,2020.2.4,Win32,60,,,,,,,,,,,,,,,,,,,,,,,,,,,,,,,,,,,,,,,,,,,,,,6.05473,0.411420205,-0.0703125,1,0,0,1.047875,yes,DIVORCE,TALAKA,incorrect,8,0,8,0,1,,,,,,,,,,,,,,,,,,,,,,,,,,,,,,,,,,,,,,,,,
,,,,,,,,,,00001597199,2020-10-30_22h03.33.159,swahili,2020.2.4,Win32,60,,,,,,,,,,,,,,,,,,,,,,,,,,,,,,,,,,,,,,,,,,,,,,3.89179,0.541727672,-0.0390625,1,0,0,0.9487,yes,BULL,FAJIRI,incorrect,9,0,9,0,1,,,,,,,,,,,,,,,,,,,,,,,,,,,,,,,,,,,,,,,,,
,,,,,,,,,,00001597199,2020-10-30_22h03.33.159,swahili,2020.2.4,Win32,60,,,,,,,,,,,,,,,,,,,,,,,,,,,,,,,,,,,,,,,,,,,,,,6.171545,0.390922401,-0.239583333,1,0,0,1.2814,yes,YEAST,HAMIRA,incorrect,10,0,10,0,1,,,,,,,,,,,,,,,,,,,,,,,,,,,,,,,,,,,,,,,,,
,,,,,,,,,,00001597199,2020-10-30_22h03.33.159,swahili,2020.2.4,Win32,60,,,,,,,,,,,,,,,,,,,,,,,,,,,,,,,,,,,,,,,,,,,,,,3.958495,0.310395315,-0.166666667,1,0,0,1.03194,yes,BOAT,MASHUA,incorrect,11,0,11,0,1,,,,,,,,,,,,,,,,,,,,,,,,,,,,,,,,,,,,,,,,,
,,,,,,,,,,00001597199,2020-10-30_22h03.33.159,swahili,2020.2.4,Win32,60,,,,,,,,,,,,,,,,,,,,,,,,,,,,,,,,,,,,,,,,,,,,,,2.627285,0.448023426,0.005208333,1,0,0,0.998445,yes,MANURE,SAMADI,incorrect,12,0,12,0,1,,,,,,,,,,,,,,,,,,,,,,,,,,,,,,,,,,,,,,,,,
,,,,,,,,,,00001597199,2020-10-30_22h03.33.159,swahili,2020.2.4,Win32,60,,,,,,,,,,,,,,,,,,,,,,,,,,,,,,,,,,,,,,,,,,,,,,7.48662,0.424597365,0.0703125,1,0,0,1.031685,yes,PLATE,SAHIRA,incorrect,13,0,13,0,1,,,,,,,,,,,,,,,,,,,,,,,,,,,,,,,,,,,,,,,,,
,,,,,,,,,,00001597199,2020-10-30_22h03.33.159,swahili,2020.2.4,Win32,60,,,,,,,,,,,,,,,,,,,,,,,,,,,,,,,,,,,,,,,,,,,,,,3.925555,0.368960469,-0.1484375,1,0,0,1.08183,yes,CHEESE,JABINI,incorrect,14,0,14,0,1,,,,,,,,,,,,,,,,,,,,,,,,,,,,,,,,,,,,,,,,,
,,,,,,,,,,00001597199,2020-10-30_22h03.33.159,swahili,2020.2.4,Win32,60,,,,,,,,,,,,,,,,,,,,,,,,,,,,,,,,,,,,,,,,,,,,,,3.593085,0.437774524,-0.236979167,1,0,0,0.93169,yes,OATH,YAMINI,incorrect,15,0,15,0,1,,,,,,,,,,,,,,,,,,,,,,,,,,,,,,,,,,,,,,,,,
,,,,,,,,,,00001597199,2020-10-30_22h03.33.159,swahili,2020.2.4,Win32,60,,,,,,,,,,,,,,,,,,,,,,,,,,,,,,,,,,,,,,,,,,,,,,17.071845,0.407027818,-0.083333333,1,0,0,1.26461,yes,POEM,UTEPR,incorrect,16,0,16,0,1,,,,,,,,,,,,,,,,,,,,,,,,,,,,,,,,,,,,,,,,,
,,,,,,,,,,00001597199,2020-10-30_22h03.33.159,swahili,2020.2.4,Win32,60,,,,,,,,,,,,,,,,,,,,,,,,,,,,,,,,,,,,,,,,,,,,,,65.247365,0.234260615,-0.1484375,1,0,0,0.981685,yes,TAILOR,OMISHI,incorrect,17,0,17,0,1,,,,,,,,,,,,,,,,,,,,,,,,,,,,,,,,,,,,,,,,,
,,,,,,,,,,00001597199,2020-10-30_22h03.33.159,swahili,2020.2.4,Win32,60,,,,,,,,,,,,,,,,,,,,,,,,,,,,,,,,,,,,,,,,1,0,1,0,1,,,,,,,,,,,,,,,,,,,,,,,,,,,,,,,,,,,,,,,,,,,,,,,,,,,,,,,,,,
,,,,,,,,,,00001597199,2020-10-30_22h03.33.159,swahili,2020.2.4,Win32,60,,,,,,,,,,,,,,,,,,,,,,,,,,,,,,,,,,,,,,,,,,,,,,,,,,,,,,,,,,,,,,0,0,0,0,1,,,,,,,,,,,,,,,,,,,,,,,,,,,,,,,,,,,,
,,,,,,,,,,00001597199,2020-10-30_22h03.33.159,swahili,2020.2.4,Win32,60,,,,,,,,,,-0.143484627,0.013020833,1,0,0,5.163595,unsorted_card,0,0,0,0,1,,,,,,,,,,,,,,,,,,,,,,,,,,,,,,,,,,,,,,,,,,,,,,,,,,,,,,,,,,,,,,,,,,,,,,,,,,,,,,,,,
,,,,,,,,,,00001597199,2020-10-30_22h03.33.159,swahili,2020.2.4,Win32,60,,,,,,,,,,-0.143484627,0.005208333,1,0,0,1.595555,unsorted_card,1,0,1,0,1,MERCHANT - TAJIRI,,,,,,,,,,,,,,,,,,,,,,,,,,,,,,,,,,,,,,,,,,,,,,,,,,,,,,,,,,,,,,,,,,,,,,,,,,,,,,,,
,,,,,,,,,,00001597199,2020-10-30_22h03.33.159,swahili,2020.2.4,Win32,60,,,,,,,,,,0.500732064,-0.080729167,1,0,0,4.758475,test_pile,2,0,2,0,1,MERCHANT - TAJIRI,,,,,,,,,,,,,,,,,,,,,,,,,,,,,,,,,,,,,,,,,,,,,,,,,,,,,,,,,,,,,,,,,,,,,,,,,,,,,,,,
,,,,,,,,,,00001597199,2020-10-30_22h03.33.159,swahili,2020.2.4,Win32,60,,,,,,,,,,-0.172767204,-0.143229167,1,0,0,1.994695,unsorted_card,3,0,3,0,1,,,,,,,,,,,,,,,,,,,,,,,,,,,,,,,,,,,,,,,,,,,,,,,,,,,,,,,,,,,,,,,,,,,,,,,,,,,,,,,,,
,,,,,,,,,,00001597199,2020-10-30_22h03.33.159,swahili,2020.2.4,Win32,60,,,,,,,,,,0.434846266,0.052083333,1,0,0,2.09529,test_pile,4,0,4,0,1,PARROT - KASUKU,,,,,,,,,,,,,,,,,,,,,,,,,,,,,,,,,,,,,,,,,,,,,,,,,,,,,,,,,,,,,,,,,,,,,,,,,,,,,,,,
,,,,,,,,,,00001597199,2020-10-30_22h03.33.159,swahili,2020.2.4,Win32,60,,,,,,,,,,-0.263543192,-0.127604167,1,0,0,0.61376,unsorted_card,5,0,5,0,1,,,,,,,,,,,,,,,,,,,,,,,,,,,,,,,,,,,,,,,,,,,,,,,,,,,,,,,,,,,,,,,,,,,,,,,,,,,,,,,,,
,,,,,,,,,,00001597199,2020-10-30_22h03.33.159,swahili,2020.2.4,Win32,60,,,,,,,,,,0.456808199,-0.013020833,1,0,0,1.59665,test_pile,6,0,6,0,1,BULL - FAHILI,,,,,,,,,,,,,,,,,,,,,,,,,,,,,,,,,,,,,,,,,,,,,,,,,,,,,,,,,,,,,,,,,,,,,,,,,,,,,,,,
,,,,,,,,,,00001597199,2020-10-30_22h03.33.159,swahili,2020.2.4,Win32,60,,,,,,,,,,-0.2284041,0.005208333,1,0,0,0.4975,unsorted_card,7,0,7,0,1,,,,,,,,,,,,,,,,,,,,,,,,,,,,,,,,,,,,,,,,,,,,,,,,,,,,,,,,,,,,,,,,,,,,,,,,,,,,,,,,,
,,,,,,,,,,00001597199,2020-10-30_22h03.33.159,swahili,2020.2.4,Win32,60,,,,,,,,,,0.449487555,-0.0546875,1,0,0,2.76141,test_pile,8,0,8,0,1,PLATE - SAHANI,,,,,,,,,,,,,,,,,,,,,,,,,,,,,,,,,,,,,,,,,,,,,,,,,,,,,,,,,,,,,,,,,,,,,,,,,,,,,,,,
,,,,,,,,,,00001597199,2020-10-30_22h03.33.159,swahili,2020.2.4,Win32,60,,,,,,,,,,-0.20204978,-0.200520833,1,0,0,0.51379,unsorted_card,9,0,9,0,1,,,,,,,,,,,,,,,,,,,,,,,,,,,,,,,,,,,,,,,,,,,,,,,,,,,,,,,,,,,,,,,,,,,,,,,,,,,,,,,,,
,,,,,,,,,,00001597199,2020-10-30_22h03.33.159,swahili,2020.2.4,Win32,60,,,,,,,,,,0.477306003,-0.026041667,1,0,0,1.097605,test_pile,10,0,10,0,1,YEAST - HAMIRA,,,,,,,,,,,,,,,,,,,,,,,,,,,,,,,,,,,,,,,,,,,,,,,,,,,,,,,,,,,,,,,,,,,,,,,,,,,,,,,,
,,,,,,,,,,00001597199,2020-10-30_22h03.33.159,swahili,2020.2.4,Win32,60,,,,,,,,,,-0.150805271,-0.098958333,1,0,0,0.49672,unsorted_card,11,0,11,0,1,,,,,,,,,,,,,,,,,,,,,,,,,,,,,,,,,,,,,,,,,,,,,,,,,,,,,,,,,,,,,,,,,,,,,,,,,,,,,,,,,
,,,,,,,,,,00001597199,2020-10-30_22h03.33.159,swahili,2020.2.4,Win32,60,,,,,,,,,,0.37920937,-0.013020833,1,0,0,0.87917,test_pile,12,0,12,0,1,BLAME - LAWAMA,,,,,,,,,,,,,,,,,,,,,,,,,,,,,,,,,,,,,,,,,,,,,,,,,,,,,,,,,,,,,,,,,,,,,,,,,,,,,,,,
,,,,,,,,,,00001597199,2020-10-30_22h03.33.159,swahili,2020.2.4,Win32,60,,,,,,,,,,-0.418740849,-0.078125,1,0,0,0.431025,unsorted_card,13,0,13,0,1,,,,,,,,,,,,,,,,,,,,,,,,,,,,,,,,,,,,,,,,,,,,,,,,,,,,,,,,,,,,,,,,,,,,,,,,,,,,,,,,,
,,,,,,,,,,00001597199,2020-10-30_22h03.33.159,swahili,2020.2.4,Win32,60,,,,,,,,,,0.62079063,-0.067708333,1,0,0,1.38032,test_pile,14,0,14,0,1,OATH - YAMINI,,,,,,,,,,,,,,,,,,,,,,,,,,,,,,,,,,,,,,,,,,,,,,,,,,,,,,,,,,,,,,,,,,,,,,,,,,,,,,,,
,,,,,,,,,,00001597199,2020-10-30_22h03.33.159,swahili,2020.2.4,Win32,60,,,,,,,,,,-0.175695461,0.015625,1,0,0,0.414325,unsorted_card,15,0,15,0,1,,,,,,,,,,,,,,,,,,,,,,,,,,,,,,,,,,,,,,,,,,,,,,,,,,,,,,,,,,,,,,,,,,,,,,,,,,,,,,,,,
,,,,,,,,,,00001597199,2020-10-30_22h03.33.159,swahili,2020.2.4,Win32,60,,,,,,,,,,0.349926794,0.072916667,1,0,0,0.580475,test_pile,16,0,16,0,1,CORN - NAFAKA,,,,,,,,,,,,,,,,,,,,,,,,,,,,,,,,,,,,,,,,,,,,,,,,,,,,,,,,,,,,,,,,,,,,,,,,,,,,,,,,
,,,,,,,,,,00001597199,2020-10-30_22h03.33.159,swahili,2020.2.4,Win32,60,,,,,,,,,,-0.360175695,0.041666667,1,0,0,0.478915,unsorted_card,17,0,17,0,1,,,,,,,,,,,,,,,,,,,,,,,,,,,,,,,,,,,,,,,,,,,,,,,,,,,,,,,,,,,,,,,,,,,,,,,,,,,,,,,,,
,,,,,,,,,,00001597199,2020-10-30_22h03.33.159,swahili,2020.2.4,Win32,60,,,,,,,,,,0.409956076,-0.026041667,1,0,0,0.78025,test_pile,18,0,18,0,1,POEM - UTENZI,,,,,,,,,,,,,,,,,,,,,,,,,,,,,,,,,,,,,,,,,,,,,,,,,,,,,,,,,,,,,,,,,,,,,,,,,,,,,,,,
,,,,,,,,,,00001597199,2020-10-30_22h03.33.159,swahili,2020.2.4,Win32,60,,,,,,,,,,-0.29136164,-0.190104167,1,0,0,0.364385,unsorted_card,19,0,19,0,1,,,,,,,,,,,,,,,,,,,,,,,,,,,,,,,,,,,,,,,,,,,,,,,,,,,,,,,,,,,,,,,,,,,,,,,,,,,,,,,,,
,,,,,,,,,,00001597199,2020-10-30_22h03.33.159,swahili,2020.2.4,Win32,60,,,,,,,,,,0.469985359,-0.03125,1,0,0,2.161725,test_pile,20,0,20,0,1,TAILOR - MSHONI,,,,,,,,,,,,,,,,,,,,,,,,,,,,,,,,,,,,,,,,,,,,,,,,,,,,,,,,,,,,,,,,,,,,,,,,,,,,,,,,
,,,,,,,,,,00001597199,2020-10-30_22h03.33.159,swahili,2020.2.4,Win32,60,,,,,,,,,,-0.209370425,-0.049479167,1,0,0,0.464555,unsorted_card,21,0,21,0,1,,,,,,,,,,,,,,,,,,,,,,,,,,,,,,,,,,,,,,,,,,,,,,,,,,,,,,,,,,,,,,,,,,,,,,,,,,,,,,,,,
,,,,,,,,,,00001597199,2020-10-30_22h03.33.159,swahili,2020.2.4,Win32,60,,,,,,,,,,0.475841874,0.052083333,1,0,0,0.698025,test_pile,22,0,22,0,1,CHEESE - JIBINI,,,,,,,,,,,,,,,,,,,,,,,,,,,,,,,,,,,,,,,,,,,,,,,,,,,,,,,,,,,,,,,,,,,,,,,,,,,,,,,,
,,,,,,,,,,00001597199,2020-10-30_22h03.33.159,swahili,2020.2.4,Win32,60,,,,,,,,,,-0.327964861,0,1,0,0,0.43218,unsorted_card,23,0,23,0,1,,,,,,,,,,,,,,,,,,,,,,,,,,,,,,,,,,,,,,,,,,,,,,,,,,,,,,,,,,,,,,,,,,,,,,,,,,,,,,,,,
,,,,,,,,,,00001597199,2020-10-30_22h03.33.159,swahili,2020.2.4,Win32,60,,,,,,,,,,0.415812592,0.002604167,1,0,0,1.02992,test_pile,24,0,24,0,1,GRAPES - ZABIBU,,,,,,,,,,,,,,,,,,,,,,,,,,,,,,,,,,,,,,,,,,,,,,,,,,,,,,,,,,,,,,,,,,,,,,,,,,,,,,,,
,,,,,,,,,,00001597199,2020-10-30_22h03.33.159,swahili,2020.2.4,Win32,60,,,,,,,,,,-0.27818448,0.080729167,1,0,0,0.36456,unsorted_card,25,0,25,0,1,,,,,,,,,,,,,,,,,,,,,,,,,,,,,,,,,,,,,,,,,,,,,,,,,,,,,,,,,,,,,,,,,,,,,,,,,,,,,,,,,
,,,,,,,,,,00001597199,2020-10-30_22h03.33.159,swahili,2020.2.4,Win32,60,,,,,,,,,,0.487554905,-0.03125,1,0,0,1.78168,test_pile,26,0,26,0,1,GRAVE - KABURI,,,,,,,,,,,,,,,,,,,,,,,,,,,,,,,,,,,,,,,,,,,,,,,,,,,,,,,,,,,,,,,,,,,,,,,,,,,,,,,,
,,,,,,,,,,00001597199,2020-10-30_22h03.33.159,swahili,2020.2.4,Win32,60,,,,,,,,,,-0.389458272,0.005208333,1,0,0,0.34642,unsorted_card,27,0,27,0,1,,,,,,,,,,,,,,,,,,,,,,,,,,,,,,,,,,,,,,,,,,,,,,,,,,,,,,,,,,,,,,,,,,,,,,,,,,,,,,,,,
,,,,,,,,,,00001597199,2020-10-30_22h03.33.159,swahili,2020.2.4,Win32,60,,,,,,,,,,0.440702782,-0.0390625,1,0,0,1.096755,test_pile,28,0,28,0,1,MANURE - SAMADI,,,,,,,,,,,,,,,,,,,,,,,,,,,,,,,,,,,,,,,,,,,,,,,,,,,,,,,,,,,,,,,,,,,,,,,,,,,,,,,,
,,,,,,,,,,00001597199,2020-10-30_22h03.33.159,swahili,2020.2.4,Win32,60,,,,,,,,,,-0.045387994,0.098958333,1,0,0,0.43084,unsorted_card,29,0,29,0,1,,,,,,,,,,,,,,,,,,,,,,,,,,,,,,,,,,,,,,,,,,,,,,,,,,,,,,,,,,,,,,,,,,,,,,,,,,,,,,,,,
,,,,,,,,,,00001597199,2020-10-30_22h03.33.159,swahili,2020.2.4,Win32,60,,,,,,,,,,0.478770132,0.018229167,1,0,0,1.24631,test_pile,30,0,30,0,1,AGENT - WAKILI,,,,,,,,,,,,,,,,,,,,,,,,,,,,,,,,,,,,,,,,,,,,,,,,,,,,,,,,,,,,,,,,,,,,,,,,,,,,,,,,
,,,,,,,,,,00001597199,2020-10-30_22h03.33.159,swahili,2020.2.4,Win32,60,,,,,,,,,,-0.37920937,-0.075520833,1,0,0,0.314585,unsorted_card,31,0,31,0,1,,,,,,,,,,,,,,,,,,,,,,,,,,,,,,,,,,,,,,,,,,,,,,,,,,,,,,,,,,,,,,,,,,,,,,,,,,,,,,,,,
,,,,,,,,,,00001597199,2020-10-30_22h03.33.159,swahili,2020.2.4,Win32,60,,,,,,,,,,0.497803807,0.033854167,1,0,0,0.76448,test_pile,32,0,32,0,1,BRIBE - RUSHWA,,,,,,,,,,,,,,,,,,,,,,,,,,,,,,,,,,,,,,,,,,,,,,,,,,,,,,,,,,,,,,,,,,,,,,,,,,,,,,,,
,,,,,,,,,,00001597199,2020-10-30_22h03.33.159,swahili,2020.2.4,Win32,60,,,,,,,,,,-0.241581259,-0.0234375,1,0,0,0.396885,unsorted_card,33,0,33,0,1,,,,,,,,,,,,,,,,,,,,,,,,,,,,,,,,,,,,,,,,,,,,,,,,,,,,,,,,,,,,,,,,,,,,,,,,,,,,,,,,,
,,,,,,,,,,00001597199,2020-10-30_22h03.33.159,swahili,2020.2.4,Win32,60,,,,,,,,,,0.459736457,-0.033854167,1,0,0,0.86331,test_pile,34,0,34,0,1,ORPHAN - YATIMA,,,,,,,,,,,,,,,,,,,,,,,,,,,,,,,,,,,,,,,,,,,,,,,,,,,,,,,,,,,,,,,,,,,,,,,,,,,,,,,,
,,,,,,,,,,00001597199,2020-10-30_22h03.33.159,swahili,2020.2.4,Win32,60,,,,,,,,,,-0.530014641,0.0234375,1,0,0,0.33107,unsorted_card,35,0,35,0,1,,,,,,,,,,,,,,,,,,,,,,,,,,,,,,,,,,,,,,,,,,,,,,,,,,,,,,,,,,,,,,,,,,,,,,,,,,,,,,,,,
,,,,,,,,,,00001597199,2020-10-30_22h03.33.159,swahili,2020.2.4,Win32,60,,,,,,,,,,0.402635432,0,1,0,0,0.881045,test_pile,36,0,36,0,1,DIVORCE - TALAKA,,,,,,,,,,,,,,,,,,,,,,,,,,,,,,,,,,,,,,,,,,,,,,,,,,,,,,,,,,,,,,,,,,,,,,,,,,,,,,,,
,,,,,,,,,,00001597199,2020-10-30_22h03.33.159,swahili,2020.2.4,Win32,60,,,,,,,,,,-0.459736457,-0.072916667,1,0,0,0.348305,unsorted_card,37,0,37,0,1,,,,,,,,,,,,,,,,,,,,,,,,,,,,,,,,,,,,,,,,,,,,,,,,,,,,,,,,,,,,,,,,,,,,,,,,,,,,,,,,,
,,,,,,,,,,00001597199,2020-10-30_22h03.33.159,swahili,2020.2.4,Win32,60,,,,,,,,,,0.631039531,-0.026041667,1,0,0,0.845775,test_pile,38,0,38,0,1,BOAT - MASHUA,,,,,,,,,,,,,,,,,,,,,,,,,,,,,,,,,,,,,,,,,,,,,,,,,,,,,,,,,,,,,,,,,,,,,,,,,,,,,,,,
,,,,,,,,,,00001597199,2020-10-30_22h03.33.159,swahili,2020.2.4,Win32,60,,,,,,,,,,-0.330893119,-0.0546875,1,0,0,0.29725,unsorted_card,39,0,39,0,1,,,,,,,,,,,,,,,,,,,,,,,,,,,,,,,,,,,,,,,,,,,,,,,,,,,,,,,,,,,,,,,,,,,,,,,,,,,,,,,,,
,,,,,,,,,,00001597199,2020-10-30_22h03.33.159,swahili,2020.2.4,Win32,60,,,,,,,,,,0.402635432,-0.015625,1,0,0,1.19571,test_pile,40,0,40,0,1,TREASURE - DAFINA,,,,,,,,,,,,,,,,,,,,,,,,,,,,,,,,,,,,,,,,,,,,,,,,,,,,,,,,,,,,,,,,,,,,,,,,,,,,,,,,
,,,,,,,,,,00001597199,2020-10-30_22h03.33.159,swahili,2020.2.4,Win32,60,,,,,,,,,,,,,,,,,,,,,,,,,,,,,,,,,,0,0,0,0,1,,,,,,,,,,,,,,,,,,,,,,,,,,,,,,,,,,,,,,,,,,,,,,,,,,,,,,,,,,,,,,,,
,,,,,,,,,,00001597199,2020-10-30_22h03.33.159,swahili,2020.2.4,Win32,60,,,,,,,,,,,,,,,,,,,,,,,,,,,,,,,,,,,,,,,return,,,,,,2.60552,7.468395,0.938506589,0.049479167,1,0,0,0.932125,yes,BULL,FAHIRA,incorrect,0,0,0,0,1,,,,,,,,,,,,,,,,,,,,,,,,,,,,,,,,,,,,,,,,,
,,,,,,,,,,00001597199,2020-10-30_22h03.33.159,swahili,2020.2.4,Win32,60,,,,,,,,,,,,,,,,,,,,,,,,,,,,,,,,,,,,,,,,,,,,,,3.15913,0.346998536,-0.190104167,1,0,0,0.949285,yes,PLATE,SAHIRA,incorrect,1,0,1,0,1,,,,,,,,,,,,,,,,,,,,,,,,,,,,,,,,,,,,,,,,,
,,,,,,,,,,00001597199,2020-10-30_22h03.33.159,swahili,2020.2.4,Win32,60,,,,,,,,,,,,,,,,,,,,,,,,,,,,,,,,,,,,,,,,,,,,,,2.39275,0.387994143,-0.098958333,1,0,0,0.94815,yes,BRIBE,RUSHWA,incorrect,2,0,2,0,1,,,,,,,,,,,,,,,,,,,,,,,,,,,,,,,,,,,,,,,,,
,,,,,,,,,,00001597199,2020-10-30_22h03.33.159,swahili,2020.2.4,Win32,60,,,,,,,,,,,,,,,,,,,,,,,,,,,,,,,,,,,,,,,,,,,,,,3.225725,0.292825769,-0.1328125,1,0,0,1.098615,yes,YEAST,HAMIRA,incorrect,3,0,3,0,1,,,,,,,,,,,,,,,,,,,,,,,,,,,,,,,,,,,,,,,,,
,,,,,,,,,,00001597199,2020-10-30_22h03.33.159,swahili,2020.2.4,Win32,60,,,,,,,,,,,,,,,,,,,,,,,,,,,,,,,,,,,,,,,,,,,,,,2.54392,0.292825769,-0.252604167,1,0,0,1.031925,yes,MERCHANT,TAJIRI,incorrect,4,0,4,0,1,,,,,,,,,,,,,,,,,,,,,,,,,,,,,,,,,,,,,,,,,
,,,,,,,,,,00001597199,2020-10-30_22h03.33.159,swahili,2020.2.4,Win32,60,,,,,,,,,,,,,,,,,,,,,,,,,,,,,,,,,,,,,,,,,,,,,,2.810245,0.557833089,-0.080729167,1,0,0,1.19804,yes,BOAT,MASHUA,incorrect,5,0,5,0,1,,,,,,,,,,,,,,,,,,,,,,,,,,,,,,,,,,,,,,,,,
,,,,,,,,,,00001597199,2020-10-30_22h03.33.159,swahili,2020.2.4,Win32,60,,,,,,,,,,,,,,,,,,,,,,,,,,,,,,,,,,,,,,,,,,,,,,2.99294,0.418740849,0.033854167,1,0,0,1.0819,yes,TREASURE,DAFINA,incorrect,6,0,6,0,1,,,,,,,,,,,,,,,,,,,,,,,,,,,,,,,,,,,,,,,,,
,,,,,,,,,,00001597199,2020-10-30_22h03.33.159,swahili,2020.2.4,Win32,60,,,,,,,,,,,,,,,,,,,,,,,,,,,,,,,,,,,,,,,,,,,,,,3.542765,0.600292826,-0.2265625,1,0,0,1.28166,yes,PARROT,KOSUKU,incorrect,7,0,7,0,1,,,,,,,,,,,,,,,,,,,,,,,,,,,,,,,,,,,,,,,,,
,,,,,,,,,,00001597199,2020-10-30_22h03.33.159,swahili,2020.2.4,Win32,60,,,,,,,,,,,,,,,,,,,,,,,,,,,,,,,,,,,,,,,,,,,,,,3.54211,0.338213763,-0.2109375,1,0,0,1.048355,yes,POEM,UTENZI,incorrect,8,0,8,0,1,,,,,,,,,,,,,,,,,,,,,,,,,,,,,,,,,,,,,,,,,
,,,,,,,,,,00001597199,2020-10-30_22h03.33.159,swahili,2020.2.4,Win32,60,,,,,,,,,,,,,,,,,,,,,,,,,,,,,,,,,,,,,,,,,,,,,,1.945215,0.500732064,0.145833333,1,0,0,0.948575,yes,OATH,YAMINI,incorrect,9,0,9,0,1,,,,,,,,,,,,,,,,,,,,,,,,,,,,,,,,,,,,,,,,,
,,,,,,,,,,00001597199,2020-10-30_22h03.33.159,swahili,2020.2.4,Win32,60,,,,,,,,,,,,,,,,,,,,,,,,,,,,,,,,,,,,,,,,,,,,,,2.094645,0.581259151,0.0078125,1,0,0,0.998395,yes,ORPHAN,YATIMA,incorrect,10,0,10,0,1,,,,,,,,,,,,,,,,,,,,,,,,,,,,,,,,,,,,,,,,,
,,,,,,,,,,00001597199,2020-10-30_22h03.33.159,swahili,2020.2.4,Win32,60,,,,,,,,,,,,,,,,,,,,,,,,,,,,,,,,,,,,,,,,,,,,,,4.97368,0.623718887,0.083333333,1,0,0,1.11515,yes,CHEESE,JIBINI,incorrect,11,0,11,0,1,,,,,,,,,,,,,,,,,,,,,,,,,,,,,,,,,,,,,,,,,
,,,,,,,,,,00001597199,2020-10-30_22h03.33.159,swahili,2020.2.4,Win32,60,,,,,,,,,,,,,,,,,,,,,,,,,,,,,,,,,,,,,,,,,,,,,,4.790745,0.509516837,0.260416667,1,0,0,0.898705,yes,CORN,NAFACKA,incorrect,12,0,12,0,1,,,,,,,,,,,,,,,,,,,,,,,,,,,,,,,,,,,,,,,,,
,,,,,,,,,,00001597199,2020-10-30_22h03.33.159,swahili,2020.2.4,Win32,60,,,,,,,,,,,,,,,,,,,,,,,,,,,,,,,,,,,,,,,,,,,,,,3.55902,0.335285505,-0.1875,1,0,0,0.85114,yes,AGENT,WAKILI,incorrect,13,0,13,0,1,,,,,,,,,,,,,,,,,,,,,,,,,,,,,,,,,,,,,,,,,
,,,,,,,,,,00001597199,2020-10-30_22h03.33.159,swahili,2020.2.4,Win32,60,,,,,,,,,,,,,,,,,,,,,,,,,,,,,,,,,,,,,,,,,,,,,,3.809005,0.566617862,-0.052083333,1,0,0,1.098305,yes,GRAPES,ZABIBU,incorrect,14,0,14,0,1,,,,,,,,,,,,,,,,,,,,,,,,,,,,,,,,,,,,,,,,,
,,,,,,,,,,00001597199,2020-10-30_22h03.33.159,swahili,2020.2.4,Win32,60,,,,,,,,,,,,,,,,,,,,,,,,,,,,,,,,,,,,,,,,,,,,,,2.277135,0.449487555,-0.065104167,1,0,0,0.9648,yes,GRAVE,KABURI,incorrect,15,0,15,0,1,,,,,,,,,,,,,,,,,,,,,,,,,,,,,,,,,,,,,,,,,
,,,,,,,,,,00001597199,2020-10-30_22h03.33.159,swahili,2020.2.4,Win32,60,,,,,,,,,,,,,,,,,,,,,,,,,,,,,,,,,,,,,,,,,,,,,,4.594365,0.600292826,0.216145833,1,0,0,0.89823,yes,DIVORCE,TALAKA,incorrect,16,0,16,0,1,,,,,,,,,,,,,,,,,,,,,,,,,,,,,,,,,,,,,,,,,
,,,,,,,,,,00001597199,2020-10-30_22h03.33.159,swahili,2020.2.4,Win32,60,,,,,,,,,,,,,,,,,,,,,,,,,,,,,,,,,,,,,,,,,,,,,,5.22494,0.306002928,-0.088541667,1,0,0,0.916065,yes,TAILOR,MSHONI,incorrect,17,0,17,0,1,,,,,,,,,,,,,,,,,,,,,,,,,,,,,,,,,,,,,,,,,
,,,,,,,,,,00001597199,2020-10-30_22h03.33.159,swahili,2020.2.4,Win32,60,,,,,,,,,,,,,,,,,,,,,,,,,,,,,,,,,,,,,,,,,,,,,,4.506065,0.595900439,0.135416667,1,0,0,0.917995,yes,BLAME,LAWAMA,incorrect,18,0,18,0,1,,,,,,,,,,,,,,,,,,,,,,,,,,,,,,,,,,,,,,,,,
,,,,,,,,,,00001597199,2020-10-30_22h03.33.159,swahili,2020.2.4,Win32,60,,,,,,,,,,,,,,,,,,,,,,,,,,,,,,,,,,,,,,,,,,,,,,3.142735,0.399707174,-0.065104167,1,0,0,1.15282,yes,MANURE,SAMADI,incorrect,19,0,19,0,1,,,,,,,,,,,,,,,,,,,,,,,,,,,,,,,,,,,,,,,,,
,,,,,,,,,,00001597199,2020-10-30_22h03.33.159,swahili,2020.2.4,Win32,60,,,,,,,,,,,,,,,,,,,,,,,,,,,,,,,,,,,,,,,,0,0,0,0,1,,,,,,,,,,,,,,,,,,,,,,,,,,,,,,,,,,,,,,,,,,,,,,,,,,,,,,,,,,
,,,,,,,,,,00001597199,2020-10-30_22h03.33.159,swahili,2020.2.4,Win32,60,,,,,,,,,,,,,,,,,,,,,,,,,,,,,,,,,,,,,,,,1,0,1,0,1,,,,,,,,,,,,,,,,,,,,,,,,,,,,,,,,,,,,,,,,,,,,,,,,,,,,,,,,,,
,,,,,,,,,,00001597199,2020-10-30_22h03.33.159,swahili,2020.2.4,Win32,60,,,,,,,,,,,,,,,,,,,,,,,,,,,,,,,,,,,,,,,,,,,,,,,,,,,,,,,,,,,,,,1,0,1,0,1,,,,,,,,,,,,,,,,,,,,,,,,,,,,,,,,,,,,
,,,,,,,,,,00001597199,2020-10-30_22h03.33.159,swahili,2020.2.4,Win32,60,,,,,,,,,,-0.300146413,-0.046875,1,0,0,1.606695,unsorted_card,0,0,0,0,1,,,,,,,,,,,,,,,,,,,,,,,,,,,,,,,,,,,,,,,,,,,,,,,,,,,,,,,,,,,,,,,,,,,,,,,,,,,,,,,,,
,,,,,,,,,,00001597199,2020-10-30_22h03.33.159,swahili,2020.2.4,Win32,60,,,,,,,,,,0.382137628,-0.078125,1,0,0,2.64284,test_pile,1,0,1,0,1,MERCHANT - TAJIRI,,,,,,,,,,,,,,,,,,,,,,,,,,,,,,,,,,,,,,,,,,,,,,,,,,,,,,,,,,,,,,,,,,,,,,,,,,,,,,,,
,,,,,,,,,,00001597199,2020-10-30_22h03.33.159,swahili,2020.2.4,Win32,60,,,,,,,,,,-0.396778917,-0.036458333,1,0,0,0.48375,unsorted_card,2,0,2,0,1,,,,,,,,,,,,,,,,,,,,,,,,,,,,,,,,,,,,,,,,,,,,,,,,,,,,,,,,,,,,,,,,,,,,,,,,,,,,,,,,,
,,,,,,,,,,00001597199,2020-10-30_22h03.33.159,swahili,2020.2.4,Win32,60,,,,,,,,,,0.40556369,0.033854167,1,0,0,2.3617,test_pile,3,0,3,0,1,PARROT - KASUKU,,,,,,,,,,,,,,,,,,,,,,,,,,,,,,,,,,,,,,,,,,,,,,,,,,,,,,,,,,,,,,,,,,,,,,,,,,,,,,,,
,,,,,,,,,,00001597199,2020-10-30_22h03.33.159,swahili,2020.2.4,Win32,60,,,,,,,,,,-0.326500732,0.013020833,1,0,0,0.41622,unsorted_card,4,0,4,0,1,,,,,,,,,,,,,,,,,,,,,,,,,,,,,,,,,,,,,,,,,,,,,,,,,,,,,,,,,,,,,,,,,,,,,,,,,,,,,,,,,
,,,,,,,,,,00001597199,2020-10-30_22h03.33.159,swahili,2020.2.4,Win32,60,,,,,,,,,,0.487554905,-0.067708333,1,0,0,11.29861,test_pile,5,0,5,0,1,BULL - FAHILI,,,,,,,,,,,,,,,,,,,,,,,,,,,,,,,,,,,,,,,,,,,,,,,,,,,,,,,,,,,,,,,,,,,,,,,,,,,,,,,,
,,,,,,,,,,00001597199,2020-10-30_22h03.33.159,swahili,2020.2.4,Win32,60,,,,,,,,,,-0.288433382,0.080729167,1,0,0,0.48171,unsorted_card,6,0,6,0,1,,,,,,,,,,,,,,,,,,,,,,,,,,,,,,,,,,,,,,,,,,,,,,,,,,,,,,,,,,,,,,,,,,,,,,,,,,,,,,,,,
,,,,,,,,,,00001597199,2020-10-30_22h03.33.159,swahili,2020.2.4,Win32,60,,,,,,,,,,0.453879941,-0.078125,1,0,0,13.061685,test_pile,7,0,7,0,1,PLATE - SAHANI,,,,,,,,,,,,,,,,,,,,,,,,,,,,,,,,,,,,,,,,,,,,,,,,,,,,,,,,,,,,,,,,,,,,,,,,,,,,,,,,
,,,,,,,,,,00001597199,2020-10-30_22h03.33.159,swahili,2020.2.4,Win32,60,,,,,,,,,,-0.306002928,-0.143229167,1,0,0,0.34893,unsorted_card,8,0,8,0,1,,,,,,,,,,,,,,,,,,,,,,,,,,,,,,,,,,,,,,,,,,,,,,,,,,,,,,,,,,,,,,,,,,,,,,,,,,,,,,,,,
,,,,,,,,,,00001597199,2020-10-30_22h03.33.159,swahili,2020.2.4,Win32,60,,,,,,,,,,0.349926794,-0.005208333,1,0,0,2.093535,test_pile,9,0,9,0,1,YEAST - HAMIRA,,,,,,,,,,,,,,,,,,,,,,,,,,,,,,,,,,,,,,,,,,,,,,,,,,,,,,,,,,,,,,,,,,,,,,,,,,,,,,,,
,,,,,,,,,,00001597199,2020-10-30_22h03.33.159,swahili,2020.2.4,Win32,60,,,,,,,,,,-0.346998536,-0.0625,1,0,0,0.334625,unsorted_card,10,0,10,0,1,,,,,,,,,,,,,,,,,,,,,,,,,,,,,,,,,,,,,,,,,,,,,,,,,,,,,,,,,,,,,,,,,,,,,,,,,,,,,,,,,
,,,,,,,,,,00001597199,2020-10-30_22h03.33.159,swahili,2020.2.4,Win32,60,,,,,,,,,,0.371888726,-0.052083333,1,0,0,1.345595,test_pile,11,0,11,0,1,BLAME - LAWAMA,,,,,,,,,,,,,,,,,,,,,,,,,,,,,,,,,,,,,,,,,,,,,,,,,,,,,,,,,,,,,,,,,,,,,,,,,,,,,,,,
,,,,,,,,,,00001597199,2020-10-30_22h03.33.159,swahili,2020.2.4,Win32,60,,,,,,,,,,-0.361639824,-0.2421875,1,0,0,0.29939,unsorted_card,12,0,12,0,1,,,,,,,,,,,,,,,,,,,,,,,,,,,,,,,,,,,,,,,,,,,,,,,,,,,,,,,,,,,,,,,,,,,,,,,,,,,,,,,,,
,,,,,,,,,,00001597199,2020-10-30_22h03.33.159,swahili,2020.2.4,Win32,60,,,,,,,,,,0.469985359,-0.088541667,1,0,0,0.73204,test_pile,13,0,13,0,1,OATH - YAMINI,,,,,,,,,,,,,,,,,,,,,,,,,,,,,,,,,,,,,,,,,,,,,,,,,,,,,,,,,,,,,,,,,,,,,,,,,,,,,,,,
,,,,,,,,,,00001597199,2020-10-30_22h03.33.159,swahili,2020.2.4,Win32,60,,,,,,,,,,-0.314787701,-0.184895833,1,0,0,0.29606,unsorted_card,14,0,14,0,1,,,,,,,,,,,,,,,,,,,,,,,,,,,,,,,,,,,,,,,,,,,,,,,,,,,,,,,,,,,,,,,,,,,,,,,,,,,,,,,,,
,,,,,,,,,,00001597199,2020-10-30_22h03.33.159,swahili,2020.2.4,Win32,60,,,,,,,,,,0.357247438,0.010416667,1,0,0,0.65067,test_pile,15,0,15,0,1,CORN - NAFAKA,,,,,,,,,,,,,,,,,,,,,,,,,,,,,,,,,,,,,,,,,,,,,,,,,,,,,,,,,,,,,,,,,,,,,,,,,,,,,,,,
,,,,,,,,,,00001597199,2020-10-30_22h03.33.159,swahili,2020.2.4,Win32,60,,,,,,,,,,-0.399707174,-0.1328125,1,0,0,0.26515,unsorted_card,16,0,16,0,1,,,,,,,,,,,,,,,,,,,,,,,,,,,,,,,,,,,,,,,,,,,,,,,,,,,,,,,,,,,,,,,,,,,,,,,,,,,,,,,,,
,,,,,,,,,,00001597199,2020-10-30_22h03.33.159,swahili,2020.2.4,Win32,60,,,,,,,,,,0.409956076,-0.088541667,1,0,0,0.63187,test_pile,17,0,17,0,1,POEM - UTENZI,,,,,,,,,,,,,,,,,,,,,,,,,,,,,,,,,,,,,,,,,,,,,,,,,,,,,,,,,,,,,,,,,,,,,,,,,,,,,,,,
,,,,,,,,,,00001597199,2020-10-30_22h03.33.159,swahili,2020.2.4,Win32,60,,,,,,,,,,-0.092240117,0.041666667,1,0,0,0.29853,unsorted_card,18,0,18,0,1,,,,,,,,,,,,,,,,,,,,,,,,,,,,,,,,,,,,,,,,,,,,,,,,,,,,,,,,,,,,,,,,,,,,,,,,,,,,,,,,,
,,,,,,,,,,00001597199,2020-10-30_22h03.33.159,swahili,2020.2.4,Win32,60,,,,,,,,,,0.519765739,-0.020833333,1,0,0,1.31326,test_pile,19,0,19,0,1,TAILOR - MSHONI,,,,,,,,,,,,,,,,,,,,,,,,,,,,,,,,,,,,,,,,,,,,,,,,,,,,,,,,,,,,,,,,,,,,,,,,,,,,,,,,
,,,,,,,,,,00001597199,2020-10-30_22h03.33.159,swahili,2020.2.4,Win32,60,,,,,,,,,,-0.251830161,-0.080729167,1,0,0,0.248945,unsorted_card,20,0,20,0,1,,,,,,,,,,,,,,,,,,,,,,,,,,,,,,,,,,,,,,,,,,,,,,,,,,,,,,,,,,,,,,,,,,,,,,,,,,,,,,,,,
,,,,,,,,,,00001597199,2020-10-30_22h03.33.159,swahili,2020.2.4,Win32,60,,,,,,,,,,0.562225476,0.015625,1,0,0,1.01429,test_pile,21,0,21,0,1,CHEESE - JIBINI,,,,,,,,,,,,,,,,,,,,,,,,,,,,,,,,,,,,,,,,,,,,,,,,,,,,,,,,,,,,,,,,,,,,,,,,,,,,,,,,
,,,,,,,,,,00001597199,2020-10-30_22h03.33.159,swahili,2020.2.4,Win32,60,,,,,,,,,,-0.398243045,0.088541667,1,0,0,0.58184,unsorted_card,22,0,22,0,1,,,,,,,,,,,,,,,,,,,,,,,,,,,,,,,,,,,,,,,,,,,,,,,,,,,,,,,,,,,,,,,,,,,,,,,,,,,,,,,,,
,,,,,,,,,,00001597199,2020-10-30_22h03.33.159,swahili,2020.2.4,Win32,60,,,,,,,,,,0.45534407,-0.03125,1,0,0,0.61501,test_pile,23,0,23,0,1,GRAPES - ZABIBU,,,,,,,,,,,,,,,,,,,,,,,,,,,,,,,,,,,,,,,,,,,,,,,,,,,,,,,,,,,,,,,,,,,,,,,,,,,,,,,,
,,,,,,,,,,00001597199,2020-10-30_22h03.33.159,swahili,2020.2.4,Win32,60,,,,,,,,,,-0.532942899,-0.130208333,1,0,0,0.31483,unsorted_card,24,0,24,0,1,,,,,,,,,,,,,,,,,,,,,,,,,,,,,,,,,,,,,,,,,,,,,,,,,,,,,,,,,,,,,,,,,,,,,,,,,,,,,,,,,
,,,,,,,,,,00001597199,2020-10-30_22h03.33.159,swahili,2020.2.4,Win32,60,,,,,,,,,,0.383601757,-0.020833333,1,0,0,0.68167,test_pile,25,0,25,0,1,GRAVE - KABURI,,,,,,,,,,,,,,,,,,,,,,,,,,,,,,,,,,,,,,,,,,,,,,,,,,,,,,,,,,,,,,,,,,,,,,,,,,,,,,,,
,,,,,,,,,,00001597199,2020-10-30_22h03.33.159,swahili,2020.2.4,Win32,60,,,,,,,,,,-0.234260615,-0.1015625,1,0,0,0.315645,unsorted_card,26,0,26,0,1,,,,,,,,,,,,,,,,,,,,,,,,,,,,,,,,,,,,,,,,,,,,,,,,,,,,,,,,,,,,,,,,,,,,,,,,,,,,,,,,,
,,,,,,,,,,00001597199,2020-10-30_22h03.33.159,swahili,2020.2.4,Win32,60,,,,,,,,,,0.376281113,0.0390625,1,0,0,0.763905,test_pile,27,0,27,0,1,MANURE - SAMADI,,,,,,,,,,,,,,,,,,,,,,,,,,,,,,,,,,,,,,,,,,,,,,,,,,,,,,,,,,,,,,,,,,,,,,,,,,,,,,,,
,,,,,,,,,,00001597199,2020-10-30_22h03.33.159,swahili,2020.2.4,Win32,60,,,,,,,,,,-0.358711567,-0.098958333,1,0,0,0.315295,unsorted_card,28,0,28,0,1,,,,,,,,,,,,,,,,,,,,,,,,,,,,,,,,,,,,,,,,,,,,,,,,,,,,,,,,,,,,,,,,,,,,,,,,,,,,,,,,,
,,,,,,,,,,00001597199,2020-10-30_22h03.33.159,swahili,2020.2.4,Win32,60,,,,,,,,,,0.478770132,-0.0546875,1,0,0,0.763465,test_pile,29,0,29,0,1,AGENT - WAKILI,,,,,,,,,,,,,,,,,,,,,,,,,,,,,,,,,,,,,,,,,,,,,,,,,,,,,,,,,,,,,,,,,,,,,,,,,,,,,,,,
,,,,,,,,,,00001597199,2020-10-30_22h03.33.159,swahili,2020.2.4,Win32,60,,,,,,,,,,-0.336749634,-0.169270833,1,0,0,0.29888,unsorted_card,30,0,30,0,1,,,,,,,,,,,,,,,,,,,,,,,,,,,,,,,,,,,,,,,,,,,,,,,,,,,,,,,,,,,,,,,,,,,,,,,,,,,,,,,,,
,,,,,,,,,,00001597199,2020-10-30_22h03.33.159,swahili,2020.2.4,Win32,60,,,,,,,,,,0.43045388,-0.0390625,1,0,0,0.714865,test_pile,31,0,31,0,1,BRIBE - RUSHWA,,,,,,,,,,,,,,,,,,,,,,,,,,,,,,,,,,,,,,,,,,,,,,,,,,,,,,,,,,,,,,,,,,,,,,,,,,,,,,,,
,,,,,,,,,,00001597199,2020-10-30_22h03.33.159,swahili,2020.2.4,Win32,60,,,,,,,,,,-0.349926794,-0.088541667,1,0,0,0.329995,unsorted_card,32,0,32,0,1,,,,,,,,,,,,,,,,,,,,,,,,,,,,,,,,,,,,,,,,,,,,,,,,,,,,,,,,,,,,,,,,,,,,,,,,,,,,,,,,,
,,,,,,,,,,00001597199,2020-10-30_22h03.33.159,swahili,2020.2.4,Win32,60,,,,,,,,,,0.390922401,-0.044270833,1,0,0,0.633965,test_pile,33,0,33,0,1,ORPHAN - YATIMA,,,,,,,,,,,,,,,,,,,,,,,,,,,,,,,,,,,,,,,,,,,,,,,,,,,,,,,,,,,,,,,,,,,,,,,,,,,,,,,,
,,,,,,,,,,00001597199,2020-10-30_22h03.33.159,swahili,2020.2.4,Win32,60,,,,,,,,,,-0.446559297,0,1,0,0,0.69756,unsorted_card,34,0,34,0,1,,,,,,,,,,,,,,,,,,,,,,,,,,,,,,,,,,,,,,,,,,,,,,,,,,,,,,,,,,,,,,,,,,,,,,,,,,,,,,,,,
,,,,,,,,,,00001597199,2020-10-30_22h03.33.159,swahili,2020.2.4,Win32,60,,,,,,,,,,0.371888726,0.005208333,1,0,0,0.64906,test_pile,35,0,35,0,1,DIVORCE - TALAKA,,,,,,,,,,,,,,,,,,,,,,,,,,,,,,,,,,,,,,,,,,,,,,,,,,,,,,,,,,,,,,,,,,,,,,,,,,,,,,,,
,,,,,,,,,,00001597199,2020-10-30_22h03.33.159,swahili,2020.2.4,Win32,60,,,,,,,,,,-0.436310395,-0.0390625,1,0,0,0.281755,unsorted_card,36,0,36,0,1,,,,,,,,,,,,,,,,,,,,,,,,,,,,,,,,,,,,,,,,,,,,,,,,,,,,,,,,,,,,,,,,,,,,,,,,,,,,,,,,,
,,,,,,,,,,00001597199,2020-10-30_22h03.33.159,swahili,2020.2.4,Win32,60,,,,,,,,,,0.541727672,-0.091145833,1,0,0,0.59637,test_pile,37,0,37,0,1,BOAT - MASHUA,,,,,,,,,,,,,,,,,,,,,,,,,,,,,,,,,,,,,,,,,,,,,,,,,,,,,,,,,,,,,,,,,,,,,,,,,,,,,,,,
,,,,,,,,,,00001597199,2020-10-30_22h03.33.159,swahili,2020.2.4,Win32,60,,,,,,,,,,-0.366032211,0.03125,1,0,0,0.36726,unsorted_card,38,0,38,0,1,,,,,,,,,,,,,,,,,,,,,,,,,,,,,,,,,,,,,,,,,,,,,,,,,,,,,,,,,,,,,,,,,,,,,,,,,,,,,,,,,
,,,,,,,,,,00001597199,2020-10-30_22h03.33.159,swahili,2020.2.4,Win32,60,,,,,,,,,,0.424597365,0.020833333,1,0,0,0.498725,test_pile,39,0,39,0,1,TREASURE - DAFINA,,,,,,,,,,,,,,,,,,,,,,,,,,,,,,,,,,,,,,,,,,,,,,,,,,,,,,,,,,,,,,,,,,,,,,,,,,,,,,,,
,,,,,,,,,,00001597199,2020-10-30_22h03.33.159,swahili,2020.2.4,Win32,60,,,,,,,,,,,,,,,,,,,,,,,,,,,,,,,,,,0,0,0,0,1,,,,,,,,,,,,,,,,,,,,,,,,,,,,,,,,,,,,,,,,,,,,,,,,,,,,,,,,,,,,,,,,
,,,,,,,,,,00001597199,2020-10-30_22h03.33.159,swahili,2020.2.4,Win32,60,,,,,,,,,,,,,,,,,,,,,,,,,,,,,,,,,,,,,,,return,,,,,,1.249075,1.993325,0.502196193,0.028645833,1,0,0,0.95134,yes,BOAT,MASHUA,incorrect,0,0,0,0,1,,,,,,,,,,,,,,,,,,,,,,,,,,,,,,,,,,,,,,,,,
,,,,,,,,,,00001597199,2020-10-30_22h03.33.159,swahili,2020.2.4,Win32,60,,,,,,,,,,,,,,,,,,,,,,,,,,,,,,,,,,,,,,,,,,,,,,22.59671,0.654465593,-0.0546875,1,0,0,1.24865,yes,PLATE,SARANI,incorrect,1,0,1,0,1,,,,,,,,,,,,,,,,,,,,,,,,,,,,,,,,,,,,,,,,,
,,,,,,,,,,00001597199,2020-10-30_22h03.33.159,swahili,2020.2.4,Win32,60,,,,,,,,,,,,,,,,,,,,,,,,,,,,,,,,,,,,,,,,,,,,,,2.66306,0.453879941,-0.020833333,1,0,0,0.96494,yes,TREASURE,DAFINA,incorrect,2,0,2,0,1,,,,,,,,,,,,,,,,,,,,,,,,,,,,,,,,,,,,,,,,,
,,,,,,,,,,00001597199,2020-10-30_22h03.33.159,swahili,2020.2.4,Win32,60,,,,,,,,,,,,,,,,,,,,,,,,,,,,,,,,,,,,,,,,,,,,,,5.6071,0.436310395,-0.028645833,1,0,0,1.14848,yes,BULL,FAHILI,incorrect,3,0,3,0,1,,,,,,,,,,,,,,,,,,,,,,,,,,,,,,,,,,,,,,,,,
,,,,,,,,,,00001597199,2020-10-30_22h03.33.159,swahili,2020.2.4,Win32,60,,,,,,,,,,,,,,,,,,,,,,,,,,,,,,,,,,,,,,,,,,,,,,3.11039,0.355783309,-0.255208333,1,0,0,1.03183,yes,MERCHANT,TAJIRI,incorrect,4,0,4,0,1,,,,,,,,,,,,,,,,,,,,,,,,,,,,,,,,,,,,,,,,,
,,,,,,,,,,00001597199,2020-10-30_22h03.33.159,swahili,2020.2.4,Win32,60,,,,,,,,,,,,,,,,,,,,,,,,,,,,,,,,,,,,,,,,,,,,,,7.95248,0.409956076,-0.078125,1,0,0,1.168205,yes,GRAPES,ZABIBU,incorrect,5,0,5,0,1,,,,,,,,,,,,,,,,,,,,,,,,,,,,,,,,,,,,,,,,,
,,,,,,,,,,00001597199,2020-10-30_22h03.33.159,swahili,2020.2.4,Win32,60,,,,,,,,,,,,,,,,,,,,,,,,,,,,,,,,,,,,,,,,,,,,,,3.010405,0.289897511,-0.158854167,1,0,0,1.167105,yes,CORN,NAFAKA,incorrect,6,0,6,0,1,,,,,,,,,,,,,,,,,,,,,,,,,,,,,,,,,,,,,,,,,
,,,,,,,,,,00001597199,2020-10-30_22h03.33.159,swahili,2020.2.4,Win32,60,,,,,,,,,,,,,,,,,,,,,,,,,,,,,,,,,,,,,,,,,,,,,,2.66161,0.626647145,0.130208333,1,0,0,1.13346,yes,AGENT,WAKILI,incorrect,7,0,7,0,1,,,,,,,,,,,,,,,,,,,,,,,,,,,,,,,,,,,,,,,,,
,,,,,,,,,,00001597199,2020-10-30_22h03.33.159,swahili,2020.2.4,Win32,60,,,,,,,,,,,,,,,,,,,,,,,,,,,,,,,,,,,,,,,,,,,,,,2.830875,0.613469985,-0.044270833,1,0,0,0.93109,yes,POEM,UTENZI,incorrect,8,0,8,0,1,,,,,,,,,,,,,,,,,,,,,,,,,,,,,,,,,,,,,,,,,
,,,,,,,,,,00001597199,2020-10-30_22h03.33.159,swahili,2020.2.4,Win32,60,,,,,,,,,,,,,,,,,,,,,,,,,,,,,,,,,,,,,,,,,,,,,,3.958435,0.345534407,-0.0703125,1,0,0,1.19747,yes,TAILOR,MSHONI,incorrect,9,0,9,0,1,,,,,,,,,,,,,,,,,,,,,,,,,,,,,,,,,,,,,,,,,
,,,,,,,,,,00001597199,2020-10-30_22h03.33.159,swahili,2020.2.4,Win32,60,,,,,,,,,,,,,,,,,,,,,,,,,,,,,,,,,,,,,,,,,,,,,,8.6851,0.513909224,0.0078125,1,0,0,1.13389,yes,PARROT,KOSOKU,incorrect,10,0,10,0,1,,,,,,,,,,,,,,,,,,,,,,,,,,,,,,,,,,,,,,,,,
,,,,,,,,,,00001597199,2020-10-30_22h03.33.159,swahili,2020.2.4,Win32,60,,,,,,,,,,,,,,,,,,,,,,,,,,,,,,,,,,,,,,,,,,,,,,8.31799,0.537335286,-0.109375,1,0,0,1.0838,yes,BRIBE,RUSHWA,incorrect,11,0,11,0,1,,,,,,,,,,,,,,,,,,,,,,,,,,,,,,,,,,,,,,,,,
,,,,,,,,,,00001597199,2020-10-30_22h03.33.159,swahili,2020.2.4,Win32,60,,,,,,,,,,,,,,,,,,,,,,,,,,,,,,,,,,,,,,,,,,,,,,1.895795,0.686676428,0.216145833,1,0,0,0.95039,yes,YEAST,HAMIRA,incorrect,12,0,12,0,1,,,,,,,,,,,,,,,,,,,,,,,,,,,,,,,,,,,,,,,,,
,,,,,,,,,,00001597199,2020-10-30_22h03.33.159,swahili,2020.2.4,Win32,60,,,,,,,,,,,,,,,,,,,,,,,,,,,,,,,,,,,,,,,,,,,,,,1.89782,0.524158126,-0.026041667,1,0,0,0.99919,yes,OATH,YAMINI,incorrect,13,0,13,0,1,,,,,,,,,,,,,,,,,,,,,,,,,,,,,,,,,,,,,,,,,
,,,,,,,,,,00001597199,2020-10-30_22h03.33.159,swahili,2020.2.4,Win32,60,,,,,,,,,,,,,,,,,,,,,,,,,,,,,,,,,,,,,,,,,,,,,,2.626075,0.216691069,-0.075520833,1,0,0,0.98456,yes,GRAVE,KABURI,incorrect,14,0,14,0,1,,,,,,,,,,,,,,,,,,,,,,,,,,,,,,,,,,,,,,,,,
,,,,,,,,,,00001597199,2020-10-30_22h03.33.159,swahili,2020.2.4,Win32,60,,,,,,,,,,,,,,,,,,,,,,,,,,,,,,,,,,,,,,,,,,,,,,2.995115,0.503660322,-0.033854167,1,0,0,0.948445,yes,ORPHAN,YATIMA,incorrect,15,0,15,0,1,,,,,,,,,,,,,,,,,,,,,,,,,,,,,,,,,,,,,,,,,
,,,,,,,,,,00001597199,2020-10-30_22h03.33.159,swahili,2020.2.4,Win32,60,,,,,,,,,,,,,,,,,,,,,,,,,,,,,,,,,,,,,,,,,,,,,,2.479405,0.304538799,-0.192708333,1,0,0,1.116975,yes,MANURE,SAMADI,incorrect,16,0,16,0,1,,,,,,,,,,,,,,,,,,,,,,,,,,,,,,,,,,,,,,,,,
,,,,,,,,,,00001597199,2020-10-30_22h03.33.159,swahili,2020.2.4,Win32,60,,,,,,,,,,,,,,,,,,,,,,,,,,,,,,,,,,,,,,,,,,,,,,5.490215,0.592972182,-0.0234375,1,0,0,1.016075,yes,CHEESE,JIBINI,incorrect,17,0,17,0,1,,,,,,,,,,,,,,,,,,,,,,,,,,,,,,,,,,,,,,,,,
,,,,,,,,,,00001597199,2020-10-30_22h03.33.159,swahili,2020.2.4,Win32,60,,,,,,,,,,,,,,,,,,,,,,,,,,,,,,,,,,,,,,,,,,,,,,4.84154,0.491947291,-0.135416667,1,0,0,0.96753,yes,DIVORCE,TALAKA,incorrect,18,0,18,0,1,,,,,,,,,,,,,,,,,,,,,,,,,,,,,,,,,,,,,,,,,
,,,,,,,,,,00001597199,2020-10-30_22h03.33.159,swahili,2020.2.4,Win32,60,,,,,,,,,,,,,,,,,,,,,,,,,,,,,,,,,,,,,,,,,,,,,,5.790865,0.389458272,-0.190104167,1,0,0,1.380325,yes,BLAME,HAWAMA,incorrect,19,0,19,0,1,,,,,,,,,,,,,,,,,,,,,,,,,,,,,,,,,,,,,,,,,
,,,,,,,,,,00001597199,2020-10-30_22h03.33.159,swahili,2020.2.4,Win32,60,,,,,,,,,,,,,,,,,,,,,,,,,,,,,,,,,,,,,,,,0,0,0,0,1,,,,,,,,,,,,,,,,,,,,,,,,,,,,,,,,,,,,,,,,,,,,,,,,,,,,,,,,,,
,,,,,,,,,,00001597199,2020-10-30_22h03.33.159,swahili,2020.2.4,Win32,60,,,,,,,,,,,,,,,,,,,,,,,,,,,,,,,,,,,,,,,,1,0,1,0,1,,,,,,,,,,,,,,,,,,,,,,,,,,,,,,,,,,,,,,,,,,,,,,,,,,,,,,,,,,
,,,,,,,,,,00001597199,2020-10-30_22h03.33.159,swahili,2020.2.4,Win32,60,,,,,,,,,,,,,,,,,,,,,,,,,,,,,,,,,,,,,,,,,,,,,,,,,,,,,,,,,,,,,,2,0,2,0,1,,,,,,,,,,,,,,,,,,,,,,,,,,,,,,,,,,,,
,,,,,,,,,,00001597199,2020-10-30_22h03.33.159,swahili,2020.2.4,Win32,60,,,,,,,,,,-0.150805271,-0.075520833,1,0,0,1.2212,unsorted_card,0,0,0,0,1,,,,,,,,,,,,,,,,,,,,,,,,,,,,,,,,,,,,,,,,,,,,,,,,,,,,,,,,,,,,,,,,,,,,,,,,,,,,,,,,,
,,,,,,,,,,00001597199,2020-10-30_22h03.33.159,swahili,2020.2.4,Win32,60,,,,,,,,,,0.590043924,-0.536458333,1,0,0,1.313615,done_pile,1,0,1,0,1,MERCHANT - TAJIRI,,,,,,,,,,,,,,,,,,,,,,,,,,,,,,,,,,,,,,,,,,,,,,,,,,,,,,,,,,,,,,,,,,,,,,,,,,,,,,,,
,,,,,,,,,,00001597199,2020-10-30_22h03.33.159,swahili,2020.2.4,Win32,60,,,,,,,,,,-0.265007321,-0.03125,1,0,0,0.433845,unsorted_card,2,0,2,0,1,,,,,,,,,,,,,,,,,,,,,,,,,,,,,,,,,,,,,,,,,,,,,,,,,,,,,,,,,,,,,,,,,,,,,,,,,,,,,,,,,
,,,,,,,,,,00001597199,2020-10-30_22h03.33.159,swahili,2020.2.4,Win32,60,,,,,,,,,,0.445095168,-0.0390625,1,0,0,1.69791,test_pile,3,0,3,0,1,PARROT - KASUKU,,,,,,,,,,,,,,,,,,,,,,,,,,,,,,,,,,,,,,,,,,,,,,,,,,,,,,,,,,,,,,,,,,,,,,,,,,,,,,,,
,,,,,,,,,,00001597199,2020-10-30_22h03.33.159,swahili,2020.2.4,Win32,60,,,,,,,,,,-0.266471449,-0.049479167,1,0,0,0.314415,unsorted_card,4,0,4,0,1,,,,,,,,,,,,,,,,,,,,,,,,,,,,,,,,,,,,,,,,,,,,,,,,,,,,,,,,,,,,,,,,,,,,,,,,,,,,,,,,,
,,,,,,,,,,00001597199,2020-10-30_22h03.33.159,swahili,2020.2.4,Win32,60,,,,,,,,,,0.472913616,-0.109375,1,0,0,1.165185,test_pile,5,0,5,0,1,BULL - FAHILI,,,,,,,,,,,,,,,,,,,,,,,,,,,,,,,,,,,,,,,,,,,,,,,,,,,,,,,,,,,,,,,,,,,,,,,,,,,,,,,,
,,,,,,,,,,00001597199,2020-10-30_22h03.33.159,swahili,2020.2.4,Win32,60,,,,,,,,,,-0.232796486,-0.083333333,1,0,0,0.33098,unsorted_card,6,0,6,0,1,,,,,,,,,,,,,,,,,,,,,,,,,,,,,,,,,,,,,,,,,,,,,,,,,,,,,,,,,,,,,,,,,,,,,,,,,,,,,,,,,
,,,,,,,,,,00001597199,2020-10-30_22h03.33.159,swahili,2020.2.4,Win32,60,,,,,,,,,,0.472913616,0.09375,1,0,0,1.031435,test_pile,7,0,7,0,1,PLATE - SAHANI,,,,,,,,,,,,,,,,,,,,,,,,,,,,,,,,,,,,,,,,,,,,,,,,,,,,,,,,,,,,,,,,,,,,,,,,,,,,,,,,
,,,,,,,,,,00001597199,2020-10-30_22h03.33.159,swahili,2020.2.4,Win32,60,,,,,,,,,,-0.263543192,-0.072916667,1,0,0,0.34799,unsorted_card,8,0,8,0,1,,,,,,,,,,,,,,,,,,,,,,,,,,,,,,,,,,,,,,,,,,,,,,,,,,,,,,,,,,,,,,,,,,,,,,,,,,,,,,,,,
,,,,,,,,,,00001597199,2020-10-30_22h03.33.159,swahili,2020.2.4,Win32,60,,,,,,,,,,0.408491947,-0.5,1,0,0,1.13081,done_pile,9,0,9,0,1,YEAST - HAMIRA,,,,,,,,,,,,,,,,,,,,,,,,,,,,,,,,,,,,,,,,,,,,,,,,,,,,,,,,,,,,,,,,,,,,,,,,,,,,,,,,
,,,,,,,,,,00001597199,2020-10-30_22h03.33.159,swahili,2020.2.4,Win32,60,,,,,,,,,,-0.311859444,-0.177083333,1,0,0,0.348965,unsorted_card,10,0,10,0,1,,,,,,,,,,,,,,,,,,,,,,,,,,,,,,,,,,,,,,,,,,,,,,,,,,,,,,,,,,,,,,,,,,,,,,,,,,,,,,,,,
,,,,,,,,,,00001597199,2020-10-30_22h03.33.159,swahili,2020.2.4,Win32,60,,,,,,,,,,0.387994143,0.013020833,1,0,0,1.380675,test_pile,11,0,11,0,1,BLAME - LAWAMA,,,,,,,,,,,,,,,,,,,,,,,,,,,,,,,,,,,,,,,,,,,,,,,,,,,,,,,,,,,,,,,,,,,,,,,,,,,,,,,,
,,,,,,,,,,00001597199,2020-10-30_22h03.33.159,swahili,2020.2.4,Win32,60,,,,,,,,,,-0.194729136,-0.057291667,1,0,0,0.28249,unsorted_card,12,0,12,0,1,,,,,,,,,,,,,,,,,,,,,,,,,,,,,,,,,,,,,,,,,,,,,,,,,,,,,,,,,,,,,,,,,,,,,,,,,,,,,,,,,
,,,,,,,,,,00001597199,2020-10-30_22h03.33.159,swahili,2020.2.4,Win32,60,,,,,,,,,,0.456808199,-0.505208333,1,0,0,1.546395,done_pile,13,0,13,0,1,OATH - YAMINI,,,,,,,,,,,,,,,,,,,,,,,,,,,,,,,,,,,,,,,,,,,,,,,,,,,,,,,,,,,,,,,,,,,,,,,,,,,,,,,,
,,,,,,,,,,00001597199,2020-10-30_22h03.33.159,swahili,2020.2.4,Win32,60,,,,,,,,,,-0.222547584,0.03125,1,0,0,0.46495,unsorted_card,14,0,14,0,1,,,,,,,,,,,,,,,,,,,,,,,,,,,,,,,,,,,,,,,,,,,,,,,,,,,,,,,,,,,,,,,,,,,,,,,,,,,,,,,,,
,,,,,,,,,,00001597199,2020-10-30_22h03.33.159,swahili,2020.2.4,Win32,60,,,,,,,,,,0.415812592,-0.458333333,1,0,0,2.24591,done_pile,15,0,15,0,1,CORN - NAFAKA,,,,,,,,,,,,,,,,,,,,,,,,,,,,,,,,,,,,,,,,,,,,,,,,,,,,,,,,,,,,,,,,,,,,,,,,,,,,,,,,
,,,,,,,,,,00001597199,2020-10-30_22h03.33.159,swahili,2020.2.4,Win32,60,,,,,,,,,,-0.298682284,-0.067708333,1,0,0,0.365725,unsorted_card,16,0,16,0,1,,,,,,,,,,,,,,,,,,,,,,,,,,,,,,,,,,,,,,,,,,,,,,,,,,,,,,,,,,,,,,,,,,,,,,,,,,,,,,,,,
,,,,,,,,,,00001597199,2020-10-30_22h03.33.159,swahili,2020.2.4,Win32,60,,,,,,,,,,0.437774524,-0.484375,1,0,0,0.83161,done_pile,17,0,17,0,1,POEM - UTENZI,,,,,,,,,,,,,,,,,,,,,,,,,,,,,,,,,,,,,,,,,,,,,,,,,,,,,,,,,,,,,,,,,,,,,,,,,,,,,,,,
,,,,,,,,,,00001597199,2020-10-30_22h03.33.159,swahili,2020.2.4,Win32,60,,,,,,,,,,-0.590043924,-0.0390625,1,0,0,0.382035,unsorted_card,18,0,18,0,1,,,,,,,,,,,,,,,,,,,,,,,,,,,,,,,,,,,,,,,,,,,,,,,,,,,,,,,,,,,,,,,,,,,,,,,,,,,,,,,,,
,,,,,,,,,,00001597199,2020-10-30_22h03.33.159,swahili,2020.2.4,Win32,60,,,,,,,,,,0.427525622,-0.434895833,1,0,0,1.277795,done_pile,19,0,19,0,1,TAILOR - MSHONI,,,,,,,,,,,,,,,,,,,,,,,,,,,,,,,,,,,,,,,,,,,,,,,,,,,,,,,,,,,,,,,,,,,,,,,,,,,,,,,,
,,,,,,,,,,00001597199,2020-10-30_22h03.33.159,swahili,2020.2.4,Win32,60,,,,,,,,,,-0.370424597,0.09375,1,0,0,0.31749,unsorted_card,20,0,20,0,1,,,,,,,,,,,,,,,,,,,,,,,,,,,,,,,,,,,,,,,,,,,,,,,,,,,,,,,,,,,,,,,,,,,,,,,,,,,,,,,,,
,,,,,,,,,,00001597199,2020-10-30_22h03.33.159,swahili,2020.2.4,Win32,60,,,,,,,,,,0.439238653,-0.036458333,1,0,0,1.047725,test_pile,21,0,21,0,1,CHEESE - JIBINI,,,,,,,,,,,,,,,,,,,,,,,,,,,,,,,,,,,,,,,,,,,,,,,,,,,,,,,,,,,,,,,,,,,,,,,,,,,,,,,,
,,,,,,,,,,00001597199,2020-10-30_22h03.33.159,swahili,2020.2.4,Win32,60,,,,,,,,,,-0.434846266,-0.171875,1,0,0,0.298815,unsorted_card,22,0,22,0,1,,,,,,,,,,,,,,,,,,,,,,,,,,,,,,,,,,,,,,,,,,,,,,,,,,,,,,,,,,,,,,,,,,,,,,,,,,,,,,,,,
,,,,,,,,,,00001597199,2020-10-30_22h03.33.159,swahili,2020.2.4,Win32,60,,,,,,,,,,0.439238653,-0.080729167,1,0,0,1.246745,test_pile,23,0,23,0,1,GRAPES - ZABIBU,,,,,,,,,,,,,,,,,,,,,,,,,,,,,,,,,,,,,,,,,,,,,,,,,,,,,,,,,,,,,,,,,,,,,,,,,,,,,,,,
,,,,,,,,,,00001597199,2020-10-30_22h03.33.159,swahili,2020.2.4,Win32,60,,,,,,,,,,-0.31625183,-0.03125,1,0,0,0.332055,unsorted_card,24,0,24,0,1,,,,,,,,,,,,,,,,,,,,,,,,,,,,,,,,,,,,,,,,,,,,,,,,,,,,,,,,,,,,,,,,,,,,,,,,,,,,,,,,,
,,,,,,,,,,00001597199,2020-10-30_22h03.33.159,swahili,2020.2.4,Win32,60,,,,,,,,,,0.424597365,-0.541666667,1,0,0,1.71384,done_pile,25,0,25,0,1,GRAVE - KABURI,,,,,,,,,,,,,,,,,,,,,,,,,,,,,,,,,,,,,,,,,,,,,,,,,,,,,,,,,,,,,,,,,,,,,,,,,,,,,,,,
,,,,,,,,,,00001597199,2020-10-30_22h03.33.159,swahili,2020.2.4,Win32,60,,,,,,,,,,-0.338213763,-0.075520833,1,0,0,0.29909,unsorted_card,26,0,26,0,1,,,,,,,,,,,,,,,,,,,,,,,,,,,,,,,,,,,,,,,,,,,,,,,,,,,,,,,,,,,,,,,,,,,,,,,,,,,,,,,,,
,,,,,,,,,,00001597199,2020-10-30_22h03.33.159,swahili,2020.2.4,Win32,60,,,,,,,,,,0.336749634,-0.4921875,1,0,0,0.881095,done_pile,27,0,27,0,1,MANURE - SAMADI,,,,,,,,,,,,,,,,,,,,,,,,,,,,,,,,,,,,,,,,,,,,,,,,,,,,,,,,,,,,,,,,,,,,,,,,,,,,,,,,
,,,,,,,,,,00001597199,2020-10-30_22h03.33.159,swahili,2020.2.4,Win32,60,,,,,,,,,,-0.386530015,-0.041666667,1,0,0,0.448215,unsorted_card,28,0,28,0,1,,,,,,,,,,,,,,,,,,,,,,,,,,,,,,,,,,,,,,,,,,,,,,,,,,,,,,,,,,,,,,,,,,,,,,,,,,,,,,,,,
,,,,,,,,,,00001597199,2020-10-30_22h03.33.159,swahili,2020.2.4,Win32,60,,,,,,,,,,0.382137628,-0.505208333,1,0,0,0.83148,done_pile,29,0,29,0,1,AGENT - WAKILI,,,,,,,,,,,,,,,,,,,,,,,,,,,,,,,,,,,,,,,,,,,,,,,,,,,,,,,,,,,,,,,,,,,,,,,,,,,,,,,,
,,,,,,,,,,00001597199,2020-10-30_22h03.33.159,swahili,2020.2.4,Win32,60,,,,,,,,,,-0.380673499,-0.161458333,1,0,0,0.316105,unsorted_card,30,0,30,0,1,,,,,,,,,,,,,,,,,,,,,,,,,,,,,,,,,,,,,,,,,,,,,,,,,,,,,,,,,,,,,,,,,,,,,,,,,,,,,,,,,
,,,,,,,,,,00001597199,2020-10-30_22h03.33.159,swahili,2020.2.4,Win32,60,,,,,,,,,,0.415812592,-0.46875,1,0,0,0.978585,done_pile,31,0,31,0,1,BRIBE - RUSHWA,,,,,,,,,,,,,,,,,,,,,,,,,,,,,,,,,,,,,,,,,,,,,,,,,,,,,,,,,,,,,,,,,,,,,,,,,,,,,,,,
,,,,,,,,,,00001597199,2020-10-30_22h03.33.159,swahili,2020.2.4,Win32,60,,,,,,,,,,-0.411420205,-0.171875,1,0,0,0.333795,unsorted_card,32,0,32,0,1,,,,,,,,,,,,,,,,,,,,,,,,,,,,,,,,,,,,,,,,,,,,,,,,,,,,,,,,,,,,,,,,,,,,,,,,,,,,,,,,,
,,,,,,,,,,00001597199,2020-10-30_22h03.33.159,swahili,2020.2.4,Win32,60,,,,,,,,,,0.414348463,-0.546875,1,0,0,1.11412,done_pile,33,0,33,0,1,ORPHAN - YATIMA,,,,,,,,,,,,,,,,,,,,,,,,,,,,,,,,,,,,,,,,,,,,,,,,,,,,,,,,,,,,,,,,,,,,,,,,,,,,,,,,
,,,,,,,,,,00001597199,2020-10-30_22h03.33.159,swahili,2020.2.4,Win32,60,,,,,,,,,,-0.310395315,-0.072916667,1,0,0,0.331915,unsorted_card,34,0,34,0,1,,,,,,,,,,,,,,,,,,,,,,,,,,,,,,,,,,,,,,,,,,,,,,,,,,,,,,,,,,,,,,,,,,,,,,,,,,,,,,,,,
,,,,,,,,,,00001597199,2020-10-30_22h03.33.159,swahili,2020.2.4,Win32,60,,,,,,,,,,0.496339678,-0.466145833,1,0,0,1.04652,done_pile,35,0,35,0,1,DIVORCE - TALAKA,,,,,,,,,,,,,,,,,,,,,,,,,,,,,,,,,,,,,,,,,,,,,,,,,,,,,,,,,,,,,,,,,,,,,,,,,,,,,,,,
,,,,,,,,,,00001597199,2020-10-30_22h03.33.159,swahili,2020.2.4,Win32,60,,,,,,,,,,-0.349926794,-0.1484375,1,0,0,0.382935,unsorted_card,36,0,36,0,1,,,,,,,,,,,,,,,,,,,,,,,,,,,,,,,,,,,,,,,,,,,,,,,,,,,,,,,,,,,,,,,,,,,,,,,,,,,,,,,,,
,,,,,,,,,,00001597199,2020-10-30_22h03.33.159,swahili,2020.2.4,Win32,60,,,,,,,,,,0.411420205,-0.541666667,1,0,0,1.08143,done_pile,37,0,37,0,1,BOAT - MASHUA,,,,,,,,,,,,,,,,,,,,,,,,,,,,,,,,,,,,,,,,,,,,,,,,,,,,,,,,,,,,,,,,,,,,,,,,,,,,,,,,
,,,,,,,,,,00001597199,2020-10-30_22h03.33.159,swahili,2020.2.4,Win32,60,,,,,,,,,,-0.448023426,-0.1171875,1,0,0,0.41645,unsorted_card,38,0,38,0,1,,,,,,,,,,,,,,,,,,,,,,,,,,,,,,,,,,,,,,,,,,,,,,,,,,,,,,,,,,,,,,,,,,,,,,,,,,,,,,,,,
,,,,,,,,,,00001597199,2020-10-30_22h03.33.159,swahili,2020.2.4,Win32,60,,,,,,,,,,0.360175695,0.03125,1,0,0,1.74537,test_pile,39,0,39,0,1,TREASURE - DAFINA,,,,,,,,,,,,,,,,,,,,,,,,,,,,,,,,,,,,,,,,,,,,,,,,,,,,,,,,,,,,,,,,,,,,,,,,,,,,,,,,
,,,,,,,,,,00001597199,2020-10-30_22h03.33.159,swahili,2020.2.4,Win32,60,,,,,,,,,,,,,,,,,,,,,,,,,,,,,,,,,,0,0,0,0,1,,,,,,,,,,,,,,,,,,,,,,,,,,,,,,,,,,,,,,,,,,,,,,,,,,,,,,,,,,,,,,,,
,,,,,,,,,,00001597199,2020-10-30_22h03.33.159,swahili,2020.2.4,Win32,60,,,,,,,,,,,,,,,,,,,,,,,,,,,,,,,,,,,,,,,return,,,,,,1.91443,3.509585,0.395314788,0.005208333,1,0,0,1.89467,yes,PLATE,SAHIRA,incorrect,0,0,0,0,1,,,,,,,,,,,,,,,,,,,,,,,,,,,,,,,,,,,,,,,,,
,,,,,,,,,,00001597199,2020-10-30_22h03.33.159,swahili,2020.2.4,Win32,60,,,,,,,,,,,,,,,,,,,,,,,,,,,,,,,,,,,,,,,,,,,,,,5.30973,0.376281113,-0.096354167,1,0,0,1.32862,yes,BULL,FAHILI,incorrect,1,0,1,0,1,,,,,,,,,,,,,,,,,,,,,,,,,,,,,,,,,,,,,,,,,
,,,,,,,,,,00001597199,2020-10-30_22h03.33.159,swahili,2020.2.4,Win32,60,,,,,,,,,,,,,,,,,,,,,,,,,,,,,,,,,,,,,,,,,,,,,,2.410125,0.243045388,-0.111979167,1,0,0,1.03352,yes,TREASURE,DAFINA,incorrect,2,0,2,0,1,,,,,,,,,,,,,,,,,,,,,,,,,,,,,,,,,,,,,,,,,
,,,,,,,,,,00001597199,2020-10-30_22h03.33.159,swahili,2020.2.4,Win32,60,,,,,,,,,,,,,,,,,,,,,,,,,,,,,,,,,,,,,,,,,,,,,,5.172815,0.541727672,0.033854167,1,0,0,1.03459,yes,GRAPES,ZABIBU,incorrect,3,0,3,0,1,,,,,,,,,,,,,,,,,,,,,,,,,,,,,,,,,,,,,,,,,
,,,,,,,,,,00001597199,2020-10-30_22h03.33.159,swahili,2020.2.4,Win32,60,,,,,,,,,,,,,,,,,,,,,,,,,,,,,,,,,,,,,,,,,,,,,,2.94447,0.480234261,-0.018229167,1,0,0,1.150335,yes,BLAME,LAWAMA,incorrect,4,0,4,0,1,,,,,,,,,,,,,,,,,,,,,,,,,,,,,,,,,,,,,,,,,
,,,,,,,,,,00001597199,2020-10-30_22h03.33.159,swahili,2020.2.4,Win32,60,,,,,,,,,,,,,,,,,,,,,,,,,,,,,,,,,,,,,,,,,,,,,,8.86949,0.563689605,0.15625,1,0,0,1.131885,yes,PARROT,KASUKU,incorrect,5,0,5,0,1,,,,,,,,,,,,,,,,,,,,,,,,,,,,,,,,,,,,,,,,,
,,,,,,,,,,00001597199,2020-10-30_22h03.33.159,swahili,2020.2.4,Win32,60,,,,,,,,,,,,,,,,,,,,,,,,,,,,,,,,,,,,,,,,,,,,,,7.054695,0.512445095,0.010416667,1,0,0,1.06513,yes,CHEESE,DIBINI,incorrect,6,0,6,0,1,,,,,,,,,,,,,,,,,,,,,,,,,,,,,,,,,,,,,,,,,
,,,,,,,,,,00001597199,2020-10-30_22h03.33.159,swahili,2020.2.4,Win32,60,,,,,,,,,,,,,,,,,,,,,,,,,,,,,,,,,,,,,,,,0,0,0,0,1,,,,,,,,,,,,,,,,,,,,,,,,,,,,,,,,,,,,,,,,,,,,,,,,,,,,,,,,,,
,,,,,,,,,,00001597199,2020-10-30_22h03.33.159,swahili,2020.2.4,Win32,60,,,,,,,,,,,,,,,,,,,,,,,,,,,,,,,,,,,,,,,,1,0,1,0,1,,,,,,,,,,,,,,,,,,,,,,,,,,,,,,,,,,,,,,,,,,,,,,,,,,,,,,,,,,
,,,,,,,,,,00001597199,2020-10-30_22h03.33.159,swahili,2020.2.4,Win32,60,,,,,,,,,,,,,,,,,,,,,,,,,,,,,,,,,,,,,,,,,,,,,,,,,,,,,,,,,,,,,,3,0,3,0,1,,,,,,,,,,,,,,,,,,,,,,,,,,,,,,,,,,,,
,,,,,,,,,,00001597199,2020-10-30_22h03.33.159,swahili,2020.2.4,Win32,60,,,,,,,,,,-0.281112738,0.010416667,1,0,0,2.351455,unsorted_card,0,0,0,0,1,,,,,,,,,,,,,,,,,,,,,,,,,,,,,,,,,,,,,,,,,,,,,,,,,,,,,,,,,,,,,,,,,,,,,,,,,,,,,,,,,
,,,,,,,,,,00001597199,2020-10-30_22h03.33.159,swahili,2020.2.4,Win32,60,,,,,,,,,,0.449487555,-0.494791667,1,0,0,1.565935,done_pile,1,0,1,0,1,PARROT - KASUKU,,,,,,,,,,,,,,,,,,,,,,,,,,,,,,,,,,,,,,,,,,,,,,,,,,,,,,,,,,,,,,,,,,,,,,,,,,,,,,,,
,,,,,,,,,,00001597199,2020-10-30_22h03.33.159,swahili,2020.2.4,Win32,60,,,,,,,,,,-0.281112738,-0.135416667,1,0,0,0.29846,unsorted_card,2,0,2,0,1,,,,,,,,,,,,,,,,,,,,,,,,,,,,,,,,,,,,,,,,,,,,,,,,,,,,,,,,,,,,,,,,,,,,,,,,,,,,,,,,,
,,,,,,,,,,00001597199,2020-10-30_22h03.33.159,swahili,2020.2.4,Win32,60,,,,,,,,,,0.395314788,-0.3671875,1,0,0,1.06475,done_pile,3,0,3,0,1,BULL - FAHILI,,,,,,,,,,,,,,,,,,,,,,,,,,,,,,,,,,,,,,,,,,,,,,,,,,,,,,,,,,,,,,,,,,,,,,,,,,,,,,,,
,,,,,,,,,,00001597199,2020-10-30_22h03.33.159,swahili,2020.2.4,Win32,60,,,,,,,,,,-0.247437775,-0.130208333,1,0,0,0.315125,unsorted_card,4,0,4,0,1,,,,,,,,,,,,,,,,,,,,,,,,,,,,,,,,,,,,,,,,,,,,,,,,,,,,,,,,,,,,,,,,,,,,,,,,,,,,,,,,,
,,,,,,,,,,00001597199,2020-10-30_22h03.33.159,swahili,2020.2.4,Win32,60,,,,,,,,,,0.528550512,0.057291667,1,0,0,0.79811,test_pile,5,0,5,0,1,PLATE - SAHANI,,,,,,,,,,,,,,,,,,,,,,,,,,,,,,,,,,,,,,,,,,,,,,,,,,,,,,,,,,,,,,,,,,,,,,,,,,,,,,,,
,,,,,,,,,,00001597199,2020-10-30_22h03.33.159,swahili,2020.2.4,Win32,60,,,,,,,,,,-0.408491947,-0.080729167,1,0,0,0.26594,unsorted_card,6,0,6,0,1,,,,,,,,,,,,,,,,,,,,,,,,,,,,,,,,,,,,,,,,,,,,,,,,,,,,,,,,,,,,,,,,,,,,,,,,,,,,,,,,,
,,,,,,,,,,00001597199,2020-10-30_22h03.33.159,swahili,2020.2.4,Win32,60,,,,,,,,,,0.475841874,-0.53125,1,0,0,1.11407,done_pile,7,0,7,0,1,BLAME - LAWAMA,,,,,,,,,,,,,,,,,,,,,,,,,,,,,,,,,,,,,,,,,,,,,,,,,,,,,,,,,,,,,,,,,,,,,,,,,,,,,,,,
,,,,,,,,,,00001597199,2020-10-30_22h03.33.159,swahili,2020.2.4,Win32,60,,,,,,,,,,-0.404099561,-0.026041667,1,0,0,0.34922,unsorted_card,8,0,8,0,1,,,,,,,,,,,,,,,,,,,,,,,,,,,,,,,,,,,,,,,,,,,,,,,,,,,,,,,,,,,,,,,,,,,,,,,,,,,,,,,,,
,,,,,,,,,,00001597199,2020-10-30_22h03.33.159,swahili,2020.2.4,Win32,60,,,,,,,,,,0.499267936,-0.052083333,1,0,0,1.41046,test_pile,9,0,9,0,1,CHEESE - JIBINI,,,,,,,,,,,,,,,,,,,,,,,,,,,,,,,,,,,,,,,,,,,,,,,,,,,,,,,,,,,,,,,,,,,,,,,,,,,,,,,,
,,,,,,,,,,00001597199,2020-10-30_22h03.33.159,swahili,2020.2.4,Win32,60,,,,,,,,,,-0.508052709,-0.091145833,1,0,0,0.300515,unsorted_card,10,0,10,0,1,,,,,,,,,,,,,,,,,,,,,,,,,,,,,,,,,,,,,,,,,,,,,,,,,,,,,,,,,,,,,,,,,,,,,,,,,,,,,,,,,
,,,,,,,,,,00001597199,2020-10-30_22h03.33.159,swahili,2020.2.4,Win32,60,,,,,,,,,,0.56954612,-0.390625,1,0,0,0.74773,done_pile,11,0,11,0,1,GRAPES - ZABIBU,,,,,,,,,,,,,,,,,,,,,,,,,,,,,,,,,,,,,,,,,,,,,,,,,,,,,,,,,,,,,,,,,,,,,,,,,,,,,,,,
,,,,,,,,,,00001597199,2020-10-30_22h03.33.159,swahili,2020.2.4,Win32,60,,,,,,,,,,-0.207906296,-0.1015625,1,0,0,0.36598,unsorted_card,12,0,12,0,1,,,,,,,,,,,,,,,,,,,,,,,,,,,,,,,,,,,,,,,,,,,,,,,,,,,,,,,,,,,,,,,,,,,,,,,,,,,,,,,,,
,,,,,,,,,,00001597199,2020-10-30_22h03.33.159,swahili,2020.2.4,Win32,60,,,,,,,,,,0.464128843,-0.572916667,1,0,0,1.479415,done_pile,13,0,13,0,1,TREASURE - DAFINA,,,,,,,,,,,,,,,,,,,,,,,,,,,,,,,,,,,,,,,,,,,,,,,,,,,,,,,,,,,,,,,,,,,,,,,,,,,,,,,,
,,,,,,,,,,00001597199,2020-10-30_22h03.33.159,swahili,2020.2.4,Win32,60,,,,,,,,,,,,,,,,,,,,,,,,,,,,,,,,,,0,0,0,0,1,,,,,,,,,,,,,,,,,,,,,,,,,,,,,,,,,,,,,,,,,,,,,,,,,,,,,,,,,,,,,,,,
,,,,,,,,,,00001597199,2020-10-30_22h03.33.159,swahili,2020.2.4,Win32,60,,,,,,,,,,,,,,,,,,,,,,,,,,,,,,,,,,,,,,,return,,,,,,0.931895,11.36449,0.472913616,-0.010416667,1,0,0,1.064285,yes,PLATE,SAHINI,incorrect,0,0,0,0,1,,,,,,,,,,,,,,,,,,,,,,,,,,,,,,,,,,,,,,,,,
,,,,,,,,,,00001597199,2020-10-30_22h03.33.159,swahili,2020.2.4,Win32,60,,,,,,,,,,,,,,,,,,,,,,,,,,,,,,,,,,,,,,,,,,,,,,4.223505,0.50658858,0.041666667,1,0,0,1.334185,yes,CHEESE,JIBIBU,incorrect,1,0,1,0,1,,,,,,,,,,,,,,,,,,,,,,,,,,,,,,,,,,,,,,,,,
,,,,,,,,,,00001597199,2020-10-30_22h03.33.159,swahili,2020.2.4,Win32,60,,,,,,,,,,,,,,,,,,,,,,,,,,,,,,,,,,,,,,,,0,0,0,0,1,,,,,,,,,,,,,,,,,,,,,,,,,,,,,,,,,,,,,,,,,,,,,,,,,,,,,,,,,,
,,,,,,,,,,00001597199,2020-10-30_22h03.33.159,swahili,2020.2.4,Win32,60,,,,,,,,,,,,,,,,,,,,,,,,,,,,,,,,,,,,,,,,1,0,1,0,1,,,,,,,,,,,,,,,,,,,,,,,,,,,,,,,,,,,,,,,,,,,,,,,,,,,,,,,,,,
,,,,,,,,,,00001597199,2020-10-30_22h03.33.159,swahili,2020.2.4,Win32,60,,,,,,,,,,,,,,,,,,,,,,,,,,,,,,,,,,,,,,,,,,,,,,,,,,,,,,,,,,,,,,4,0,4,0,1,,,,,,,,,,,,,,,,,,,,,,,,,,,,,,,,,,,,
,,,,,,,,,,00001597199,2020-10-30_22h03.33.159,swahili,2020.2.4,Win32,60,,,,,,,,,,-0.168374817,-0.127604167,1,0,0,0.91021,unsorted_card,0,0,0,0,1,,,,,,,,,,,,,,,,,,,,,,,,,,,,,,,,,,,,,,,,,,,,,,,,,,,,,,,,,,,,,,,,,,,,,,,,,,,,,,,,,
,,,,,,,,,,00001597199,2020-10-30_22h03.33.159,swahili,2020.2.4,Win32,60,,,,,,,,,,0.467057101,-0.0390625,1,0,0,1.64598,test_pile,1,0,1,0,1,PLATE - SAHANI,,,,,,,,,,,,,,,,,,,,,,,,,,,,,,,,,,,,,,,,,,,,,,,,,,,,,,,,,,,,,,,,,,,,,,,,,,,,,,,,
,,,,,,,,,,00001597199,2020-10-30_22h03.33.159,swahili,2020.2.4,Win32,60,,,,,,,,,,-0.213762811,-0.059895833,1,0,0,0.34892,unsorted_card,2,0,2,0,1,,,,,,,,,,,,,,,,,,,,,,,,,,,,,,,,,,,,,,,,,,,,,,,,,,,,,,,,,,,,,,,,,,,,,,,,,,,,,,,,,
,,,,,,,,,,00001597199,2020-10-30_22h03.33.159,swahili,2020.2.4,Win32,60,,,,,,,,,,0.442166911,-0.03125,1,0,0,0.33191,test_pile,3,0,3,0,1,CHEESE - JIBINI,,,,,,,,,,,,,,,,,,,,,,,,,,,,,,,,,,,,,,,,,,,,,,,,,,,,,,,,,,,,,,,,,,,,,,,,,,,,,,,,
,,,,,,,,,,00001597199,2020-10-30_22h03.33.159,swahili,2020.2.4,Win32,60,,,,,,,,,,,,,,,,,,,,,,,,,,,,,,,,,,0,0,0,0,1,,,,,,,,,,,,,,,,,,,,,,,,,,,,,,,,,,,,,,,,,,,,,,,,,,,,,,,,,,,,,,,,
,,,,,,,,,,00001597199,2020-10-30_22h03.33.159,swahili,2020.2.4,Win32,60,,,,,,,,,,,,,,,,,,,,,,,,,,,,,,,,,,,,,,,return,,,,,,0.95162,5.10932,0.459736457,0.010416667,1,0,0,1.29585,yes,PLATE,SAHINI,incorrect,0,0,0,0,1,,,,,,,,,,,,,,,,,,,,,,,,,,,,,,,,,,,,,,,,,
,,,,,,,,,,00001597199,2020-10-30_22h03.33.159,swahili,2020.2.4,Win32,60,,,,,,,,,,,,,,,,,,,,,,,,,,,,,,,,,,,,,,,,,,,,,,26.16043,0.49341142,-0.046875,1,0,0,0.97995,yes,CHEESE,JIBINI,incorrect,1,0,1,0,1,,,,,,,,,,,,,,,,,,,,,,,,,,,,,,,,,,,,,,,,,
,,,,,,,,,,00001597199,2020-10-30_22h03.33.159,swahili,2020.2.4,Win32,60,,,,,,,,,,,,,,,,,,,,,,,,,,,,,,,,,,,,,,,,0,0,0,0,1,,,,,,,,,,,,,,,,,,,,,,,,,,,,,,,,,,,,,,,,,,,,,,,,,,,,,,,,,,
,,,,,,,,,,00001597199,2020-10-30_22h03.33.159,swahili,2020.2.4,Win32,60,,,,,,,,,,,,,,,,,,,,,,,,,,,,,,,,,,,,,,,,1,0,1,0,1,,,,,,,,,,,,,,,,,,,,,,,,,,,,,,,,,,,,,,,,,,,,,,,,,,,,,,,,,,
,,,,,,,,,,00001597199,2020-10-30_22h03.33.159,swahili,2020.2.4,Win32,60,,,,,,,,,,,,,,,,,,,,,,,,,,,,,,,,,,,,,,,,,,,,,,,,,,,,,,,,,,,,,,5,0,5,0,1,,,,,,,,,,,,,,,,,,,,,,,,,,,,,,,,,,,,
,,,,,,,,,,00001597199,2020-10-30_22h03.33.159,swahili,2020.2.4,Win32,60,,,,,,,,,,-0.222547584,0.0625,1,0,0,0.9395,unsorted_card,0,0,0,0,1,,,,,,,,,,,,,,,,,,,,,,,,,,,,,,,,,,,,,,,,,,,,,,,,,,,,,,,,,,,,,,,,,,,,,,,,,,,,,,,,,
,,,,,,,,,,00001597199,2020-10-30_22h03.33.159,swahili,2020.2.4,Win32,60,,,,,,,,,,0.527086384,0.0703125,1,0,0,2.127595,test_pile,1,0,1,0,1,PLATE - SAHANI,,,,,,,,,,,,,,,,,,,,,,,,,,,,,,,,,,,,,,,,,,,,,,,,,,,,,,,,,,,,,,,,,,,,,,,,,,,,,,,,
,,,,,,,,,,00001597199,2020-10-30_22h03.33.159,swahili,2020.2.4,Win32,60,,,,,,,,,,-0.29136164,0.020833333,1,0,0,0.63271,unsorted_card,2,0,2,0,1,,,,,,,,,,,,,,,,,,,,,,,,,,,,,,,,,,,,,,,,,,,,,,,,,,,,,,,,,,,,,,,,,,,,,,,,,,,,,,,,,
,,,,,,,,,,00001597199,2020-10-30_22h03.33.159,swahili,2020.2.4,Win32,60,,,,,,,,,,0.436310395,-0.40625,1,0,0,0.845475,done_pile,3,0,3,0,1,CHEESE - JIBINI,,,,,,,,,,,,,,,,,,,,,,,,,,,,,,,,,,,,,,,,,,,,,,,,,,,,,,,,,,,,,,,,,,,,,,,,,,,,,,,,
,,,,,,,,,,00001597199,2020-10-30_22h03.33.159,swahili,2020.2.4,Win32,60,,,,,,,,,,,,,,,,,,,,,,,,,,,,,,,,,,0,0,0,0,1,,,,,,,,,,,,,,,,,,,,,,,,,,,,,,,,,,,,,,,,,,,,,,,,,,,,,,,,,,,,,,,,
,,,,,,,,,,00001597199,2020-10-30_22h03.33.159,swahili,2020.2.4,Win32,60,,,,,,,,,,,,,,,,,,,,,,,,,,,,,,,,,,,,,,,return,,,,,,0.870685,2.927695,0.547584187,-0.033854167,1,0,0,0.984215,yes,PLATE,SAHANI,incorrect,0,0,0,0,1,,,,,,,,,,,,,,,,,,,,,,,,,,,,,,,,,,,,,,,,,
,,,,,,,,,,00001597199,2020-10-30_22h03.33.159,swahili,2020.2.4,Win32,60,,,,,,,,,,,,,,,,,,,,,,,,,,,,,,,,,,,,,,,,0,0,0,0,1,,,,,,,,,,,,,,,,,,,,,,,,,,,,,,,,,,,,,,,,,,,,,,,,,,,,,,,,,,
,,,,,,,,,,00001597199,2020-10-30_22h03.33.159,swahili,2020.2.4,Win32,60,,,,,,,,,,,,,,,,,,,,,,,,,,,,,,,,,,,,,,,,1,0,1,0,1,,,,,,,,,,,,,,,,,,,,,,,,,,,,,,,,,,,,,,,,,,,,,,,,,,,,,,,,,,
,,,,,,,,,,00001597199,2020-10-30_22h03.33.159,swahili,2020.2.4,Win32,60,,,,,,,,,,,,,,,,,,,,,,,,,,,,,,,,,,,,,,,,,,,,,,,,,,,,,,,,,,,,,,6,0,6,0,1,,,,,,,,,,,,,,,,,,,,,,,,,,,,,,,,,,,,
,,,,,,,,,,00001597199,2020-10-30_22h03.33.159,swahili,2020.2.4,Win32,60,,,,,,,,,,-0.285505124,-0.065104167,1,0,0,0.35955,unsorted_card,0,0,0,0,1,,,,,,,,,,,,,,,,,,,,,,,,,,,,,,,,,,,,,,,,,,,,,,,,,,,,,,,,,,,,,,,,,,,,,,,,,,,,,,,,,
,,,,,,,,,,00001597199,2020-10-30_22h03.33.159,swahili,2020.2.4,Win32,60,,,,,,,,,,0.604685212,-0.541666667,1,0,0,0.38258,done_pile,1,0,1,0,1,PLATE - SAHANI,,,,,,,,,,,,,,,,,,,,,,,,,,,,,,,,,,,,,,,,,,,,,,,,,,,,,,,,,,,,,,,,,,,,,,,,,,,,,,,,
,,,,,,,,,,00001597199,2020-10-30_22h03.33.159,swahili,2020.2.4,Win32,60,,,,,,,,,,,,,,,,,,,,,,,,,,,,,,,,,,,,,,,,0,0,0,0,1,,,,,,,,,,,,,,,,,,,,,,,,,,,,,,,,,,,,,,,,,,,,,,,,,,,,,,,,,,
,,,,,,,,,,00001597199,2020-10-30_22h03.33.159,swahili,2020.2.4,Win32,60,,,,,,,,,,,,,,,,,,,,,,,,,,,,,,,,,,,,,,,,1,0,1,0,1,,,,,,,,,,,,,,,,,,,,,,,,,,,,,,,,,,,,,,,,,,,,,,,,,,,,,,,,,,
,,,,,,,,,,00001597199,2020-10-30_22h03.33.159,swahili,2020.2.4,Win32,60,,,,,,,,HAMIRA,YEAST,,,,,,,,,,,,,,,,,,,,,,,,,,,,,,,,,,,,,3.85314,,,,,,,,,HAMIRA,correct,,,,,,,,,,,return,9.184265,return,0.70049,return,1.60456,0,0,0,4,1,,,,,,,,,,,,,,,,,,,,,,,,,
,,,,,,,,,,00001597199,2020-10-30_22h03.33.159,swahili,2020.2.4,Win32,60,,,,,,,,MASHUA,BOAT,,,,,,,,,,,,,,,,,,,,,,,,,,,,,,,,,,,,,5.1235,,,,,,,,,MASHUA,correct,,,,,,,,,,,,,,,,,0,1,1,18,1,,,,,,,,,,,,,,,,,,,,,,,,,
,,,,,,,,,,00001597199,2020-10-30_22h03.33.159,swahili,2020.2.4,Win32,60,,,,,,,,KABURI,GRAVE,,,,,,,,,,,,,,,,,,,,,,,,,,,,,,,,,,,,,2.19497,,,,,,,,,KABURI,correct,,,,,,,,,,,,,,,,,0,2,2,12,1,,,,,,,,,,,,,,,,,,,,,,,,,
,,,,,,,,,,00001597199,2020-10-30_22h03.33.159,swahili,2020.2.4,Win32,60,,,,,,,,KASUKU,PARROT,,,,,,,,,,,,,,,,,,,,,,,,,,,,,,,,,,,,,7.836415,,,,,,,,,KASUKU,correct,,,,,,,,,,,,,,,,,0,3,3,1,1,,,,,,,,,,,,,,,,,,,,,,,,,
,,,,,,,,,,00001597199,2020-10-30_22h03.33.159,swahili,2020.2.4,Win32,60,,,,,,,,YAMINI,OATH,,,,,,,,,,,,,,,,,,,,,,,,,,,,,,,,,,,,,2.378115,,,,,,,,,YAMINI,correct,,,,,,,,,,,,,,,,,0,4,4,6,1,,,,,,,,,,,,,,,,,,,,,,,,,
,,,,,,,,,,00001597199,2020-10-30_22h03.33.159,swahili,2020.2.4,Win32,60,,,,,,,,JIBINI,CHEESE,,,,,,,,,,,,,,,,,,,,,,,,,,,,,,,,,,,,,4.325105,,,,,,,,,JIBINI,correct,,,,,,,,,,,,,,,,,0,5,5,10,1,,,,,,,,,,,,,,,,,,,,,,,,,
,,,,,,,,,,00001597199,2020-10-30_22h03.33.159,swahili,2020.2.4,Win32,60,,,,,,,,DAFINA,TREASURE,,,,,,,,,,,,,,,,,,,,,,,,,,,,,,,,,,,,,2.327635,,,,,,,,,DAFINA,correct,,,,,,,,,,,,,,,,,0,6,6,19,1,,,,,,,,,,,,,,,,,,,,,,,,,
,,,,,,,,,,00001597199,2020-10-30_22h03.33.159,swahili,2020.2.4,Win32,60,,,,,,,,TALAKA,DIVORCE,,,,,,,,,,,,,,,,,,,,,,,,,,,,,,,,,,,,,3.52746,,,,,,,,,TALAKA,correct,,,,,,,,,,,,,,,,,0,7,7,17,1,,,,,,,,,,,,,,,,,,,,,,,,,
,,,,,,,,,,00001597199,2020-10-30_22h03.33.159,swahili,2020.2.4,Win32,60,,,,,,,,FAHILI,BULL,,,,,,,,,,,,,,,,,,,,,,,,,,,,,,,,,,,,,8.301645,,,,,,,,,FAHILI,correct,,,,,,,,,,,,,,,,,0,8,8,2,1,,,,,,,,,,,,,,,,,,,,,,,,,
,,,,,,,,,,00001597199,2020-10-30_22h03.33.159,swahili,2020.2.4,Win32,60,,,,,,,,UTENZI,POEM,,,,,,,,,,,,,,,,,,,,,,,,,,,,,,,,,,,,,3.99202,,,,,,,,,UTENZI,correct,,,,,,,,,,,,,,,,,0,9,9,8,1,,,,,,,,,,,,,,,,,,,,,,,,,
,,,,,,,,,,00001597199,2020-10-30_22h03.33.159,swahili,2020.2.4,Win32,60,,,,,,,,NAFAKA,CORN,,,,,,,,,,,,,,,,,,,,,,,,,,,,,,,,,,,,,4.37474,,,,,,,,,KAFAKA,incorrect,,,,,,,,,,,,,,,,,0,10,10,7,1,,,,,,,,,,,,,,,,,,,,,,,,,
,,,,,,,,,,00001597199,2020-10-30_22h03.33.159,swahili,2020.2.4,Win32,60,,,,,,,,SAHANI,PLATE,,,,,,,,,,,,,,,,,,,,,,,,,,,,,,,,,,,,,10.149525,,,,,,,,,SAHINI,incorrect,,,,,,,,,,,,,,,,,0,11,11,3,1,,,,,,,,,,,,,,,,,,,,,,,,,
,,,,,,,,,,00001597199,2020-10-30_22h03.33.159,swahili,2020.2.4,Win32,60,,,,,,,,YATIMA,ORPHAN,,,,,,,,,,,,,,,,,,,,,,,,,,,,,,,,,,,,,3.942175,,,,,,,,,YATIMA,correct,,,,,,,,,,,,,,,,,0,12,12,16,1,,,,,,,,,,,,,,,,,,,,,,,,,
,,,,,,,,,,00001597199,2020-10-30_22h03.33.159,swahili,2020.2.4,Win32,60,,,,,,,,MSHONI,TAILOR,,,,,,,,,,,,,,,,,,,,,,,,,,,,,,,,,,,,,4.95904,,,,,,,,,MSHONI,correct,,,,,,,,,,,,,,,,,0,13,13,9,1,,,,,,,,,,,,,,,,,,,,,,,,,
,,,,,,,,,,00001597199,2020-10-30_22h03.33.159,swahili,2020.2.4,Win32,60,,,,,,,,TAJIRI,MERCHANT,,,,,,,,,,,,,,,,,,,,,,,,,,,,,,,,,,,,,3.296235,,,,,,,,,TAJIRI,correct,,,,,,,,,,,,,,,,,0,14,14,0,1,,,,,,,,,,,,,,,,,,,,,,,,,
,,,,,,,,,,00001597199,2020-10-30_22h03.33.159,swahili,2020.2.4,Win32,60,,,,,,,,ZABIBU,GRAPES,,,,,,,,,,,,,,,,,,,,,,,,,,,,,,,,,,,,,9.83394,,,,,,,,,JABIBU,incorrect,,,,,,,,,,,,,,,,,0,15,15,11,1,,,,,,,,,,,,,,,,,,,,,,,,,
,,,,,,,,,,00001597199,2020-10-30_22h03.33.159,swahili,2020.2.4,Win32,60,,,,,,,,WAKILI,AGENT,,,,,,,,,,,,,,,,,,,,,,,,,,,,,,,,,,,,,5.771305,,,,,,,,,WAKILI,correct,,,,,,,,,,,,,,,,,0,16,16,14,1,,,,,,,,,,,,,,,,,,,,,,,,,
,,,,,,,,,,00001597199,2020-10-30_22h03.33.159,swahili,2020.2.4,Win32,60,,,,,,,,RUSHWA,BRIBE,,,,,,,,,,,,,,,,,,,,,,,,,,,,,,,,,,,,,2.3972,,,,,,,,,RUSHWA,correct,,,,,,,,,,,,,,,,,0,17,17,15,1,,,,,,,,,,,,,,,,,,,,,,,,,
,,,,,,,,,,00001597199,2020-10-30_22h03.33.159,swahili,2020.2.4,Win32,60,,,,,,,,LAWAMA,BLAME,,,,,,,,,,,,,,,,,,,,,,,,,,,,,,,,,,,,,2.84452,,,,,,,,,LAWAMA,correct,,,,,,,,,,,,,,,,,0,18,18,5,1,,,,,,,,,,,,,,,,,,,,,,,,,
,,,,,,,,,,00001597199,2020-10-30_22h03.33.159,swahili,2020.2.4,Win32,60,,,,,,,,SAMADI,MANURE,,,,,,,,,,,,,,,,,,,,,,,,,,,,,,,,,,,,,2.49368,,,,,,,,,SAMADI,correct,,,,,,,,,,,,,,,,,0,19,19,13,1,,,,,,,,,,,,,,,,,,,,,,,,,
,,,,,,,,,,00001597199,2020-10-30_22h03.33.159,swahili,2020.2.4,Win32,60,,,,,,,,,,,,,,,,,,,,,,,,,,,,,,,,,,,,,,,,,,,,,,,,,,,,,,,,,,,,,,,,,,,,,,,,,,,,,,0,0,0,0,1,I bought all my goods from the ____ at the market. ,TAJIRI,,,,,,,,,,,,,,,,,,
,,,,,,,,,,00001597199,2020-10-30_22h03.33.159,swahili,2020.2.4,Win32,60,,,,,,,,,,,,,,,,,,,,,,,,,,,,,,,,,,,,,,,,,,,,,,,,,,,,,,,,,,,,,,,,,,,,,,,,,,,,,,0,1,1,1,1,The ____ is a bird that can learn to repeat words.,KASUKU,,,,,,,,,,,,,,,,,,
,,,,,,,,,,00001597199,2020-10-30_22h03.33.159,swahili,2020.2.4,Win32,60,,,,,,,,,,,,,,,,,,,,,,,,,,,,,,,,,,,,,,,,,,,,,,,,,,,,,,,,,,,,,,,,,,,,,,,,,,,,,,0,2,2,2,1,The ____ charged the matador's red cape. ,FAHILI,,,,,,,,,,,,,,,,,,
,,,,,,,,,,00001597199,2020-10-30_22h03.33.159,swahili,2020.2.4,Win32,60,,,,,,,,,,,,,,,,,,,,,,,,,,,,,,,,,,,,,,,,,,,,,,,,,,,,,,,,,,,,,,,,,,,,,,,,,,,,,,0,3,3,3,1,I filled my ____ with food at the buffet. ,SAHANI,,,,,,,,,,,,,,,,,,
,,,,,,,,,,00001597199,2020-10-30_22h03.33.159,swahili,2020.2.4,Win32,60,,,,,,,,,,,,,,,,,,,,,,,,,,,,,,,,,,,,,,,,,,,,,,,,,,,,,,,,,,,,,,,,,,,,,,,,,,,,,,0,4,4,4,1,_____ makes bread rise. ,HAMIRA,,,,,,,,,,,,,,,,,,
,,,,,,,,,,00001597199,2020-10-30_22h03.33.159,swahili,2020.2.4,Win32,60,,,,,,,,,,,,,,,,,,,,,,,,,,,,,,,,,,,,,,,,,,,,,,,,,,,,,,,,,,,,,,,,,,,,,,,,,,,,,,0,5,5,5,1,Shannon had no one else to  ____ for what happened.,LAWAMA,,,,,,,,,,,,,,,,,,
,,,,,,,,,,00001597199,2020-10-30_22h03.33.159,swahili,2020.2.4,Win32,60,,,,,,,,,,,,,,,,,,,,,,,,,,,,,,,,,,,,,,,,,,,,,,,,,,,,,,,,,,,,,,,,,,,,,,,,,,,,,,0,6,6,6,1,The president takes the  ____ of office to uphold the Constitution.,YAMINI,,,,,,,,,,,,,,,,,,
,,,,,,,,,,00001597199,2020-10-30_22h03.33.159,swahili,2020.2.4,Win32,60,,,,,,,,,,,,,,,,,,,,,,,,,,,,,,,,,,,,,,,,,,,,,,,,,,,,,,,,,,,,,,,,,,,,,,,,,,,,,,0,7,7,7,1,Kate doesn't like ____ on the cob because it gets stuck between her teeth. ,NAFAKA,,,,,,,,,,,,,,,,,,
,,,,,,,,,,00001597199,2020-10-30_22h03.33.159,swahili,2020.2.4,Win32,60,,,,,,,,,,,,,,,,,,,,,,,,,,,,,,,,,,,,,,,,,,,,,,,,,,,,,,,,,,,,,,,,,,,,,,,,,,,,,,0,8,8,8,1,David wrote Cynthia a romantic ____  but she thought it rhymed too much.,UTENZI,,,,,,,,,,,,,,,,,,
,,,,,,,,,,00001597199,2020-10-30_22h03.33.159,swahili,2020.2.4,Win32,60,,,,,,,,,,,,,,,,,,,,,,,,,,,,,,,,,,,,,,,,,,,,,,,,,,,,,,,,,,,,,,,,,,,,,,,,,,,,,,0,9,9,9,1,Charles went to the ____ to get his suit adjusted. ,MSHONI,,,,,,,,,,,,,,,,,,
,,,,,,,,,,00001597199,2020-10-30_22h03.33.159,swahili,2020.2.4,Win32,60,,,,,,,,,,,,,,,,,,,,,,,,,,,,,,,,,,,,,,,,,,,,,,,,,,,,,,,,,,,,,,,,,,,,,,,,,,,,,,0,10,10,10,1,Amy cooked a grilled ____ sandwich to go with her tomato soup.,JIBINI,,,,,,,,,,,,,,,,,,
,,,,,,,,,,00001597199,2020-10-30_22h03.33.159,swahili,2020.2.4,Win32,60,,,,,,,,,,,,,,,,,,,,,,,,,,,,,,,,,,,,,,,,,,,,,,,,,,,,,,,,,,,,,,,,,,,,,,,,,,,,,,0,11,11,11,1,Fermented _______ are used to make wine.,ZABIBU,,,,,,,,,,,,,,,,,,
,,,,,,,,,,00001597199,2020-10-30_22h03.33.159,swahili,2020.2.4,Win32,60,,,,,,,,,,,,,,,,,,,,,,,,,,,,,,,,,,,,,,,,,,,,,,,,,,,,,,,,,,,,,,,,,,,,,,,,,,,,,,0,12,12,12,1,She visited her father's ___ on the anniversary of his death. ,KABURI,,,,,,,,,,,,,,,,,,
,,,,,,,,,,00001597199,2020-10-30_22h03.33.159,swahili,2020.2.4,Win32,60,,,,,,,,,,,,,,,,,,,,,,,,,,,,,,,,,,,,,,,,,,,,,,,,,,,,,,,,,,,,,,,,,,,,,,,,,,,,,,0,13,13,13,1,"On a farm, there is a good chance you will step into a pile of ______.",SAMADI,,,,,,,,,,,,,,,,,,
,,,,,,,,,,00001597199,2020-10-30_22h03.33.159,swahili,2020.2.4,Win32,60,,,,,,,,,,,,,,,,,,,,,,,,,,,,,,,,,,,,,,,,,,,,,,,,,,,,,,,,,,,,,,,,,,,,,,,,,,,,,,0,14,14,14,1,"To buy a house, you may need to speak with a real estate ______.",WAKILI,,,,,,,,,,,,,,,,,,
,,,,,,,,,,00001597199,2020-10-30_22h03.33.159,swahili,2020.2.4,Win32,60,,,,,,,,,,,,,,,,,,,,,,,,,,,,,,,,,,,,,,,,,,,,,,,,,,,,,,,,,,,,,,,,,,,,,,,,,,,,,,0,15,15,15,1,The politician was arrested for taking a _____.,RUSHWA,,,,,,,,,,,,,,,,,,
,,,,,,,,,,00001597199,2020-10-30_22h03.33.159,swahili,2020.2.4,Win32,60,,,,,,,,,,,,,,,,,,,,,,,,,,,,,,,,,,,,,,,,,,,,,,,,,,,,,,,,,,,,,,,,,,,,,,,,,,,,,,0,16,16,16,1,The _____ is living with foster parents.,YATIMA,,,,,,,,,,,,,,,,,,
,,,,,,,,,,00001597199,2020-10-30_22h03.33.159,swahili,2020.2.4,Win32,60,,,,,,,,,,,,,,,,,,,,,,,,,,,,,,,,,,,,,,,,,,,,,,,,,,,,,,,,,,,,,,,,,,,,,,,,,,,,,,0,17,17,17,1,My aunt and uncle got a _________ after two years of marriage.,TALAKA,,,,,,,,,,,,,,,,,,
,,,,,,,,,,00001597199,2020-10-30_22h03.33.159,swahili,2020.2.4,Win32,60,,,,,,,,,,,,,,,,,,,,,,,,,,,,,,,,,,,,,,,,,,,,,,,,,,,,,,,,,,,,,,,,,,,,,,,,,,,,,,0,18,18,18,1,You need a ______ to go fishing in the middle of a lake.,MASHUA,,,,,,,,,,,,,,,,,,
,,,,,,,,,,00001597199,2020-10-30_22h03.33.159,swahili,2020.2.4,Win32,60,,,,,,,,,,,,,,,,,,,,,,,,,,,,,,,,,,,,,,,,,,,,,,,,,,,,,,,,,,,,,,,,,,,,,,,,,,,,,,0,19,19,19,1,Pirates looked for buried _________ at the bottom of the sea.,DAFINA,,,,,,,,,,,,,,,,,,
,,,,,,,,,,00001597199,2020-10-30_22h03.33.159,swahili,2020.2.4,Win32,60,,,,,,,,,,,,,,,,,,,,,,,,,,,,,,,,,,,,,,,,,,,,,,,,,,,,,,,,,,,,,,,,,,,,,,,,,,,,,,,,,,,The president takes the  ____ of office to uphold the Constitution.,YAMINI,return,2.5689,YAMINI,correct,-0.396778917,-0.450520833,1,0,0,11.12982,a,0,0,0,6,1,,
,,,,,,,,,,00001597199,2020-10-30_22h03.33.159,swahili,2020.2.4,Win32,60,,,,,,,,,,,,,,,,,,,,,,,,,,,,,,,,,,,,,,,,,,,,,,,,,,,,,,,,,,,,,,,,,,,,,,,,,,,,,,,,,,,You need a ______ to go fishing in the middle of a lake.,MASHUA,,,MASHUA,correct,0.071742313,-0.5625,1,0,0,3.343765,b,0,1,1,18,1,,
,,,,,,,,,,00001597199,2020-10-30_22h03.33.159,swahili,2020.2.4,Win32,60,,,,,,,,,,,,,,,,,,,,,,,,,,,,,,,,,,,,,,,,,,,,,,,,,,,,,,,,,,,,,,,,,,,,,,,,,,,,,,,,,,,Amy cooked a grilled ____ sandwich to go with her tomato soup.,JIBINI,,,JIBINI,correct,-0.461200586,-0.533854167,1,0,0,6.537705,a,0,2,2,10,1,,
,,,,,,,,,,00001597199,2020-10-30_22h03.33.159,swahili,2020.2.4,Win32,60,,,,,,,,,,,,,,,,,,,,,,,,,,,,,,,,,,,,,,,,,,,,,,,,,,,,,,,,,,,,,,,,,,,,,,,,,,,,,,,,,,,I filled my ____ with food at the buffet. ,SAHANI,,,SAHANI,correct,0.559297218,-0.5078125,1,0,0,4.806125,c,0,3,3,3,1,,
,,,,,,,,,,00001597199,2020-10-30_22h03.33.159,swahili,2020.2.4,Win32,60,,,,,,,,,,,,,,,,,,,,,,,,,,,,,,,,,,,,,,,,,,,,,,,,,,,,,,,,,,,,,,,,,,,,,,,,,,,,,,,,,,,The ____ is a bird that can learn to repeat words.,KASUKU,,,KASUKU,correct,0.398243045,-0.471354167,1,0,0,2.19275,c,0,4,4,1,1,,
,,,,,,,,,,00001597199,2020-10-30_22h03.33.159,swahili,2020.2.4,Win32,60,,,,,,,,,,,,,,,,,,,,,,,,,,,,,,,,,,,,,,,,,,,,,,,,,,,,,,,,,,,,,,,,,,,,,,,,,,,,,,,,,,,Charles went to the ____ to get his suit adjusted. ,MSHONI,,,MSHONI,correct,0.007320644,-0.4453125,1,0,0,2.411085,b,0,5,5,9,1,,
,,,,,,,,,,00001597199,2020-10-30_22h03.33.159,swahili,2020.2.4,Win32,60,,,,,,,,,,,,,,,,,,,,,,,,,,,,,,,,,,,,,,,,,,,,,,,,,,,,,,,,,,,,,,,,,,,,,,,,,,,,,,,,,,,I bought all my goods from the ____ at the market. ,TAJIRI,,,TAJIRI,correct,0.489019034,-0.546875,1,0,0,6.40384,c,0,6,6,0,1,,
,,,,,,,,,,00001597199,2020-10-30_22h03.33.159,swahili,2020.2.4,Win32,60,,,,,,,,,,,,,,,,,,,,,,,,,,,,,,,,,,,,,,,,,,,,,,,,,,,,,,,,,,,,,,,,,,,,,,,,,,,,,,,,,,,Pirates looked for buried _________ at the bottom of the sea.,DAFINA,,,DAFINA,correct,0.534407028,-0.424479167,1,0,0,2.04323,c,0,7,7,19,1,,
,,,,,,,,,,00001597199,2020-10-30_22h03.33.159,swahili,2020.2.4,Win32,60,,,,,,,,,,,,,,,,,,,,,,,,,,,,,,,,,,,,,,,,,,,,,,,,,,,,,,,,,,,,,,,,,,,,,,,,,,,,,,,,,,,_____ makes bread rise. ,HAMIRA,,,HAMIRA,correct,0.490483163,-0.481770833,1,0,0,1.7267,c,0,8,8,4,1,,
,,,,,,,,,,00001597199,2020-10-30_22h03.33.159,swahili,2020.2.4,Win32,60,,,,,,,,,,,,,,,,,,,,,,,,,,,,,,,,,,,,,,,,,,,,,,,,,,,,,,,,,,,,,,,,,,,,,,,,,,,,,,,,,,,She visited her father's ___ on the anniversary of his death. ,KABURI,,,KABURI,correct,-0.011713031,-0.4921875,1,0,0,2.89461,b,0,9,9,12,1,,
,,,,,,,,,,00001597199,2020-10-30_22h03.33.159,swahili,2020.2.4,Win32,60,,,,,,,,,,,,,,,,,,,,,,,,,,,,,,,,,,,,,,,,,,,,,,,,,,,,,,,,,,,,,,,,,,,,,,,,,,,,,,,,,,,Fermented _______ are used to make wine.,ZABIBU,,,ZABIBU,correct,-0.41727672,-0.526041667,1,0,0,3.32296,a,0,10,10,11,1,,
,,,,,,,,,,00001597199,2020-10-30_22h03.33.159,swahili,2020.2.4,Win32,60,,,,,,,,,,,,,,,,,,,,,,,,,,,,,,,,,,,,,,,,,,,,,,,,,,,,,,,,,,,,,,,,,,,,,,,,,,,,,,,,,,,The politician was arrested for taking a _____.,RUSHWA,,,RUSHWA,correct,-0.456808199,-0.5,1,0,0,2.47712,a,0,11,11,15,1,,
,,,,,,,,,,00001597199,2020-10-30_22h03.33.159,swahili,2020.2.4,Win32,60,,,,,,,,,,,,,,,,,,,,,,,,,,,,,,,,,,,,,,,,,,,,,,,,,,,,,,,,,,,,,,,,,,,,,,,,,,,,,,,,,,,David wrote Cynthia a romantic ____  but she thought it rhymed too much.,UTENZI,,,UTENZI,correct,-0.442166911,-0.481770833,1,0,0,3.391775,a,0,12,12,8,1,,
,,,,,,,,,,00001597199,2020-10-30_22h03.33.159,swahili,2020.2.4,Win32,60,,,,,,,,,,,,,,,,,,,,,,,,,,,,,,,,,,,,,,,,,,,,,,,,,,,,,,,,,,,,,,,,,,,,,,,,,,,,,,,,,,,Kate doesn't like ____ on the cob because it gets stuck between her teeth. ,NAFAKA,,,NAFAKA,correct,0.115666179,-0.5,1,0,0,3.374635,b,0,13,13,7,1,,
,,,,,,,,,,00001597199,2020-10-30_22h03.33.159,swahili,2020.2.4,Win32,60,,,,,,,,,,,,,,,,,,,,,,,,,,,,,,,,,,,,,,,,,,,,,,,,,,,,,,,,,,,,,,,,,,,,,,,,,,,,,,,,,,,"To buy a house, you may need to speak with a real estate ______.",WAKILI,,,WAKILI,correct,0.494875549,-0.5078125,1,0,0,2.23001,c,0,14,14,14,1,,
,,,,,,,,,,00001597199,2020-10-30_22h03.33.159,swahili,2020.2.4,Win32,60,,,,,,,,,,,,,,,,,,,,,,,,,,,,,,,,,,,,,,,,,,,,,,,,,,,,,,,,,,,,,,,,,,,,,,,,,,,,,,,,,,,Shannon had no one else to  ____ for what happened.,LAWAMA,,,LAWAMA,correct,0.46852123,-0.526041667,1,0,0,5.22309,c,0,15,15,5,1,,
,,,,,,,,,,00001597199,2020-10-30_22h03.33.159,swahili,2020.2.4,Win32,60,,,,,,,,,,,,,,,,,,,,,,,,,,,,,,,,,,,,,,,,,,,,,,,,,,,,,,,,,,,,,,,,,,,,,,,,,,,,,,,,,,,The _____ is living with foster parents.,YATIMA,,,YATIMA,correct,-0.147877013,-0.471354167,1,0,0,3.873105,b,0,16,16,16,1,,
,,,,,,,,,,00001597199,2020-10-30_22h03.33.159,swahili,2020.2.4,Win32,60,,,,,,,,,,,,,,,,,,,,,,,,,,,,,,,,,,,,,,,,,,,,,,,,,,,,,,,,,,,,,,,,,,,,,,,,,,,,,,,,,,,The ____ charged the matador's red cape. ,FAHILI,,,FAHILI,correct,0.549048316,-0.533854167,1,0,0,1.729375,c,0,17,17,2,1,,
,,,,,,,,,,00001597199,2020-10-30_22h03.33.159,swahili,2020.2.4,Win32,60,,,,,,,,,,,,,,,,,,,,,,,,,,,,,,,,,,,,,,,,,,,,,,,,,,,,,,,,,,,,,,,,,,,,,,,,,,,,,,,,,,,My aunt and uncle got a _________ after two years of marriage.,TALAKA,,,TALAKA,correct,0.489019034,-0.4296875,1,0,0,1.927795,c,0,18,18,17,1,,
,,,,,,,,,,00001597199,2020-10-30_22h03.33.159,swahili,2020.2.4,Win32,60,,,,,,,,,,,,,,,,,,,,,,,,,,,,,,,,,,,,,,,,,,,,,,,,,,,,,,,,,,,,,,,,,,,,,,,,,,,,,,,,,,,"On a farm, there is a good chance you will step into a pile of ______.",SAMADI,,,SAMADI,correct,0.543191801,-0.479166667,1,0,0,2.374565,c,0,19,19,13,1,,
,,,,,,,,,,00001597199,2020-10-30_22h03.33.159,swahili,2020.2.4,Win32,60,,,,,,,,,,,,,,,,,,,,,,,,,,,,,,,,,,,,,,,,,,,,,,,,,,,,,,,,,,,,,,,,,,,,,,,,,,,,,,,,,,,,,,,,,,,,,,,,,,,,,return,5.92475
