condition,consent_key.keys,consent_key.rt,done_with_instructions.keys,done_with_instructions.rt,instr_loop.thisRepN,instr_loop.thisTrialN,instr_loop.thisN,instr_loop.thisIndex,instr_loop.ran,Student ID #,date,expName,psychopyVersion,OS,frameRate,instr_learning_key.keys,instr_learning_key.rt,card_gen_loop.thisRepN,card_gen_loop.thisTrialN,card_gen_loop.thisN,card_gen_loop.thisIndex,card_gen_loop.ran,swa,eng,choose_pile.x,choose_pile.y,choose_pile.leftButton,choose_pile.midButton,choose_pile.rightButton,choose_pile.time,choose_pile.clicked_name,choices.thisRepN,choices.thisTrialN,choices.thisN,choices.thisIndex,choices.ran,card_to_show,mouse_pick.x,mouse_pick.y,mouse_pick.leftButton,mouse_pick.midButton,mouse_pick.rightButton,mouse_pick.time,mouse_pick.clicked_name,key_instr_study.keys,key_instr_study.rt,next_study.keys,next_study.rt,study_loop.thisRepN,study_loop.thisTrialN,study_loop.thisN,study_loop.thisIndex,study_loop.ran,key_instr_test.keys,learn_loop.thisRepN,learn_loop.thisTrialN,learn_loop.thisN,learn_loop.thisIndex,learn_loop.ran,key_instr_test.rt,duration,yes_or_no.x,yes_or_no.y,yes_or_no.leftButton,yes_or_no.midButton,yes_or_no.rightButton,yes_or_no.time,yes_or_no.clicked_name,test_response.stim,test_response.resp,test_response.eval,test_loop.thisRepN,test_loop.thisTrialN,test_loop.thisN,test_loop.thisIndex,test_loop.ran,trials.thisRepN,trials.thisTrialN,trials.thisN,trials.thisIndex,trials.ran,instr_movie_key.keys,instr_movie_key.rt,return_to_exp.keys,return_to_exp.rt,instr_assess_key.keys,instr_assess_key.rt,assess_loop.thisRepN,assess_loop.thisTrialN,assess_loop.thisN,assess_loop.thisIndex,assess_loop.ran,ans_gen_loop.thisRepN,ans_gen_loop.thisTrialN,ans_gen_loop.thisN,ans_gen_loop.thisIndex,ans_gen_loop.ran,sen,ans,instr_transfer_key.keys,instr_transfer_key.rt,transfer_response.resp,transfer_response.eval,select_word.x,select_word.y,select_word.leftButton,select_word.midButton,select_word.rightButton,select_word.time,select_word.clicked_name,transfers.thisRepN,transfers.thisTrialN,transfers.thisN,transfers.thisIndex,transfers.ran,end_experiment.keys,end_experiment.rt
1,return,19.66809,return,12.676555,0,0,0,0,1,1600837,2020-10-19_11h46.53.728,swahili,2020.2.4,MacIntel,60,,,,,,,,,,,,,,,,,,,,,,,,,,,,,,,,,,,,,,,,,,,,,,,,,,,,,,,,,,,,,,,,,,,,,,,,,,,,,,,,,,,,,,,,,,,,,,,,,,,,,,
,,,,,,,,,,1600837,2020-10-19_11h46.53.728,swahili,2020.2.4,MacIntel,60,return,13.37824,0,0,0,0,1,TAJIRI,MERCHANT,,,,,,,,,,,,,,,,,,,,,,,,,,,,,,,,,,,,,,,,,,,,,,,,,,,,,,,,,,,,,,,,,,,,,,,,,,,,,,,,,,,,,,,,,,,,,
,,,,,,,,,,1600837,2020-10-19_11h46.53.728,swahili,2020.2.4,MacIntel,60,,,0,1,1,1,1,KASUKU,PARROT,,,,,,,,,,,,,,,,,,,,,,,,,,,,,,,,,,,,,,,,,,,,,,,,,,,,,,,,,,,,,,,,,,,,,,,,,,,,,,,,,,,,,,,,,,,,,
,,,,,,,,,,1600837,2020-10-19_11h46.53.728,swahili,2020.2.4,MacIntel,60,,,0,2,2,2,1,FAHILI,BULL,,,,,,,,,,,,,,,,,,,,,,,,,,,,,,,,,,,,,,,,,,,,,,,,,,,,,,,,,,,,,,,,,,,,,,,,,,,,,,,,,,,,,,,,,,,,,
,,,,,,,,,,1600837,2020-10-19_11h46.53.728,swahili,2020.2.4,MacIntel,60,,,0,3,3,3,1,SAHANI,PLATE,,,,,,,,,,,,,,,,,,,,,,,,,,,,,,,,,,,,,,,,,,,,,,,,,,,,,,,,,,,,,,,,,,,,,,,,,,,,,,,,,,,,,,,,,,,,,
,,,,,,,,,,1600837,2020-10-19_11h46.53.728,swahili,2020.2.4,MacIntel,60,,,0,4,4,4,1,HAMIRA,YEAST,,,,,,,,,,,,,,,,,,,,,,,,,,,,,,,,,,,,,,,,,,,,,,,,,,,,,,,,,,,,,,,,,,,,,,,,,,,,,,,,,,,,,,,,,,,,,
,,,,,,,,,,1600837,2020-10-19_11h46.53.728,swahili,2020.2.4,MacIntel,60,,,0,5,5,5,1,LAWAMA,BLAME,,,,,,,,,,,,,,,,,,,,,,,,,,,,,,,,,,,,,,,,,,,,,,,,,,,,,,,,,,,,,,,,,,,,,,,,,,,,,,,,,,,,,,,,,,,,,
,,,,,,,,,,1600837,2020-10-19_11h46.53.728,swahili,2020.2.4,MacIntel,60,,,0,6,6,6,1,YAMINI,OATH,,,,,,,,,,,,,,,,,,,,,,,,,,,,,,,,,,,,,,,,,,,,,,,,,,,,,,,,,,,,,,,,,,,,,,,,,,,,,,,,,,,,,,,,,,,,,
,,,,,,,,,,1600837,2020-10-19_11h46.53.728,swahili,2020.2.4,MacIntel,60,,,0,7,7,7,1,NAFAKA,CORN,,,,,,,,,,,,,,,,,,,,,,,,,,,,,,,,,,,,,,,,,,,,,,,,,,,,,,,,,,,,,,,,,,,,,,,,,,,,,,,,,,,,,,,,,,,,,
,,,,,,,,,,1600837,2020-10-19_11h46.53.728,swahili,2020.2.4,MacIntel,60,,,0,8,8,8,1,UTENZI,POEM,,,,,,,,,,,,,,,,,,,,,,,,,,,,,,,,,,,,,,,,,,,,,,,,,,,,,,,,,,,,,,,,,,,,,,,,,,,,,,,,,,,,,,,,,,,,,
,,,,,,,,,,1600837,2020-10-19_11h46.53.728,swahili,2020.2.4,MacIntel,60,,,0,9,9,9,1,MSHONI,TAILOR,,,,,,,,,,,,,,,,,,,,,,,,,,,,,,,,,,,,,,,,,,,,,,,,,,,,,,,,,,,,,,,,,,,,,,,,,,,,,,,,,,,,,,,,,,,,,
,,,,,,,,,,1600837,2020-10-19_11h46.53.728,swahili,2020.2.4,MacIntel,60,,,0,10,10,10,1,JIBINI,CHEESE,,,,,,,,,,,,,,,,,,,,,,,,,,,,,,,,,,,,,,,,,,,,,,,,,,,,,,,,,,,,,,,,,,,,,,,,,,,,,,,,,,,,,,,,,,,,,
,,,,,,,,,,1600837,2020-10-19_11h46.53.728,swahili,2020.2.4,MacIntel,60,,,0,11,11,11,1,ZABIBU,GRAPES,,,,,,,,,,,,,,,,,,,,,,,,,,,,,,,,,,,,,,,,,,,,,,,,,,,,,,,,,,,,,,,,,,,,,,,,,,,,,,,,,,,,,,,,,,,,,
,,,,,,,,,,1600837,2020-10-19_11h46.53.728,swahili,2020.2.4,MacIntel,60,,,0,12,12,12,1,KABURI,GRAVE,,,,,,,,,,,,,,,,,,,,,,,,,,,,,,,,,,,,,,,,,,,,,,,,,,,,,,,,,,,,,,,,,,,,,,,,,,,,,,,,,,,,,,,,,,,,,
,,,,,,,,,,1600837,2020-10-19_11h46.53.728,swahili,2020.2.4,MacIntel,60,,,0,13,13,13,1,SAMADI,MANURE,,,,,,,,,,,,,,,,,,,,,,,,,,,,,,,,,,,,,,,,,,,,,,,,,,,,,,,,,,,,,,,,,,,,,,,,,,,,,,,,,,,,,,,,,,,,,
,,,,,,,,,,1600837,2020-10-19_11h46.53.728,swahili,2020.2.4,MacIntel,60,,,0,14,14,14,1,WAKILI,AGENT,,,,,,,,,,,,,,,,,,,,,,,,,,,,,,,,,,,,,,,,,,,,,,,,,,,,,,,,,,,,,,,,,,,,,,,,,,,,,,,,,,,,,,,,,,,,,
,,,,,,,,,,1600837,2020-10-19_11h46.53.728,swahili,2020.2.4,MacIntel,60,,,0,15,15,15,1,RUSHWA,BRIBE,,,,,,,,,,,,,,,,,,,,,,,,,,,,,,,,,,,,,,,,,,,,,,,,,,,,,,,,,,,,,,,,,,,,,,,,,,,,,,,,,,,,,,,,,,,,,
,,,,,,,,,,1600837,2020-10-19_11h46.53.728,swahili,2020.2.4,MacIntel,60,,,0,16,16,16,1,YATIMA,ORPHAN,,,,,,,,,,,,,,,,,,,,,,,,,,,,,,,,,,,,,,,,,,,,,,,,,,,,,,,,,,,,,,,,,,,,,,,,,,,,,,,,,,,,,,,,,,,,,
,,,,,,,,,,1600837,2020-10-19_11h46.53.728,swahili,2020.2.4,MacIntel,60,,,0,17,17,17,1,TALAKA,DIVORCE,,,,,,,,,,,,,,,,,,,,,,,,,,,,,,,,,,,,,,,,,,,,,,,,,,,,,,,,,,,,,,,,,,,,,,,,,,,,,,,,,,,,,,,,,,,,,
,,,,,,,,,,1600837,2020-10-19_11h46.53.728,swahili,2020.2.4,MacIntel,60,,,0,18,18,18,1,MASHUA,BOAT,,,,,,,,,,,,,,,,,,,,,,,,,,,,,,,,,,,,,,,,,,,,,,,,,,,,,,,,,,,,,,,,,,,,,,,,,,,,,,,,,,,,,,,,,,,,,
,,,,,,,,,,1600837,2020-10-19_11h46.53.728,swahili,2020.2.4,MacIntel,60,,,0,19,19,19,1,DAFINA,TREASURE,,,,,,,,,,,,,,,,,,,,,,,,,,,,,,,,,,,,,,,,,,,,,,,,,,,,,,,,,,,,,,,,,,,,,,,,,,,,,,,,,,,,,,,,,,,,,
,,,,,,,,,,1600837,2020-10-19_11h46.53.728,swahili,2020.2.4,MacIntel,60,,,,,,,,,,0.531575997,0.577911377,1,0,0,6.30679,study_pile,0,0,0,0,1,,,,,,,,,,,,,,,,,,,,,,,,,,,,,,,,,,,,,,,,,,,,,,,,,,,,,,,,,,,,,,,,,,,,,,,,,,,,,,,,,
,,,,,,,,,,1600837,2020-10-19_11h46.53.728,swahili,2020.2.4,MacIntel,60,,,,,,,,,,0.514292414,0.489512126,1,0,0,0.5978,study_pile,1,0,1,0,1,,,,,,,,,,,,,,,,,,,,,,,,,,,,,,,,,,,,,,,,,,,,,,,,,,,,,,,,,,,,,,,,,,,,,,,,,,,,,,,,,
,,,,,,,,,,1600837,2020-10-19_11h46.53.728,swahili,2020.2.4,MacIntel,60,,,,,,,,,,-0.375245928,-0.10727946,1,0,0,0.714635,unsorted_card,2,0,2,0,1,,,,,,,,,,,,,,,,,,,,,,,,,,,,,,,,,,,,,,,,,,,,,,,,,,,,,,,,,,,,,,,,,,,,,,,,,,,,,,,,,
,,,,,,,,,,1600837,2020-10-19_11h46.53.728,swahili,2020.2.4,MacIntel,60,,,,,,,,,,0.505324625,0.464406331,1,0,0,27.46412,study_pile,3,0,3,0,1,MERCHANT - TAJIRI,,,,,,,,,,,,,,,,,,,,,,,,,,,,,,,,,,,,,,,,,,,,,,,,,,,,,,,,,,,,,,,,,,,,,,,,,,,,,,,,
,,,,,,,,,,1600837,2020-10-19_11h46.53.728,swahili,2020.2.4,MacIntel,60,,,,,,,,,,-0.246711429,-0.089772542,1,0,0,1.31239,unsorted_card,4,0,4,0,1,,,,,,,,,,,,,,,,,,,,,,,,,,,,,,,,,,,,,,,,,,,,,,,,,,,,,,,,,,,,,,,,,,,,,,,,,,,,,,,,,
,,,,,,,,,,1600837,2020-10-19_11h46.53.728,swahili,2020.2.4,MacIntel,60,,,,,,,,,,0.436830847,0.513315837,1,0,0,5.345695,study_pile,5,0,5,0,1,PARROT - KASUKU,,,,,,,,,,,,,,,,,,,,,,,,,,,,,,,,,,,,,,,,,,,,,,,,,,,,,,,,,,,,,,,,,,,,,,,,,,,,,,,,
,,,,,,,,,,1600837,2020-10-19_11h46.53.728,swahili,2020.2.4,MacIntel,60,,,,,,,,,,-0.20557284,0.024454753,1,0,0,1.68041,unsorted_card,6,0,6,0,1,,,,,,,,,,,,,,,,,,,,,,,,,,,,,,,,,,,,,,,,,,,,,,,,,,,,,,,,,,,,,,,,,,,,,,,,,,,,,,,,,
,,,,,,,,,,1600837,2020-10-19_11h46.53.728,swahili,2020.2.4,MacIntel,60,,,,,,,,,,0.444277315,0.446187337,1,0,0,5.531045,study_pile,7,0,7,0,1,BULL - FAHILI,,,,,,,,,,,,,,,,,,,,,,,,,,,,,,,,,,,,,,,,,,,,,,,,,,,,,,,,,,,,,,,,,,,,,,,,,,,,,,,,
,,,,,,,,,,1600837,2020-10-19_11h46.53.728,swahili,2020.2.4,MacIntel,60,,,,,,,,,,-0.306534819,0.011464437,1,0,0,1.19642,unsorted_card,8,0,8,0,1,,,,,,,,,,,,,,,,,,,,,,,,,,,,,,,,,,,,,,,,,,,,,,,,,,,,,,,,,,,,,,,,,,,,,,,,,,,,,,,,,
,,,,,,,,,,1600837,2020-10-19_11h46.53.728,swahili,2020.2.4,MacIntel,60,,,,,,,,,,0.437099652,0.467417399,1,0,0,2.631385,study_pile,9,0,9,0,1,PLATE - SAHANI,,,,,,,,,,,,,,,,,,,,,,,,,,,,,,,,,,,,,,,,,,,,,,,,,,,,,,,,,,,,,,,,,,,,,,,,,,,,,,,,
,,,,,,,,,,1600837,2020-10-19_11h46.53.728,swahili,2020.2.4,MacIntel,60,,,,,,,,,,-0.351985725,-0.113311768,1,0,0,5.08128,unsorted_card,10,0,10,0,1,,,,,,,,,,,,,,,,,,,,,,,,,,,,,,,,,,,,,,,,,,,,,,,,,,,,,,,,,,,,,,,,,,,,,,,,,,,,,,,,,
,,,,,,,,,,1600837,2020-10-19_11h46.53.728,swahili,2020.2.4,MacIntel,60,,,,,,,,,,0.458512537,0.445963542,1,0,0,4.762445,study_pile,11,0,11,0,1,YEAST - HAMIRA,,,,,,,,,,,,,,,,,,,,,,,,,,,,,,,,,,,,,,,,,,,,,,,,,,,,,,,,,,,,,,,,,,,,,,,,,,,,,,,,
,,,,,,,,,,1600837,2020-10-19_11h46.53.728,swahili,2020.2.4,MacIntel,60,,,,,,,,,,-0.243760295,-0.001515706,1,0,0,2.94729,unsorted_card,12,0,12,0,1,,,,,,,,,,,,,,,,,,,,,,,,,,,,,,,,,,,,,,,,,,,,,,,,,,,,,,,,,,,,,,,,,,,,,,,,,,,,,,,,,
,,,,,,,,,,1600837,2020-10-19_11h46.53.728,swahili,2020.2.4,MacIntel,60,,,,,,,,,,0.395023106,0.008758545,1,0,0,3.013715,test_pile,13,0,13,0,1,BLAME - LAWAMA,,,,,,,,,,,,,,,,,,,,,,,,,,,,,,,,,,,,,,,,,,,,,,,,,,,,,,,,,,,,,,,,,,,,,,,,,,,,,,,,
,,,,,,,,,,1600837,2020-10-19_11h46.53.728,swahili,2020.2.4,MacIntel,60,,,,,,,,,,-0.277824167,0.024342855,1,0,0,2.71423,unsorted_card,14,0,14,0,1,,,,,,,,,,,,,,,,,,,,,,,,,,,,,,,,,,,,,,,,,,,,,,,,,,,,,,,,,,,,,,,,,,,,,,,,,,,,,,,,,
,,,,,,,,,,1600837,2020-10-19_11h46.53.728,swahili,2020.2.4,MacIntel,60,,,,,,,,,,0.430671212,0.465820313,1,0,0,3.87958,study_pile,15,0,15,0,1,OATH - YAMINI,,,,,,,,,,,,,,,,,,,,,,,,,,,,,,,,,,,,,,,,,,,,,,,,,,,,,,,,,,,,,,,,,,,,,,,,,,,,,,,,
,,,,,,,,,,1600837,2020-10-19_11h46.53.728,swahili,2020.2.4,MacIntel,60,,,,,,,,,,-0.245853541,-0.052296956,1,0,0,1.495765,unsorted_card,16,0,16,0,1,,,,,,,,,,,,,,,,,,,,,,,,,,,,,,,,,,,,,,,,,,,,,,,,,,,,,,,,,,,,,,,,,,,,,,,,,,,,,,,,,
,,,,,,,,,,1600837,2020-10-19_11h46.53.728,swahili,2020.2.4,MacIntel,60,,,,,,,,,,0.358419885,0.021158854,1,0,0,3.34944,test_pile,17,0,17,0,1,CORN - NAFAKA,,,,,,,,,,,,,,,,,,,,,,,,,,,,,,,,,,,,,,,,,,,,,,,,,,,,,,,,,,,,,,,,,,,,,,,,,,,,,,,,
,,,,,,,,,,1600837,2020-10-19_11h46.53.728,swahili,2020.2.4,MacIntel,60,,,,,,,,,,-0.133178532,-0.071970622,1,0,0,0.695415,unsorted_card,18,0,18,0,1,,,,,,,,,,,,,,,,,,,,,,,,,,,,,,,,,,,,,,,,,,,,,,,,,,,,,,,,,,,,,,,,,,,,,,,,,,,,,,,,,
,,,,,,,,,,1600837,2020-10-19_11h46.53.728,swahili,2020.2.4,MacIntel,60,,,,,,,,,,0.372289074,0.399922689,1,0,0,1.997175,study_pile,19,0,19,0,1,POEM - UTENZI,,,,,,,,,,,,,,,,,,,,,,,,,,,,,,,,,,,,,,,,,,,,,,,,,,,,,,,,,,,,,,,,,,,,,,,,,,,,,,,,
,,,,,,,,,,1600837,2020-10-19_11h46.53.728,swahili,2020.2.4,MacIntel,60,,,,,,,,,,-0.282073572,0.123341878,1,0,0,1.097935,unsorted_card,20,0,20,0,1,,,,,,,,,,,,,,,,,,,,,,,,,,,,,,,,,,,,,,,,,,,,,,,,,,,,,,,,,,,,,,,,,,,,,,,,,,,,,,,,,
,,,,,,,,,,1600837,2020-10-19_11h46.53.728,swahili,2020.2.4,MacIntel,60,,,,,,,,,,0.412815703,-0.012980143,1,0,0,3.78036,test_pile,21,0,21,0,1,TAILOR - MSHONI,,,,,,,,,,,,,,,,,,,,,,,,,,,,,,,,,,,,,,,,,,,,,,,,,,,,,,,,,,,,,,,,,,,,,,,,,,,,,,,,
,,,,,,,,,,1600837,2020-10-19_11h46.53.728,swahili,2020.2.4,MacIntel,60,,,,,,,,,,-0.312008144,-0.101593018,1,0,0,0.647245,unsorted_card,22,0,22,0,1,,,,,,,,,,,,,,,,,,,,,,,,,,,,,,,,,,,,,,,,,,,,,,,,,,,,,,,,,,,,,,,,,,,,,,,,,,,,,,,,,
,,,,,,,,,,1600837,2020-10-19_11h46.53.728,swahili,2020.2.4,MacIntel,60,,,,,,,,,,0.421543283,0.514760335,1,0,0,2.2135,study_pile,23,0,23,0,1,CHEESE - JIBINI,,,,,,,,,,,,,,,,,,,,,,,,,,,,,,,,,,,,,,,,,,,,,,,,,,,,,,,,,,,,,,,,,,,,,,,,,,,,,,,,
,,,,,,,,,,1600837,2020-10-19_11h46.53.728,swahili,2020.2.4,MacIntel,60,,,,,,,,,,-0.364997026,-0.069946289,1,0,0,0.848645,unsorted_card,24,0,24,0,1,,,,,,,,,,,,,,,,,,,,,,,,,,,,,,,,,,,,,,,,,,,,,,,,,,,,,,,,,,,,,,,,,,,,,,,,,,,,,,,,,
,,,,,,,,,,1600837,2020-10-19_11h46.53.728,swahili,2020.2.4,MacIntel,60,,,,,,,,,,0.462578926,0.466369629,1,0,0,2.76457,study_pile,25,0,25,0,1,GRAPES - ZABIBU,,,,,,,,,,,,,,,,,,,,,,,,,,,,,,,,,,,,,,,,,,,,,,,,,,,,,,,,,,,,,,,,,,,,,,,,,,,,,,,,
,,,,,,,,,,1600837,2020-10-19_11h46.53.728,swahili,2020.2.4,MacIntel,60,,,,,,,,,,-0.337813415,-0.075154622,1,0,0,0.71411,unsorted_card,26,0,26,0,1,,,,,,,,,,,,,,,,,,,,,,,,,,,,,,,,,,,,,,,,,,,,,,,,,,,,,,,,,,,,,,,,,,,,,,,,,,,,,,,,,
,,,,,,,,,,1600837,2020-10-19_11h46.53.728,swahili,2020.2.4,MacIntel,60,,,,,,,,,,0.493468613,-0.02057902,1,0,0,2.93099,test_pile,27,0,27,0,1,GRAVE - KABURI,,,,,,,,,,,,,,,,,,,,,,,,,,,,,,,,,,,,,,,,,,,,,,,,,,,,,,,,,,,,,,,,,,,,,,,,,,,,,,,,
,,,,,,,,,,1600837,2020-10-19_11h46.53.728,swahili,2020.2.4,MacIntel,60,,,,,,,,,,-0.237577782,-0.012329102,1,0,0,0.57939,unsorted_card,28,0,28,0,1,,,,,,,,,,,,,,,,,,,,,,,,,,,,,,,,,,,,,,,,,,,,,,,,,,,,,,,,,,,,,,,,,,,,,,,,,,,,,,,,,
,,,,,,,,,,1600837,2020-10-19_11h46.53.728,swahili,2020.2.4,MacIntel,60,,,,,,,,,,0.384614065,-0.101053874,1,0,0,2.514505,test_pile,29,0,29,0,1,MANURE - SAMADI,,,,,,,,,,,,,,,,,,,,,,,,,,,,,,,,,,,,,,,,,,,,,,,,,,,,,,,,,,,,,,,,,,,,,,,,,,,,,,,,
,,,,,,,,,,1600837,2020-10-19_11h46.53.728,swahili,2020.2.4,MacIntel,60,,,,,,,,,,-0.267329337,-0.081156413,1,0,0,0.69804,unsorted_card,30,0,30,0,1,,,,,,,,,,,,,,,,,,,,,,,,,,,,,,,,,,,,,,,,,,,,,,,,,,,,,,,,,,,,,,,,,,,,,,,,,,,,,,,,,
,,,,,,,,,,1600837,2020-10-19_11h46.53.728,swahili,2020.2.4,MacIntel,60,,,,,,,,,,0.450316847,-0.073923747,1,0,0,1.56431,test_pile,31,0,31,0,1,AGENT - WAKILI,,,,,,,,,,,,,,,,,,,,,,,,,,,,,,,,,,,,,,,,,,,,,,,,,,,,,,,,,,,,,,,,,,,,,,,,,,,,,,,,
,,,,,,,,,,1600837,2020-10-19_11h46.53.728,swahili,2020.2.4,MacIntel,60,,,,,,,,,,-0.282639779,-0.013346354,1,0,0,0.68022,unsorted_card,32,0,32,0,1,,,,,,,,,,,,,,,,,,,,,,,,,,,,,,,,,,,,,,,,,,,,,,,,,,,,,,,,,,,,,,,,,,,,,,,,,,,,,,,,,
,,,,,,,,,,1600837,2020-10-19_11h46.53.728,swahili,2020.2.4,MacIntel,60,,,,,,,,,,0.466519491,0.432434082,1,0,0,2.163955,study_pile,33,0,33,0,1,BRIBE - RUSHWA,,,,,,,,,,,,,,,,,,,,,,,,,,,,,,,,,,,,,,,,,,,,,,,,,,,,,,,,,,,,,,,,,,,,,,,,,,,,,,,,
,,,,,,,,,,1600837,2020-10-19_11h46.53.728,swahili,2020.2.4,MacIntel,60,,,,,,,,,,-0.242153184,0.019897461,1,0,0,0.614615,unsorted_card,34,0,34,0,1,,,,,,,,,,,,,,,,,,,,,,,,,,,,,,,,,,,,,,,,,,,,,,,,,,,,,,,,,,,,,,,,,,,,,,,,,,,,,,,,,
,,,,,,,,,,1600837,2020-10-19_11h46.53.728,swahili,2020.2.4,MacIntel,60,,,,,,,,,,0.41582403,0.486043294,1,0,0,2.596495,study_pile,35,0,35,0,1,ORPHAN - YATIMA,,,,,,,,,,,,,,,,,,,,,,,,,,,,,,,,,,,,,,,,,,,,,,,,,,,,,,,,,,,,,,,,,,,,,,,,,,,,,,,,
,,,,,,,,,,1600837,2020-10-19_11h46.53.728,swahili,2020.2.4,MacIntel,60,,,,,,,,,,-0.118417139,0.076649984,1,0,0,0.681165,unsorted_card,36,0,36,0,1,,,,,,,,,,,,,,,,,,,,,,,,,,,,,,,,,,,,,,,,,,,,,,,,,,,,,,,,,,,,,,,,,,,,,,,,,,,,,,,,,
,,,,,,,,,,1600837,2020-10-19_11h46.53.728,swahili,2020.2.4,MacIntel,60,,,,,,,,,,0.397219299,0.424550374,1,0,0,1.865185,study_pile,37,0,37,0,1,DIVORCE - TALAKA,,,,,,,,,,,,,,,,,,,,,,,,,,,,,,,,,,,,,,,,,,,,,,,,,,,,,,,,,,,,,,,,,,,,,,,,,,,,,,,,
,,,,,,,,,,1600837,2020-10-19_11h46.53.728,swahili,2020.2.4,MacIntel,60,,,,,,,,,,-0.252179036,0.163340251,1,0,0,0.94739,unsorted_card,38,0,38,0,1,,,,,,,,,,,,,,,,,,,,,,,,,,,,,,,,,,,,,,,,,,,,,,,,,,,,,,,,,,,,,,,,,,,,,,,,,,,,,,,,,
,,,,,,,,,,1600837,2020-10-19_11h46.53.728,swahili,2020.2.4,MacIntel,60,,,,,,,,,,0.411248627,-0.012868245,1,0,0,2.61403,test_pile,39,0,39,0,1,BOAT - MASHUA,,,,,,,,,,,,,,,,,,,,,,,,,,,,,,,,,,,,,,,,,,,,,,,,,,,,,,,,,,,,,,,,,,,,,,,,,,,,,,,,
,,,,,,,,,,1600837,2020-10-19_11h46.53.728,swahili,2020.2.4,MacIntel,60,,,,,,,,,,-0.255027224,0.120849609,1,0,0,0.56935,unsorted_card,40,0,40,0,1,,,,,,,,,,,,,,,,,,,,,,,,,,,,,,,,,,,,,,,,,,,,,,,,,,,,,,,,,,,,,,,,,,,,,,,,,,,,,,,,,
,,,,,,,,,,1600837,2020-10-19_11h46.53.728,swahili,2020.2.4,MacIntel,60,,,,,,,,,,0.453022053,-0.003723145,1,0,0,1.19235,test_pile,41,0,41,0,1,TREASURE - DAFINA,,,,,,,,,,,,,,,,,,,,,,,,,,,,,,,,,,,,,,,,,,,,,,,,,,,,,,,,,,,,,,,,,,,,,,,,,,,,,,,,
,,,,,,,,,,1600837,2020-10-19_11h46.53.728,swahili,2020.2.4,MacIntel,60,,,,,,,,,,,,,,,,,,,,,,ORPHAN - YATIMA,-0.454697795,-0.036275228,1,0,0,1.79797,study_first,return,3.66639,return,11.338375,0,0,0,0,1,,,,,,,,,,,,,,,,,,,,,,,,,,,,,,,,,,,,,,,,,,,,,,,,,,,,,,,,,,,,,,,,
,,,,,,,,,,1600837,2020-10-19_11h46.53.728,swahili,2020.2.4,MacIntel,60,,,,,,,,,,,,,,,,,,,,,,POEM - UTENZI,,,,,,,,,,return,9.06124,1,0,1,0,1,,,,,,,,,,,,,,,,,,,,,,,,,,,,,,,,,,,,,,,,,,,,,,,,,,,,,,,,,,,,,,,,
,,,,,,,,,,1600837,2020-10-19_11h46.53.728,swahili,2020.2.4,MacIntel,60,,,,,,,,,,,,,,,,,,,,,,YEAST - HAMIRA,,,,,,,,,,return,7.75263,2,0,2,0,1,,,,,,,,,,,,,,,,,,,,,,,,,,,,,,,,,,,,,,,,,,,,,,,,,,,,,,,,,,,,,,,,
,,,,,,,,,,1600837,2020-10-19_11h46.53.728,swahili,2020.2.4,MacIntel,60,,,,,,,,,,,,,,,,,,,,,,BULL - FAHILI,,,,,,,,,,return,3.072515,3,0,3,0,1,,,,,,,,,,,,,,,,,,,,,,,,,,,,,,,,,,,,,,,,,,,,,,,,,,,,,,,,,,,,,,,,
,,,,,,,,,,1600837,2020-10-19_11h46.53.728,swahili,2020.2.4,MacIntel,60,,,,,,,,,,,,,,,,,,,,,,MERCHANT - TAJIRI,,,,,,,,,,return,2.697475,4,0,4,0,1,,,,,,,,,,,,,,,,,,,,,,,,,,,,,,,,,,,,,,,,,,,,,,,,,,,,,,,,,,,,,,,,
,,,,,,,,,,1600837,2020-10-19_11h46.53.728,swahili,2020.2.4,MacIntel,60,,,,,,,,,,,,,,,,,,,,,,BRIBE - RUSHWA,,,,,,,,,,return,2.121295,5,0,5,0,1,,,,,,,,,,,,,,,,,,,,,,,,,,,,,,,,,,,,,,,,,,,,,,,,,,,,,,,,,,,,,,,,
,,,,,,,,,,1600837,2020-10-19_11h46.53.728,swahili,2020.2.4,MacIntel,60,,,,,,,,,,,,,,,,,,,,,,GRAPES - ZABIBU,,,,,,,,,,return,1.90649,6,0,6,0,1,,,,,,,,,,,,,,,,,,,,,,,,,,,,,,,,,,,,,,,,,,,,,,,,,,,,,,,,,,,,,,,,
,,,,,,,,,,1600837,2020-10-19_11h46.53.728,swahili,2020.2.4,MacIntel,60,,,,,,,,,,,,,,,,,,,,,,PARROT - KASUKU,,,,,,,,,,return,1.922815,7,0,7,0,1,,,,,,,,,,,,,,,,,,,,,,,,,,,,,,,,,,,,,,,,,,,,,,,,,,,,,,,,,,,,,,,,
,,,,,,,,,,1600837,2020-10-19_11h46.53.728,swahili,2020.2.4,MacIntel,60,,,,,,,,,,,,,,,,,,,,,,DIVORCE - TALAKA,,,,,,,,,,return,1.513795,8,0,8,0,1,,,,,,,,,,,,,,,,,,,,,,,,,,,,,,,,,,,,,,,,,,,,,,,,,,,,,,,,,,,,,,,,
,,,,,,,,,,1600837,2020-10-19_11h46.53.728,swahili,2020.2.4,MacIntel,60,,,,,,,,,,,,,,,,,,,,,,OATH - YAMINI,,,,,,,,,,return,1.90072,9,0,9,0,1,,,,,,,,,,,,,,,,,,,,,,,,,,,,,,,,,,,,,,,,,,,,,,,,,,,,,,,,,,,,,,,,
,,,,,,,,,,1600837,2020-10-19_11h46.53.728,swahili,2020.2.4,MacIntel,60,,,,,,,,,,,,,,,,,,,,,,PLATE - SAHANI,,,,,,,,,,return,6.28227,10,0,10,0,1,,,,,,,,,,,,,,,,,,,,,,,,,,,,,,,,,,,,,,,,,,,,,,,,,,,,,,,,,,,,,,,,
,,,,,,,,,,1600837,2020-10-19_11h46.53.728,swahili,2020.2.4,MacIntel,60,,,,,,,,,,,,,,,,,,,,,,CHEESE - JIBINI,,,,,,,,,,return,1.91682,11,0,11,0,1,,,,,,,,,,,,,,,,,,,,,,,,,,,,,,,,,,,,,,,,,,,,,,,,,,,,,,,,,,,,,,,,
,,,,,,,,,,1600837,2020-10-19_11h46.53.728,swahili,2020.2.4,MacIntel,60,,,,,,,,,,,,,,,,,,,,,,,,,,,,,,,,,,,,,,,,0,0,0,0,1,,,,,,,,,,,,,,,,,,,,,,,,,,,,,,,,,,,,,,,,,,,,,,,,,,,,,,,,,,
,,,,,,,,,,1600837,2020-10-19_11h46.53.728,swahili,2020.2.4,MacIntel,60,,,,,,,,,,,,,,,,,,,,,,,,,,,,,,,,,,0,0,0,0,1,,,,,,,,,,,,,,,,,,,,,,,,,,,,,,,,,,,,,,,,,,,,,,,,,,,,,,,,,,,,,,,,
,,,,,,,,,,1600837,2020-10-19_11h46.53.728,swahili,2020.2.4,MacIntel,60,,,,,,,,,,,,,,,,,,,,,,,,,,,,,,,,,,,,,,,return,,,,,,6.1702,4.84615,0.409218292,-0.075480143,1,0,0,1.75988,yes,GRAVE,HDJSJK,incorrect,0,0,0,0,1,,,,,,,,,,,,,,,,,,,,,,,,,,,,,,,,,,,,,,,,,
,,,,,,,,,,1600837,2020-10-19_11h46.53.728,swahili,2020.2.4,MacIntel,60,,,,,,,,,,,,,,,,,,,,,,,,,,,,,,,,,,,,,,,,,,,,,,3.48084,0.468189513,-0.003570557,1,0,0,0.94825,yes,AGENT,HSSIDJ,incorrect,1,0,1,0,1,,,,,,,,,,,,,,,,,,,,,,,,,,,,,,,,,,,,,,,,,
,,,,,,,,,,1600837,2020-10-19_11h46.53.728,swahili,2020.2.4,MacIntel,60,,,,,,,,,,,,,,,,,,,,,,,,,,,,,,,,,,,,,,,,,,,,,,5.02985,0.527749817,-0.100870768,1,0,0,0.766935,yes,MANURE,JABUO,incorrect,2,0,2,0,1,,,,,,,,,,,,,,,,,,,,,,,,,,,,,,,,,,,,,,,,,
,,,,,,,,,,1600837,2020-10-19_11h46.53.728,swahili,2020.2.4,MacIntel,60,,,,,,,,,,,,,,,,,,,,,,,,,,,,,,,,,,,,,,,,,,,,,,3.68065,0.554939147,0.047312419,1,0,0,0.748735,yes,BLAME,MOHAG,incorrect,3,0,3,0,1,,,,,,,,,,,,,,,,,,,,,,,,,,,,,,,,,,,,,,,,,
,,,,,,,,,,1600837,2020-10-19_11h46.53.728,swahili,2020.2.4,MacIntel,60,,,,,,,,,,,,,,,,,,,,,,,,,,,,,,,,,,,,,,,,,,,,,,3.48091,0.434125641,-0.026723226,1,0,0,0.69975,yes,TREASURE,LATENI,incorrect,4,0,4,0,1,,,,,,,,,,,,,,,,,,,,,,,,,,,,,,,,,,,,,,,,,
,,,,,,,,,,1600837,2020-10-19_11h46.53.728,swahili,2020.2.4,MacIntel,60,,,,,,,,,,,,,,,,,,,,,,,,,,,,,,,,,,,,,,,,,,,,,,2.41492,0.292534087,-0.059163411,1,0,0,1.066125,yes,BOAT,SAJSJ,incorrect,5,0,5,0,1,,,,,,,,,,,,,,,,,,,,,,,,,,,,,,,,,,,,,,,,,
,,,,,,,,,,1600837,2020-10-19_11h46.53.728,swahili,2020.2.4,MacIntel,60,,,,,,,,,,,,,,,,,,,,,,,,,,,,,,,,,,,,,,,,,,,,,,4.33226,0.311670708,-0.193644206,1,0,0,0.74974,yes,CORN,HABITI,incorrect,6,0,6,0,1,,,,,,,,,,,,,,,,,,,,,,,,,,,,,,,,,,,,,,,,,
,,,,,,,,,,1600837,2020-10-19_11h46.53.728,swahili,2020.2.4,MacIntel,60,,,,,,,,,,,,,,,,,,,,,,,,,,,,,,,,,,,,,,,,,,,,,,2.16345,0.310206579,-0.188435872,1,0,0,0.599385,yes,TAILOR,AMSJS,incorrect,7,0,7,0,1,,,,,,,,,,,,,,,,,,,,,,,,,,,,,,,,,,,,,,,,,
,,,,,,,,,,1600837,2020-10-19_11h46.53.728,swahili,2020.2.4,MacIntel,60,,,,,,,,,,,,,,,,,,,,,,,,,,,,,,,,,,,,,,,,1,0,1,0,1,,,,,,,,,,,,,,,,,,,,,,,,,,,,,,,,,,,,,,,,,,,,,,,,,,,,,,,,,,
,,,,,,,,,,1600837,2020-10-19_11h46.53.728,swahili,2020.2.4,MacIntel,60,,,,,,,,,,,,,,,,,,,,,,,,,,,,,,,,,,,,,,,,,,,,,,,,,,,,,,,,,,,,,,0,0,0,0,1,,,,,,,,,,,,,,,,,,,,,,,,,,,,,,,,,,,,
,,,,,,,,,,1600837,2020-10-19_11h46.53.728,swahili,2020.2.4,MacIntel,60,,,,,,,,,,-0.589048774,-0.223225911,1,0,0,3.9351,unsorted_card,0,0,0,0,1,,,,,,,,,,,,,,,,,,,,,,,,,,,,,,,,,,,,,,,,,,,,,,,,,,,,,,,,,,,,,,,,,,,,,,,,,,,,,,,,,
,,,,,,,,,,1600837,2020-10-19_11h46.53.728,swahili,2020.2.4,MacIntel,60,,,,,,,,,,0.481915721,0.008249919,1,0,0,3.714005,test_pile,1,0,1,0,1,MERCHANT - TAJIRI,,,,,,,,,,,,,,,,,,,,,,,,,,,,,,,,,,,,,,,,,,,,,,,,,,,,,,,,,,,,,,,,,,,,,,,,,,,,,,,,
,,,,,,,,,,1600837,2020-10-19_11h46.53.728,swahili,2020.2.4,MacIntel,60,,,,,,,,,,-0.227654877,0.053466797,1,0,0,0.71474,unsorted_card,2,0,2,0,1,,,,,,,,,,,,,,,,,,,,,,,,,,,,,,,,,,,,,,,,,,,,,,,,,,,,,,,,,,,,,,,,,,,,,,,,,,,,,,,,,
,,,,,,,,,,1600837,2020-10-19_11h46.53.728,swahili,2020.2.4,MacIntel,60,,,,,,,,,,0.342434572,-0.000569661,1,0,0,2.59706,test_pile,3,0,3,0,1,PARROT - KASUKU,,,,,,,,,,,,,,,,,,,,,,,,,,,,,,,,,,,,,,,,,,,,,,,,,,,,,,,,,,,,,,,,,,,,,,,,,,,,,,,,
,,,,,,,,,,1600837,2020-10-19_11h46.53.728,swahili,2020.2.4,MacIntel,60,,,,,,,,,,0.365254392,-0.024983724,1,0,0,1.08143,test_pile,4,0,4,0,1,,,,,,,,,,,,,,,,,,,,,,,,,,,,,,,,,,,,,,,,,,,,,,,,,,,,,,,,,,,,,,,,,,,,,,,,,,,,,,,,,
,,,,,,,,,,1600837,2020-10-19_11h46.53.728,swahili,2020.2.4,MacIntel,60,,,,,,,,,,0.500480417,0.008473714,1,0,0,0.749765,test_pile,5,0,5,0,1,,,,,,,,,,,,,,,,,,,,,,,,,,,,,,,,,,,,,,,,,,,,,,,,,,,,,,,,,,,,,,,,,,,,,,,,,,,,,,,,,
,,,,,,,,,,1600837,2020-10-19_11h46.53.728,swahili,2020.2.4,MacIntel,60,,,,,,,,,,0.500480417,0.008473714,1,0,0,0.163405,test_pile,6,0,6,0,1,,,,,,,,,,,,,,,,,,,,,,,,,,,,,,,,,,,,,,,,,,,,,,,,,,,,,,,,,,,,,,,,,,,,,,,,,,,,,,,,,
,,,,,,,,,,1600837,2020-10-19_11h46.53.728,swahili,2020.2.4,MacIntel,60,,,,,,,,,,-0.215844619,0.008249919,1,0,0,3.09968,unsorted_card,7,0,7,0,1,,,,,,,,,,,,,,,,,,,,,,,,,,,,,,,,,,,,,,,,,,,,,,,,,,,,,,,,,,,,,,,,,,,,,,,,,,,,,,,,,
,,,,,,,,,,1600837,2020-10-19_11h46.53.728,swahili,2020.2.4,MacIntel,60,,,,,,,,,,0.477340318,0.44430542,1,0,0,1.44797,study_pile,8,0,8,0,1,BULL - FAHILI,,,,,,,,,,,,,,,,,,,,,,,,,,,,,,,,,,,,,,,,,,,,,,,,,,,,,,,,,,,,,,,,,,,,,,,,,,,,,,,,
,,,,,,,,,,1600837,2020-10-19_11h46.53.728,swahili,2020.2.4,MacIntel,60,,,,,,,,,,-0.214580664,0.023844401,1,0,0,0.581605,unsorted_card,9,0,9,0,1,,,,,,,,,,,,,,,,,,,,,,,,,,,,,,,,,,,,,,,,,,,,,,,,,,,,,,,,,,,,,,,,,,,,,,,,,,,,,,,,,
,,,,,,,,,,1600837,2020-10-19_11h46.53.728,swahili,2020.2.4,MacIntel,60,,,,,,,,,,0.399861594,0.457865397,1,0,0,1.0977,study_pile,10,0,10,0,1,PLATE - SAHANI,,,,,,,,,,,,,,,,,,,,,,,,,,,,,,,,,,,,,,,,,,,,,,,,,,,,,,,,,,,,,,,,,,,,,,,,,,,,,,,,
,,,,,,,,,,1600837,2020-10-19_11h46.53.728,swahili,2020.2.4,MacIntel,60,,,,,,,,,,-0.224320553,0.009084066,1,0,0,0.661085,unsorted_card,11,0,11,0,1,,,,,,,,,,,,,,,,,,,,,,,,,,,,,,,,,,,,,,,,,,,,,,,,,,,,,,,,,,,,,,,,,,,,,,,,,,,,,,,,,
,,,,,,,,,,1600837,2020-10-19_11h46.53.728,swahili,2020.2.4,MacIntel,60,,,,,,,,,,0.543712253,0.525502523,1,0,0,1.36374,study_pile,12,0,12,0,1,YEAST - HAMIRA,,,,,,,,,,,,,,,,,,,,,,,,,,,,,,,,,,,,,,,,,,,,,,,,,,,,,,,,,,,,,,,,,,,,,,,,,,,,,,,,
,,,,,,,,,,1600837,2020-10-19_11h46.53.728,swahili,2020.2.4,MacIntel,60,,,,,,,,,,-0.298607934,-0.075693766,1,0,0,0.564335,unsorted_card,13,0,13,0,1,,,,,,,,,,,,,,,,,,,,,,,,,,,,,,,,,,,,,,,,,,,,,,,,,,,,,,,,,,,,,,,,,,,,,,,,,,,,,,,,,
,,,,,,,,,,1600837,2020-10-19_11h46.53.728,swahili,2020.2.4,MacIntel,60,,,,,,,,,,0.445981653,-0.081013997,1,0,0,1.348035,test_pile,14,0,14,0,1,BLAME - LAWAMA,,,,,,,,,,,,,,,,,,,,,,,,,,,,,,,,,,,,,,,,,,,,,,,,,,,,,,,,,,,,,,,,,,,,,,,,,,,,,,,,
,,,,,,,,,,1600837,2020-10-19_11h46.53.728,swahili,2020.2.4,MacIntel,60,,,,,,,,,,-0.134522557,-0.108133952,1,0,0,0.563375,unsorted_card,15,0,15,0,1,,,,,,,,,,,,,,,,,,,,,,,,,,,,,,,,,,,,,,,,,,,,,,,,,,,,,,,,,,,,,,,,,,,,,,,,,,,,,,,,,
,,,,,,,,,,1600837,2020-10-19_11h46.53.728,swahili,2020.2.4,MacIntel,60,,,,,,,,,,0.437911786,0.441741943,1,0,0,2.11475,study_pile,16,0,16,0,1,OATH - YAMINI,,,,,,,,,,,,,,,,,,,,,,,,,,,,,,,,,,,,,,,,,,,,,,,,,,,,,,,,,,,,,,,,,,,,,,,,,,,,,,,,
,,,,,,,,,,1600837,2020-10-19_11h46.53.728,swahili,2020.2.4,MacIntel,60,,,,,,,,,,-0.272350842,-0.086181641,1,0,0,0.531315,unsorted_card,17,0,17,0,1,,,,,,,,,,,,,,,,,,,,,,,,,,,,,,,,,,,,,,,,,,,,,,,,,,,,,,,,,,,,,,,,,,,,,,,,,,,,,,,,,
,,,,,,,,,,1600837,2020-10-19_11h46.53.728,swahili,2020.2.4,MacIntel,60,,,,,,,,,,0.439639001,0.007059733,1,0,0,1.74755,test_pile,18,0,18,0,1,CORN - NAFAKA,,,,,,,,,,,,,,,,,,,,,,,,,,,,,,,,,,,,,,,,,,,,,,,,,,,,,,,,,,,,,,,,,,,,,,,,,,,,,,,,
,,,,,,,,,,1600837,2020-10-19_11h46.53.728,swahili,2020.2.4,MacIntel,60,,,,,,,,,,-0.243943311,0.02061971,1,0,0,1.18169,unsorted_card,19,0,19,0,1,,,,,,,,,,,,,,,,,,,,,,,,,,,,,,,,,,,,,,,,,,,,,,,,,,,,,,,,,,,,,,,,,,,,,,,,,,,,,,,,,
,,,,,,,,,,1600837,2020-10-19_11h46.53.728,swahili,2020.2.4,MacIntel,60,,,,,,,,,,0.407102169,0.019032796,1,0,0,1.24828,test_pile,20,0,20,0,1,POEM - UTENZI,,,,,,,,,,,,,,,,,,,,,,,,,,,,,,,,,,,,,,,,,,,,,,,,,,,,,,,,,,,,,,,,,,,,,,,,,,,,,,,,
,,,,,,,,,,1600837,2020-10-19_11h46.53.728,swahili,2020.2.4,MacIntel,60,,,,,,,,,,-0.170170663,0.042755127,1,0,0,0.88093,unsorted_card,21,0,21,0,1,,,,,,,,,,,,,,,,,,,,,,,,,,,,,,,,,,,,,,,,,,,,,,,,,,,,,,,,,,,,,,,,,,,,,,,,,,,,,,,,,
,,,,,,,,,,1600837,2020-10-19_11h46.53.728,swahili,2020.2.4,MacIntel,60,,,,,,,,,,0.421457495,0.428863525,1,0,0,1.13102,study_pile,22,0,22,0,1,TAILOR - MSHONI,,,,,,,,,,,,,,,,,,,,,,,,,,,,,,,,,,,,,,,,,,,,,,,,,,,,,,,,,,,,,,,,,,,,,,,,,,,,,,,,
,,,,,,,,,,1600837,2020-10-19_11h46.53.728,swahili,2020.2.4,MacIntel,60,,,,,,,,,,-0.195020818,0.13680013,1,0,0,0.480115,unsorted_card,23,0,23,0,1,,,,,,,,,,,,,,,,,,,,,,,,,,,,,,,,,,,,,,,,,,,,,,,,,,,,,,,,,,,,,,,,,,,,,,,,,,,,,,,,,
,,,,,,,,,,1600837,2020-10-19_11h46.53.728,swahili,2020.2.4,MacIntel,60,,,,,,,,,,0.547904466,-0.025746663,1,0,0,1.198865,test_pile,24,0,24,0,1,CHEESE - JIBINI,,,,,,,,,,,,,,,,,,,,,,,,,,,,,,,,,,,,,,,,,,,,,,,,,,,,,,,,,,,,,,,,,,,,,,,,,,,,,,,,
,,,,,,,,,,1600837,2020-10-19_11h46.53.728,swahili,2020.2.4,MacIntel,60,,,,,,,,,,-0.143427434,-0.146911621,1,0,0,0.546605,unsorted_card,25,0,25,0,1,,,,,,,,,,,,,,,,,,,,,,,,,,,,,,,,,,,,,,,,,,,,,,,,,,,,,,,,,,,,,,,,,,,,,,,,,,,,,,,,,
,,,,,,,,,,1600837,2020-10-19_11h46.53.728,swahili,2020.2.4,MacIntel,60,,,,,,,,,,0.393353084,0.004099528,1,0,0,1.69814,test_pile,26,0,26,0,1,GRAPES - ZABIBU,,,,,,,,,,,,,,,,,,,,,,,,,,,,,,,,,,,,,,,,,,,,,,,,,,,,,,,,,,,,,,,,,,,,,,,,,,,,,,,,
,,,,,,,,,,1600837,2020-10-19_11h46.53.728,swahili,2020.2.4,MacIntel,60,,,,,,,,,,-0.282662656,-0.04179891,1,0,0,0.61359,unsorted_card,27,0,27,0,1,,,,,,,,,,,,,,,,,,,,,,,,,,,,,,,,,,,,,,,,,,,,,,,,,,,,,,,,,,,,,,,,,,,,,,,,,,,,,,,,,
,,,,,,,,,,1600837,2020-10-19_11h46.53.728,swahili,2020.2.4,MacIntel,60,,,,,,,,,,0.49816412,0.414357503,1,0,0,1.83049,study_pile,28,0,28,0,1,GRAVE - KABURI,,,,,,,,,,,,,,,,,,,,,,,,,,,,,,,,,,,,,,,,,,,,,,,,,,,,,,,,,,,,,,,,,,,,,,,,,,,,,,,,
,,,,,,,,,,1600837,2020-10-19_11h46.53.728,swahili,2020.2.4,MacIntel,60,,,,,,,,,,-0.344687958,-0.067484538,1,0,0,0.48078,unsorted_card,29,0,29,0,1,,,,,,,,,,,,,,,,,,,,,,,,,,,,,,,,,,,,,,,,,,,,,,,,,,,,,,,,,,,,,,,,,,,,,,,,,,,,,,,,,
,,,,,,,,,,1600837,2020-10-19_11h46.53.728,swahili,2020.2.4,MacIntel,60,,,,,,,,,,0.370985084,0.421488444,1,0,0,0.864425,study_pile,30,0,30,0,1,MANURE - SAMADI,,,,,,,,,,,,,,,,,,,,,,,,,,,,,,,,,,,,,,,,,,,,,,,,,,,,,,,,,,,,,,,,,,,,,,,,,,,,,,,,
,,,,,,,,,,1600837,2020-10-19_11h46.53.728,swahili,2020.2.4,MacIntel,60,,,,,,,,,,-0.288822291,0.070760091,1,0,0,0.580885,unsorted_card,31,0,31,0,1,,,,,,,,,,,,,,,,,,,,,,,,,,,,,,,,,,,,,,,,,,,,,,,,,,,,,,,,,,,,,,,,,,,,,,,,,,,,,,,,,
,,,,,,,,,,1600837,2020-10-19_11h46.53.728,swahili,2020.2.4,MacIntel,60,,,,,,,,,,0.500503294,0.566263835,1,0,0,0.680245,study_pile,32,0,32,0,1,AGENT - WAKILI,,,,,,,,,,,,,,,,,,,,,,,,,,,,,,,,,,,,,,,,,,,,,,,,,,,,,,,,,,,,,,,,,,,,,,,,,,,,,,,,
,,,,,,,,,,1600837,2020-10-19_11h46.53.728,swahili,2020.2.4,MacIntel,60,,,,,,,,,,-0.297652818,-0.007222493,1,0,0,0.53113,unsorted_card,33,0,33,0,1,,,,,,,,,,,,,,,,,,,,,,,,,,,,,,,,,,,,,,,,,,,,,,,,,,,,,,,,,,,,,,,,,,,,,,,,,,,,,,,,,
,,,,,,,,,,1600837,2020-10-19_11h46.53.728,swahili,2020.2.4,MacIntel,60,,,,,,,,,,0.39445118,0.448506673,1,0,0,0.78238,study_pile,34,0,34,0,1,BRIBE - RUSHWA,,,,,,,,,,,,,,,,,,,,,,,,,,,,,,,,,,,,,,,,,,,,,,,,,,,,,,,,,,,,,,,,,,,,,,,,,,,,,,,,
,,,,,,,,,,1600837,2020-10-19_11h46.53.728,swahili,2020.2.4,MacIntel,60,,,,,,,,,,-0.236016426,0.081390381,1,0,0,0.463895,unsorted_card,35,0,35,0,1,,,,,,,,,,,,,,,,,,,,,,,,,,,,,,,,,,,,,,,,,,,,,,,,,,,,,,,,,,,,,,,,,,,,,,,,,,,,,,,,,
,,,,,,,,,,1600837,2020-10-19_11h46.53.728,swahili,2020.2.4,MacIntel,60,,,,,,,,,,0.445209553,0.440470378,1,0,0,0.781295,study_pile,36,0,36,0,1,ORPHAN - YATIMA,,,,,,,,,,,,,,,,,,,,,,,,,,,,,,,,,,,,,,,,,,,,,,,,,,,,,,,,,,,,,,,,,,,,,,,,,,,,,,,,
,,,,,,,,,,1600837,2020-10-19_11h46.53.728,swahili,2020.2.4,MacIntel,60,,,,,,,,,,-0.219625046,0.040812174,1,0,0,0.450465,unsorted_card,37,0,37,0,1,,,,,,,,,,,,,,,,,,,,,,,,,,,,,,,,,,,,,,,,,,,,,,,,,,,,,,,,,,,,,,,,,,,,,,,,,,,,,,,,,
,,,,,,,,,,1600837,2020-10-19_11h46.53.728,swahili,2020.2.4,MacIntel,60,,,,,,,,,,0.368771733,0.417185465,1,0,0,0.760725,study_pile,38,0,38,0,1,DIVORCE - TALAKA,,,,,,,,,,,,,,,,,,,,,,,,,,,,,,,,,,,,,,,,,,,,,,,,,,,,,,,,,,,,,,,,,,,,,,,,,,,,,,,,
,,,,,,,,,,1600837,2020-10-19_11h46.53.728,swahili,2020.2.4,MacIntel,60,,,,,,,,,,-0.35891746,0.000335693,1,0,0,0.430435,unsorted_card,39,0,39,0,1,,,,,,,,,,,,,,,,,,,,,,,,,,,,,,,,,,,,,,,,,,,,,,,,,,,,,,,,,,,,,,,,,,,,,,,,,,,,,,,,,
,,,,,,,,,,1600837,2020-10-19_11h46.53.728,swahili,2020.2.4,MacIntel,60,,,,,,,,,,0.527566801,0.556650798,1,0,0,1.13179,study_pile,40,0,40,0,1,BOAT - MASHUA,,,,,,,,,,,,,,,,,,,,,,,,,,,,,,,,,,,,,,,,,,,,,,,,,,,,,,,,,,,,,,,,,,,,,,,,,,,,,,,,
,,,,,,,,,,1600837,2020-10-19_11h46.53.728,swahili,2020.2.4,MacIntel,60,,,,,,,,,,-0.067744555,0.136189779,1,0,0,0.530645,unsorted_card,41,0,41,0,1,,,,,,,,,,,,,,,,,,,,,,,,,,,,,,,,,,,,,,,,,,,,,,,,,,,,,,,,,,,,,,,,,,,,,,,,,,,,,,,,,
,,,,,,,,,,1600837,2020-10-19_11h46.53.728,swahili,2020.2.4,MacIntel,60,,,,,,,,,,0.378614568,0.505218506,1,0,0,0.748285,study_pile,42,0,42,0,1,TREASURE - DAFINA,,,,,,,,,,,,,,,,,,,,,,,,,,,,,,,,,,,,,,,,,,,,,,,,,,,,,,,,,,,,,,,,,,,,,,,,,,,,,,,,
,,,,,,,,,,1600837,2020-10-19_11h46.53.728,swahili,2020.2.4,MacIntel,60,,,,,,,,,,,,,,,,,,,,,,,0.386684434,0.026082357,1,0,0,1.282575,test_first,,,,,0,0,0,0,1,,,,,,,,,,,,,,,,,,,,,,,,,,,,,,,,,,,,,,,,,,,,,,,,,,,,,,,,,,,,,,,,
,,,,,,,,,,1600837,2020-10-19_11h46.53.728,swahili,2020.2.4,MacIntel,60,,,,,,,,,,,,,,,,,,,,,,,,,,,,,,,,,,,,,,,return,,,,,,1.17385,5.74716,0.427028047,-0.055185954,1,0,0,0.66591,yes,PARROT,TAFIRI,incorrect,0,0,0,0,1,,,,,,,,,,,,,,,,,,,,,,,,,,,,,,,,,,,,,,,,,
,,,,,,,,,,1600837,2020-10-19_11h46.53.728,swahili,2020.2.4,MacIntel,60,,,,,,,,,,,,,,,,,,,,,,,,,,,,,,,,,,,,,,,,,,,,,,2.747665,0.451369189,0.047027588,1,0,0,0.73272,yes,CORN,NAFAKA,incorrect,1,0,1,0,1,,,,,,,,,,,,,,,,,,,,,,,,,,,,,,,,,,,,,,,,,
,,,,,,,,,,1600837,2020-10-19_11h46.53.728,swahili,2020.2.4,MacIntel,60,,,,,,,,,,,,,,,,,,,,,,,,,,,,,,,,,,,,,,,,,,,,,,3.716045,0.44431735,-0.075581868,1,0,0,0.59863,yes,MERCHANT,UNITRI,incorrect,2,0,2,0,1,,,,,,,,,,,,,,,,,,,,,,,,,,,,,,,,,,,,,,,,,
,,,,,,,,,,1600837,2020-10-19_11h46.53.728,swahili,2020.2.4,MacIntel,60,,,,,,,,,,,,,,,,,,,,,,,,,,,,,,,,,,,,,,,,,,,,,,4.481055,0.390510615,-0.029174805,1,0,0,0.75096,yes,POEM,UTENZU,incorrect,3,0,3,0,1,,,,,,,,,,,,,,,,,,,,,,,,,,,,,,,,,,,,,,,,,
,,,,,,,,,,1600837,2020-10-19_11h46.53.728,swahili,2020.2.4,MacIntel,60,,,,,,,,,,,,,,,,,,,,,,,,,,,,,,,,,,,,,,,,,,,,,,3.53012,0.320838671,-0.054138184,1,0,0,0.684055,yes,BLAME,NAJIRI,incorrect,4,0,4,0,1,,,,,,,,,,,,,,,,,,,,,,,,,,,,,,,,,,,,,,,,,
,,,,,,,,,,1600837,2020-10-19_11h46.53.728,swahili,2020.2.4,MacIntel,60,,,,,,,,,,,,,,,,,,,,,,,,,,,,,,,,,,,,,,,,,,,,,,4.02963,0.437259791,0.083485921,1,0,0,0.733375,yes,GRAPES,ZABIRI,incorrect,5,0,5,0,1,,,,,,,,,,,,,,,,,,,,,,,,,,,,,,,,,,,,,,,,,
,,,,,,,,,,1600837,2020-10-19_11h46.53.728,swahili,2020.2.4,MacIntel,60,,,,,,,,,,,,,,,,,,,,,,,,,,,,,,,,,,,,,,,,,,,,,,5.031545,0.458163662,-0.137145996,1,0,0,0.59682,yes,CHEESE,AJSJSJ,incorrect,6,0,6,0,1,,,,,,,,,,,,,,,,,,,,,,,,,,,,,,,,,,,,,,,,,
,,,,,,,,,,1600837,2020-10-19_11h46.53.728,swahili,2020.2.4,MacIntel,60,,,,,,,,,,,,,,,,,,,,,,,,,,,,,,,,,,,,,,,,0,0,0,0,1,,,,,,,,,,,,,,,,,,,,,,,,,,,,,,,,,,,,,,,,,,,,,,,,,,,,,,,,,,
,,,,,,,,,,1600837,2020-10-19_11h46.53.728,swahili,2020.2.4,MacIntel,60,,,,,,,,,,,,,,,,,,,,,,MANURE - SAMADI,,,,,,,,return,1.94907,return,2.528865,0,0,0,0,1,,,,,,,,,,,,,,,,,,,,,,,,,,,,,,,,,,,,,,,,,,,,,,,,,,,,,,,,,,,,,,,,
,,,,,,,,,,1600837,2020-10-19_11h46.53.728,swahili,2020.2.4,MacIntel,60,,,,,,,,,,,,,,,,,,,,,,ORPHAN - YATIMA,,,,,,,,,,return,1.0305,1,0,1,0,1,,,,,,,,,,,,,,,,,,,,,,,,,,,,,,,,,,,,,,,,,,,,,,,,,,,,,,,,,,,,,,,,
,,,,,,,,,,1600837,2020-10-19_11h46.53.728,swahili,2020.2.4,MacIntel,60,,,,,,,,,,,,,,,,,,,,,,TREASURE - DAFINA,,,,,,,,,,return,0.98831,2,0,2,0,1,,,,,,,,,,,,,,,,,,,,,,,,,,,,,,,,,,,,,,,,,,,,,,,,,,,,,,,,,,,,,,,,
,,,,,,,,,,1600837,2020-10-19_11h46.53.728,swahili,2020.2.4,MacIntel,60,,,,,,,,,,,,,,,,,,,,,,AGENT - WAKILI,,,,,,,,,,return,0.989655,3,0,3,0,1,,,,,,,,,,,,,,,,,,,,,,,,,,,,,,,,,,,,,,,,,,,,,,,,,,,,,,,,,,,,,,,,
,,,,,,,,,,1600837,2020-10-19_11h46.53.728,swahili,2020.2.4,MacIntel,60,,,,,,,,,,,,,,,,,,,,,,OATH - YAMINI,,,,,,,,,,return,1.30452,4,0,4,0,1,,,,,,,,,,,,,,,,,,,,,,,,,,,,,,,,,,,,,,,,,,,,,,,,,,,,,,,,,,,,,,,,
,,,,,,,,,,1600837,2020-10-19_11h46.53.728,swahili,2020.2.4,MacIntel,60,,,,,,,,,,,,,,,,,,,,,,TAILOR - MSHONI,,,,,,,,,,return,0.74914,5,0,5,0,1,,,,,,,,,,,,,,,,,,,,,,,,,,,,,,,,,,,,,,,,,,,,,,,,,,,,,,,,,,,,,,,,
,,,,,,,,,,1600837,2020-10-19_11h46.53.728,swahili,2020.2.4,MacIntel,60,,,,,,,,,,,,,,,,,,,,,,YEAST - HAMIRA,,,,,,,,,,return,0.7505,6,0,6,0,1,,,,,,,,,,,,,,,,,,,,,,,,,,,,,,,,,,,,,,,,,,,,,,,,,,,,,,,,,,,,,,,,
,,,,,,,,,,1600837,2020-10-19_11h46.53.728,swahili,2020.2.4,MacIntel,60,,,,,,,,,,,,,,,,,,,,,,BRIBE - RUSHWA,,,,,,,,,,return,0.90068,7,0,7,0,1,,,,,,,,,,,,,,,,,,,,,,,,,,,,,,,,,,,,,,,,,,,,,,,,,,,,,,,,,,,,,,,,
,,,,,,,,,,1600837,2020-10-19_11h46.53.728,swahili,2020.2.4,MacIntel,60,,,,,,,,,,,,,,,,,,,,,,GRAVE - KABURI,,,,,,,,,,return,1.41805,8,0,8,0,1,,,,,,,,,,,,,,,,,,,,,,,,,,,,,,,,,,,,,,,,,,,,,,,,,,,,,,,,,,,,,,,,
,,,,,,,,,,1600837,2020-10-19_11h46.53.728,swahili,2020.2.4,MacIntel,60,,,,,,,,,,,,,,,,,,,,,,PLATE - SAHANI,,,,,,,,,,return,1.013795,9,0,9,0,1,,,,,,,,,,,,,,,,,,,,,,,,,,,,,,,,,,,,,,,,,,,,,,,,,,,,,,,,,,,,,,,,
,,,,,,,,,,1600837,2020-10-19_11h46.53.728,swahili,2020.2.4,MacIntel,60,,,,,,,,,,,,,,,,,,,,,,BOAT - MASHUA,,,,,,,,,,return,0.75585,10,0,10,0,1,,,,,,,,,,,,,,,,,,,,,,,,,,,,,,,,,,,,,,,,,,,,,,,,,,,,,,,,,,,,,,,,
,,,,,,,,,,1600837,2020-10-19_11h46.53.728,swahili,2020.2.4,MacIntel,60,,,,,,,,,,,,,,,,,,,,,,BULL - FAHILI,,,,,,,,,,return,0.528645,11,0,11,0,1,,,,,,,,,,,,,,,,,,,,,,,,,,,,,,,,,,,,,,,,,,,,,,,,,,,,,,,,,,,,,,,,
,,,,,,,,,,1600837,2020-10-19_11h46.53.728,swahili,2020.2.4,MacIntel,60,,,,,,,,,,,,,,,,,,,,,,DIVORCE - TALAKA,,,,,,,,,,return,0.546665,12,0,12,0,1,,,,,,,,,,,,,,,,,,,,,,,,,,,,,,,,,,,,,,,,,,,,,,,,,,,,,,,,,,,,,,,,
,,,,,,,,,,1600837,2020-10-19_11h46.53.728,swahili,2020.2.4,MacIntel,60,,,,,,,,,,,,,,,,,,,,,,,,,,,,,,,,,,,,,,,,1,0,1,0,1,,,,,,,,,,,,,,,,,,,,,,,,,,,,,,,,,,,,,,,,,,,,,,,,,,,,,,,,,,
,,,,,,,,,,1600837,2020-10-19_11h46.53.728,swahili,2020.2.4,MacIntel,60,,,,,,,,,,,,,,,,,,,,,,,,,,,,,,,,,,,,,,,,,,,,,,,,,,,,,,,,,,,,,,1,0,1,0,1,,,,,,,,,,,,,,,,,,,,,,,,,,,,,,,,,,,,
,,,,,,,,,,1600837,2020-10-19_11h46.53.728,swahili,2020.2.4,MacIntel,60,,,,,,,,,,-0.597936493,0.07220459,1,0,0,1.40148,unsorted_card,0,0,0,0,1,,,,,,,,,,,,,,,,,,,,,,,,,,,,,,,,,,,,,,,,,,,,,,,,,,,,,,,,,,,,,,,,,,,,,,,,,,,,,,,,,
,,,,,,,,,,1600837,2020-10-19_11h46.53.728,swahili,2020.2.4,MacIntel,60,,,,,,,,,,-0.189450265,-0.096130371,1,0,0,3.347895,unsorted_card,1,0,1,0,1,MERCHANT - TAJIRI,,,,,,,,,,,,,,,,,,,,,,,,,,,,,,,,,,,,,,,,,,,,,,,,,,,,,,,,,,,,,,,,,,,,,,,,,,,,,,,,
,,,,,,,,,,1600837,2020-10-19_11h46.53.728,swahili,2020.2.4,MacIntel,60,,,,,,,,,,0.511484261,0.002431234,1,0,0,1.813465,test_pile,2,0,2,0,1,MERCHANT - TAJIRI,,,,,,,,,,,,,,,,,,,,,,,,,,,,,,,,,,,,,,,,,,,,,,,,,,,,,,,,,,,,,,,,,,,,,,,,,,,,,,,,
,,,,,,,,,,1600837,2020-10-19_11h46.53.728,swahili,2020.2.4,MacIntel,60,,,,,,,,,,-0.226173591,-0.016448975,1,0,0,1.63275,unsorted_card,3,0,3,0,1,,,,,,,,,,,,,,,,,,,,,,,,,,,,,,,,,,,,,,,,,,,,,,,,,,,,,,,,,,,,,,,,,,,,,,,,,,,,,,,,,
,,,,,,,,,,1600837,2020-10-19_11h46.53.728,swahili,2020.2.4,MacIntel,60,,,,,,,,,,0.414582952,-0.084950765,1,0,0,2.064655,test_pile,4,0,4,0,1,PARROT - KASUKU,,,,,,,,,,,,,,,,,,,,,,,,,,,,,,,,,,,,,,,,,,,,,,,,,,,,,,,,,,,,,,,,,,,,,,,,,,,,,,,,
,,,,,,,,,,1600837,2020-10-19_11h46.53.728,swahili,2020.2.4,MacIntel,60,,,,,,,,,,-0.383321514,0.058024089,1,0,0,0.67976,unsorted_card,5,0,5,0,1,,,,,,,,,,,,,,,,,,,,,,,,,,,,,,,,,,,,,,,,,,,,,,,,,,,,,,,,,,,,,,,,,,,,,,,,,,,,,,,,,
,,,,,,,,,,1600837,2020-10-19_11h46.53.728,swahili,2020.2.4,MacIntel,60,,,,,,,,,,0.431420434,0.473388672,1,0,0,1.39956,study_pile,6,0,6,0,1,BULL - FAHILI,,,,,,,,,,,,,,,,,,,,,,,,,,,,,,,,,,,,,,,,,,,,,,,,,,,,,,,,,,,,,,,,,,,,,,,,,,,,,,,,
,,,,,,,,,,1600837,2020-10-19_11h46.53.728,swahili,2020.2.4,MacIntel,60,,,,,,,,,,-0.49593933,-0.157755534,1,0,0,0.481335,unsorted_card,7,0,7,0,1,,,,,,,,,,,,,,,,,,,,,,,,,,,,,,,,,,,,,,,,,,,,,,,,,,,,,,,,,,,,,,,,,,,,,,,,,,,,,,,,,
,,,,,,,,,,1600837,2020-10-19_11h46.53.728,swahili,2020.2.4,MacIntel,60,,,,,,,,,,0.522339403,0.532165527,1,0,0,1.24776,study_pile,8,0,8,0,1,PLATE - SAHANI,,,,,,,,,,,,,,,,,,,,,,,,,,,,,,,,,,,,,,,,,,,,,,,,,,,,,,,,,,,,,,,,,,,,,,,,,,,,,,,,
,,,,,,,,,,1600837,2020-10-19_11h46.53.728,swahili,2020.2.4,MacIntel,60,,,,,,,,,,-0.179035505,0.143351237,1,0,0,0.54919,unsorted_card,9,0,9,0,1,,,,,,,,,,,,,,,,,,,,,,,,,,,,,,,,,,,,,,,,,,,,,,,,,,,,,,,,,,,,,,,,,,,,,,,,,,,,,,,,,
,,,,,,,,,,1600837,2020-10-19_11h46.53.728,swahili,2020.2.4,MacIntel,60,,,,,,,,,,0.38755948,0.441741943,1,0,0,1.014565,study_pile,10,0,10,0,1,YEAST - HAMIRA,,,,,,,,,,,,,,,,,,,,,,,,,,,,,,,,,,,,,,,,,,,,,,,,,,,,,,,,,,,,,,,,,,,,,,,,,,,,,,,,
,,,,,,,,,,1600837,2020-10-19_11h46.53.728,swahili,2020.2.4,MacIntel,60,,,,,,,,,,-0.199573344,-0.125203451,1,0,0,0.53143,unsorted_card,11,0,11,0,1,,,,,,,,,,,,,,,,,,,,,,,,,,,,,,,,,,,,,,,,,,,,,,,,,,,,,,,,,,,,,,,,,,,,,,,,,,,,,,,,,
,,,,,,,,,,1600837,2020-10-19_11h46.53.728,swahili,2020.2.4,MacIntel,60,,,,,,,,,,0.520103175,0.01574707,1,0,0,1.73129,test_pile,12,0,12,0,1,BLAME - LAWAMA,,,,,,,,,,,,,,,,,,,,,,,,,,,,,,,,,,,,,,,,,,,,,,,,,,,,,,,,,,,,,,,,,,,,,,,,,,,,,,,,
,,,,,,,,,,1600837,2020-10-19_11h46.53.728,swahili,2020.2.4,MacIntel,60,,,,,,,,,,-0.320180957,-0.084625244,1,0,0,0.64766,unsorted_card,13,0,13,0,1,,,,,,,,,,,,,,,,,,,,,,,,,,,,,,,,,,,,,,,,,,,,,,,,,,,,,,,,,,,,,,,,,,,,,,,,,,,,,,,,,
,,,,,,,,,,1600837,2020-10-19_11h46.53.728,swahili,2020.2.4,MacIntel,60,,,,,,,,,,0.554310029,0.462758382,1,0,0,1.115205,study_pile,14,0,14,0,1,OATH - YAMINI,,,,,,,,,,,,,,,,,,,,,,,,,,,,,,,,,,,,,,,,,,,,,,,,,,,,,,,,,,,,,,,,,,,,,,,,,,,,,,,,
,,,,,,,,,,1600837,2020-10-19_11h46.53.728,swahili,2020.2.4,MacIntel,60,,,,,,,,,,-0.376715776,-0.174031576,1,0,0,0.52944,unsorted_card,15,0,15,0,1,,,,,,,,,,,,,,,,,,,,,,,,,,,,,,,,,,,,,,,,,,,,,,,,,,,,,,,,,,,,,,,,,,,,,,,,,,,,,,,,,
,,,,,,,,,,1600837,2020-10-19_11h46.53.728,swahili,2020.2.4,MacIntel,60,,,,,,,,,,0.398946514,0.03990682,1,0,0,0.74924,test_pile,16,0,16,0,1,CORN - NAFAKA,,,,,,,,,,,,,,,,,,,,,,,,,,,,,,,,,,,,,,,,,,,,,,,,,,,,,,,,,,,,,,,,,,,,,,,,,,,,,,,,
,,,,,,,,,,1600837,2020-10-19_11h46.53.728,swahili,2020.2.4,MacIntel,60,,,,,,,,,,-0.292259563,-0.027008057,1,0,0,0.446445,unsorted_card,17,0,17,0,1,,,,,,,,,,,,,,,,,,,,,,,,,,,,,,,,,,,,,,,,,,,,,,,,,,,,,,,,,,,,,,,,,,,,,,,,,,,,,,,,,
,,,,,,,,,,1600837,2020-10-19_11h46.53.728,swahili,2020.2.4,MacIntel,60,,,,,,,,,,0.331579429,-0.000935872,1,0,0,1.48199,test_pile,18,0,18,0,1,POEM - UTENZI,,,,,,,,,,,,,,,,,,,,,,,,,,,,,,,,,,,,,,,,,,,,,,,,,,,,,,,,,,,,,,,,,,,,,,,,,,,,,,,,
,,,,,,,,,,1600837,2020-10-19_11h46.53.728,swahili,2020.2.4,MacIntel,60,,,,,,,,,,-0.183914028,-0.033477783,1,0,0,0.44495,unsorted_card,19,0,19,0,1,,,,,,,,,,,,,,,,,,,,,,,,,,,,,,,,,,,,,,,,,,,,,,,,,,,,,,,,,,,,,,,,,,,,,,,,,,,,,,,,,
,,,,,,,,,,1600837,2020-10-19_11h46.53.728,swahili,2020.2.4,MacIntel,60,,,,,,,,,,0.462292963,0.391723633,1,0,0,1.815065,study_pile,20,0,20,0,1,TAILOR - MSHONI,,,,,,,,,,,,,,,,,,,,,,,,,,,,,,,,,,,,,,,,,,,,,,,,,,,,,,,,,,,,,,,,,,,,,,,,,,,,,,,,
,,,,,,,,,,1600837,2020-10-19_11h46.53.728,swahili,2020.2.4,MacIntel,60,,,,,,,,,,-0.269199533,-0.058583577,1,0,0,0.44838,unsorted_card,21,0,21,0,1,,,,,,,,,,,,,,,,,,,,,,,,,,,,,,,,,,,,,,,,,,,,,,,,,,,,,,,,,,,,,,,,,,,,,,,,,,,,,,,,,
,,,,,,,,,,1600837,2020-10-19_11h46.53.728,swahili,2020.2.4,MacIntel,60,,,,,,,,,,0.338654145,0.00785319,1,0,0,1.065025,test_pile,22,0,22,0,1,CHEESE - JIBINI,,,,,,,,,,,,,,,,,,,,,,,,,,,,,,,,,,,,,,,,,,,,,,,,,,,,,,,,,,,,,,,,,,,,,,,,,,,,,,,,
,,,,,,,,,,1600837,2020-10-19_11h46.53.728,swahili,2020.2.4,MacIntel,60,,,,,,,,,,-0.324653413,-0.068094889,1,0,0,0.48119,unsorted_card,23,0,23,0,1,,,,,,,,,,,,,,,,,,,,,,,,,,,,,,,,,,,,,,,,,,,,,,,,,,,,,,,,,,,,,,,,,,,,,,,,,,,,,,,,,
,,,,,,,,,,1600837,2020-10-19_11h46.53.728,swahili,2020.2.4,MacIntel,60,,,,,,,,,,0.464346175,-0.007080078,1,0,0,1.080455,test_pile,24,0,24,0,1,GRAPES - ZABIBU,,,,,,,,,,,,,,,,,,,,,,,,,,,,,,,,,,,,,,,,,,,,,,,,,,,,,,,,,,,,,,,,,,,,,,,,,,,,,,,,
,,,,,,,,,,1600837,2020-10-19_11h46.53.728,swahili,2020.2.4,MacIntel,60,,,,,,,,,,-0.398368869,-0.006174723,1,0,0,0.59842,unsorted_card,25,0,25,0,1,,,,,,,,,,,,,,,,,,,,,,,,,,,,,,,,,,,,,,,,,,,,,,,,,,,,,,,,,,,,,,,,,,,,,,,,,,,,,,,,,
,,,,,,,,,,1600837,2020-10-19_11h46.53.728,swahili,2020.2.4,MacIntel,60,,,,,,,,,,0.506823069,0.408396403,1,0,0,1.430995,study_pile,26,0,26,0,1,GRAVE - KABURI,,,,,,,,,,,,,,,,,,,,,,,,,,,,,,,,,,,,,,,,,,,,,,,,,,,,,,,,,,,,,,,,,,,,,,,,,,,,,,,,
,,,,,,,,,,1600837,2020-10-19_11h46.53.728,swahili,2020.2.4,MacIntel,60,,,,,,,,,,-0.335371294,-0.010152181,1,0,0,0.563535,unsorted_card,27,0,27,0,1,,,,,,,,,,,,,,,,,,,,,,,,,,,,,,,,,,,,,,,,,,,,,,,,,,,,,,,,,,,,,,,,,,,,,,,,,,,,,,,,,
,,,,,,,,,,1600837,2020-10-19_11h46.53.728,swahili,2020.2.4,MacIntel,60,,,,,,,,,,0.504483895,0.468068441,1,0,0,1.14955,study_pile,28,0,28,0,1,MANURE - SAMADI,,,,,,,,,,,,,,,,,,,,,,,,,,,,,,,,,,,,,,,,,,,,,,,,,,,,,,,,,,,,,,,,,,,,,,,,,,,,,,,,
,,,,,,,,,,1600837,2020-10-19_11h46.53.728,swahili,2020.2.4,MacIntel,60,,,,,,,,,,-0.370310212,0.003519694,1,0,0,0.680955,unsorted_card,29,0,29,0,1,,,,,,,,,,,,,,,,,,,,,,,,,,,,,,,,,,,,,,,,,,,,,,,,,,,,,,,,,,,,,,,,,,,,,,,,,,,,,,,,,
,,,,,,,,,,1600837,2020-10-19_11h46.53.728,swahili,2020.2.4,MacIntel,60,,,,,,,,,,0.354004621,0.324625651,1,0,0,4.029885,study_pile,30,0,30,0,1,AGENT - WAKILI,,,,,,,,,,,,,,,,,,,,,,,,,,,,,,,,,,,,,,,,,,,,,,,,,,,,,,,,,,,,,,,,,,,,,,,,,,,,,,,,
,,,,,,,,,,1600837,2020-10-19_11h46.53.728,swahili,2020.2.4,MacIntel,60,,,,,,,,,,-0.219888131,0.075744629,1,0,0,0.49707,unsorted_card,31,0,31,0,1,,,,,,,,,,,,,,,,,,,,,,,,,,,,,,,,,,,,,,,,,,,,,,,,,,,,,,,,,,,,,,,,,,,,,,,,,,,,,,,,,
,,,,,,,,,,1600837,2020-10-19_11h46.53.728,swahili,2020.2.4,MacIntel,60,,,,,,,,,,0.360433062,0.362386068,1,0,0,2.263385,study_pile,32,0,32,0,1,BRIBE - RUSHWA,,,,,,,,,,,,,,,,,,,,,,,,,,,,,,,,,,,,,,,,,,,,,,,,,,,,,,,,,,,,,,,,,,,,,,,,,,,,,,,,
,,,,,,,,,,1600837,2020-10-19_11h46.53.728,swahili,2020.2.4,MacIntel,60,,,,,,,,,,-0.262147694,-0.046325684,1,0,0,0.526475,unsorted_card,33,0,33,0,1,,,,,,,,,,,,,,,,,,,,,,,,,,,,,,,,,,,,,,,,,,,,,,,,,,,,,,,,,,,,,,,,,,,,,,,,,,,,,,,,,
,,,,,,,,,,1600837,2020-10-19_11h46.53.728,swahili,2020.2.4,MacIntel,60,,,,,,,,,,0.457408721,0.408172607,1,0,0,1.58087,study_pile,34,0,34,0,1,ORPHAN - YATIMA,,,,,,,,,,,,,,,,,,,,,,,,,,,,,,,,,,,,,,,,,,,,,,,,,,,,,,,,,,,,,,,,,,,,,,,,,,,,,,,,
,,,,,,,,,,1600837,2020-10-19_11h46.53.728,swahili,2020.2.4,MacIntel,60,,,,,,,,,,-0.166001327,-0.074676514,1,0,0,0.514975,unsorted_card,35,0,35,0,1,,,,,,,,,,,,,,,,,,,,,,,,,,,,,,,,,,,,,,,,,,,,,,,,,,,,,,,,,,,,,,,,,,,,,,,,,,,,,,,,,
,,,,,,,,,,1600837,2020-10-19_11h46.53.728,swahili,2020.2.4,MacIntel,60,,,,,,,,,,0.378288571,0.038564046,1,0,0,1.732395,test_pile,36,0,36,0,1,DIVORCE - TALAKA,,,,,,,,,,,,,,,,,,,,,,,,,,,,,,,,,,,,,,,,,,,,,,,,,,,,,,,,,,,,,,,,,,,,,,,,,,,,,,,,
,,,,,,,,,,1600837,2020-10-19_11h46.53.728,swahili,2020.2.4,MacIntel,60,,,,,,,,,,-0.306437592,0.031443278,1,0,0,0.46283,unsorted_card,37,0,37,0,1,,,,,,,,,,,,,,,,,,,,,,,,,,,,,,,,,,,,,,,,,,,,,,,,,,,,,,,,,,,,,,,,,,,,,,,,,,,,,,,,,
,,,,,,,,,,1600837,2020-10-19_11h46.53.728,swahili,2020.2.4,MacIntel,60,,,,,,,,,,0.548590776,0.476206462,1,0,0,0.76592,study_pile,38,0,38,0,1,BOAT - MASHUA,,,,,,,,,,,,,,,,,,,,,,,,,,,,,,,,,,,,,,,,,,,,,,,,,,,,,,,,,,,,,,,,,,,,,,,,,,,,,,,,
,,,,,,,,,,1600837,2020-10-19_11h46.53.728,swahili,2020.2.4,MacIntel,60,,,,,,,,,,-0.230119876,0.192392985,1,0,0,0.56318,unsorted_card,39,0,39,0,1,,,,,,,,,,,,,,,,,,,,,,,,,,,,,,,,,,,,,,,,,,,,,,,,,,,,,,,,,,,,,,,,,,,,,,,,,,,,,,,,,
,,,,,,,,,,1600837,2020-10-19_11h46.53.728,swahili,2020.2.4,MacIntel,60,,,,,,,,,,0.479513635,0.508290609,1,0,0,0.81568,study_pile,40,0,40,0,1,TREASURE - DAFINA,,,,,,,,,,,,,,,,,,,,,,,,,,,,,,,,,,,,,,,,,,,,,,,,,,,,,,,,,,,,,,,,,,,,,,,,,,,,,,,,
,,,,,,,,,,1600837,2020-10-19_11h46.53.728,swahili,2020.2.4,MacIntel,60,,,,,,,,,,,,,,,,,,,,,,,0.472398884,0.00475057,1,0,0,0.81509,test_first,,,,,0,0,0,0,1,,,,,,,,,,,,,,,,,,,,,,,,,,,,,,,,,,,,,,,,,,,,,,,,,,,,,,,,,,,,,,,,
,,,,,,,,,,1600837,2020-10-19_11h46.53.728,swahili,2020.2.4,MacIntel,60,,,,,,,,,,,,,,,,,,,,,,,,,,,,,,,,,,,,,,,return,,,,,,1.07055,2.862455,0.332940611,-0.137471517,1,0,0,0.96754,yes,MERCHANT,AH,incorrect,0,0,0,0,1,,,,,,,,,,,,,,,,,,,,,,,,,,,,,,,,,,,,,,,,,
,,,,,,,,,,1600837,2020-10-19_11h46.53.728,swahili,2020.2.4,MacIntel,60,,,,,,,,,,,,,,,,,,,,,,,,,,,,,,,,,,,,,,,,,,,,,,7.16376,0.436790813,-0.067118327,1,0,0,0.61638,yes,BLAME,WAHSH,incorrect,1,0,1,0,1,,,,,,,,,,,,,,,,,,,,,,,,,,,,,,,,,,,,,,,,,
,,,,,,,,,,1600837,2020-10-19_11h46.53.728,swahili,2020.2.4,MacIntel,60,,,,,,,,,,,,,,,,,,,,,,,,,,,,,,,,,,,,,,,,,,,,,,3.89692,0.447628798,-0.140655518,1,0,0,0.616985,yes,DIVORCE,MUAHS,incorrect,2,0,2,0,1,,,,,,,,,,,,,,,,,,,,,,,,,,,,,,,,,,,,,,,,,
,,,,,,,,,,1600837,2020-10-19_11h46.53.728,swahili,2020.2.4,MacIntel,60,,,,,,,,,,,,,,,,,,,,,,,,,,,,,,,,,,,,,,,,,,,,,,4.248685,0.461538022,0.011362712,1,0,0,0.68397,yes,CHEESE,ZIBINI,incorrect,3,0,3,0,1,,,,,,,,,,,,,,,,,,,,,,,,,,,,,,,,,,,,,,,,,
,,,,,,,,,,1600837,2020-10-19_11h46.53.728,swahili,2020.2.4,MacIntel,60,,,,,,,,,,,,,,,,,,,,,,,,,,,,,,,,,,,,,,,,,,,,,,9.265415,0.477460423,-0.182027181,1,0,0,0.650345,yes,POEM,UZENSI,incorrect,4,0,4,0,1,,,,,,,,,,,,,,,,,,,,,,,,,,,,,,,,,,,,,,,,,
,,,,,,,,,,1600837,2020-10-19_11h46.53.728,swahili,2020.2.4,MacIntel,60,,,,,,,,,,,,,,,,,,,,,,,,,,,,,,,,,,,,,,,,,,,,,,4.014215,0.408629209,-0.056233724,1,0,0,0.783865,yes,PARROT,KALAKA,incorrect,5,0,5,0,1,,,,,,,,,,,,,,,,,,,,,,,,,,,,,,,,,,,,,,,,,
,,,,,,,,,,1600837,2020-10-19_11h46.53.728,swahili,2020.2.4,MacIntel,60,,,,,,,,,,,,,,,,,,,,,,,,,,,,,,,,,,,,,,,,,,,,,,3.56464,0.437402773,0.119191488,1,0,0,1.01647,yes,GRAPES,ZABIRI,incorrect,6,0,6,0,1,,,,,,,,,,,,,,,,,,,,,,,,,,,,,,,,,,,,,,,,,
,,,,,,,,,,1600837,2020-10-19_11h46.53.728,swahili,2020.2.4,MacIntel,60,,,,,,,,,,,,,,,,,,,,,,,,,,,,,,,,,,,,,,,,,,,,,,5.831585,0.500823572,0.050679525,1,0,0,0.783505,yes,CORN,NAZAKU,incorrect,7,0,7,0,1,,,,,,,,,,,,,,,,,,,,,,,,,,,,,,,,,,,,,,,,,
,,,,,,,,,,1600837,2020-10-19_11h46.53.728,swahili,2020.2.4,MacIntel,60,,,,,,,,,,,,,,,,,,,,,,,,,,,,,,,,,,,,,,,,0,0,0,0,1,,,,,,,,,,,,,,,,,,,,,,,,,,,,,,,,,,,,,,,,,,,,,,,,,,,,,,,,,,
,,,,,,,,,,1600837,2020-10-19_11h46.53.728,swahili,2020.2.4,MacIntel,60,,,,,,,,,,,,,,,,,,,,,,BULL - FAHILI,,,,,,,,return,0.93885,return,58.38693,0,0,0,0,1,,,,,,,,,,,,,,,,,,,,,,,,,,,,,,,,,,,,,,,,,,,,,,,,,,,,,,,,,,,,,,,,
,,,,,,,,,,1600837,2020-10-19_11h46.53.728,swahili,2020.2.4,MacIntel,60,,,,,,,,,,,,,,,,,,,,,,OATH - YAMINI,,,,,,,,,,return,1.798795,1,0,1,0,1,,,,,,,,,,,,,,,,,,,,,,,,,,,,,,,,,,,,,,,,,,,,,,,,,,,,,,,,,,,,,,,,
,,,,,,,,,,1600837,2020-10-19_11h46.53.728,swahili,2020.2.4,MacIntel,60,,,,,,,,,,,,,,,,,,,,,,TREASURE - DAFINA,,,,,,,,,,return,1.67659,2,0,2,0,1,,,,,,,,,,,,,,,,,,,,,,,,,,,,,,,,,,,,,,,,,,,,,,,,,,,,,,,,,,,,,,,,
,,,,,,,,,,1600837,2020-10-19_11h46.53.728,swahili,2020.2.4,MacIntel,60,,,,,,,,,,,,,,,,,,,,,,AGENT - WAKILI,,,,,,,,,,return,1.525555,3,0,3,0,1,,,,,,,,,,,,,,,,,,,,,,,,,,,,,,,,,,,,,,,,,,,,,,,,,,,,,,,,,,,,,,,,
,,,,,,,,,,1600837,2020-10-19_11h46.53.728,swahili,2020.2.4,MacIntel,60,,,,,,,,,,,,,,,,,,,,,,MANURE - SAMADI,,,,,,,,,,return,2.944615,4,0,4,0,1,,,,,,,,,,,,,,,,,,,,,,,,,,,,,,,,,,,,,,,,,,,,,,,,,,,,,,,,,,,,,,,,
,,,,,,,,,,1600837,2020-10-19_11h46.53.728,swahili,2020.2.4,MacIntel,60,,,,,,,,,,,,,,,,,,,,,,BRIBE - RUSHWA,,,,,,,,,,return,2.02223,5,0,5,0,1,,,,,,,,,,,,,,,,,,,,,,,,,,,,,,,,,,,,,,,,,,,,,,,,,,,,,,,,,,,,,,,,
,,,,,,,,,,1600837,2020-10-19_11h46.53.728,swahili,2020.2.4,MacIntel,60,,,,,,,,,,,,,,,,,,,,,,GRAVE - KABURI,,,,,,,,,,return,1.48537,6,0,6,0,1,,,,,,,,,,,,,,,,,,,,,,,,,,,,,,,,,,,,,,,,,,,,,,,,,,,,,,,,,,,,,,,,
,,,,,,,,,,1600837,2020-10-19_11h46.53.728,swahili,2020.2.4,MacIntel,60,,,,,,,,,,,,,,,,,,,,,,ORPHAN - YATIMA,,,,,,,,,,return,1.50459,7,0,7,0,1,,,,,,,,,,,,,,,,,,,,,,,,,,,,,,,,,,,,,,,,,,,,,,,,,,,,,,,,,,,,,,,,
,,,,,,,,,,1600837,2020-10-19_11h46.53.728,swahili,2020.2.4,MacIntel,60,,,,,,,,,,,,,,,,,,,,,,YEAST - HAMIRA,,,,,,,,,,return,1.53177,8,0,8,0,1,,,,,,,,,,,,,,,,,,,,,,,,,,,,,,,,,,,,,,,,,,,,,,,,,,,,,,,,,,,,,,,,
,,,,,,,,,,1600837,2020-10-19_11h46.53.728,swahili,2020.2.4,MacIntel,60,,,,,,,,,,,,,,,,,,,,,,PLATE - SAHANI,,,,,,,,,,return,1.0998,9,0,9,0,1,,,,,,,,,,,,,,,,,,,,,,,,,,,,,,,,,,,,,,,,,,,,,,,,,,,,,,,,,,,,,,,,
,,,,,,,,,,1600837,2020-10-19_11h46.53.728,swahili,2020.2.4,MacIntel,60,,,,,,,,,,,,,,,,,,,,,,TAILOR - MSHONI,,,,,,,,,,return,1.913545,10,0,10,0,1,,,,,,,,,,,,,,,,,,,,,,,,,,,,,,,,,,,,,,,,,,,,,,,,,,,,,,,,,,,,,,,,
,,,,,,,,,,1600837,2020-10-19_11h46.53.728,swahili,2020.2.4,MacIntel,60,,,,,,,,,,,,,,,,,,,,,,BOAT - MASHUA,,,,,,,,,,return,2.41557,11,0,11,0,1,,,,,,,,,,,,,,,,,,,,,,,,,,,,,,,,,,,,,,,,,,,,,,,,,,,,,,,,,,,,,,,,
,,,,,,,,,,1600837,2020-10-19_11h46.53.728,swahili,2020.2.4,MacIntel,60,,,,,,,,,,,,,,,,,,,,,,,,,,,,,,,,,,,,,,,,1,0,1,0,1,,,,,,,,,,,,,,,,,,,,,,,,,,,,,,,,,,,,,,,,,,,,,,,,,,,,,,,,,,
,,,,,,,,,,1600837,2020-10-19_11h46.53.728,swahili,2020.2.4,MacIntel,60,,,,,,,,,,,,,,,,,,,,,,,,,,,,,,,,,,,,,,,,,,,,,,,,,,,,,,,,,,,,,,2,0,2,0,1,,,,,,,,,,,,,,,,,,,,,,,,,,,,,,,,,,,,
,,,,,,,,,,1600837,2020-10-19_11h46.53.728,swahili,2020.2.4,MacIntel,60,,,,,,,,,,-0.217531799,-0.041544596,1,0,0,1.53559,unsorted_card,0,0,0,0,1,,,,,,,,,,,,,,,,,,,,,,,,,,,,,,,,,,,,,,,,,,,,,,,,,,,,,,,,,,,,,,,,,,,,,,,,,,,,,,,,,
,,,,,,,,,,1600837,2020-10-19_11h46.53.728,swahili,2020.2.4,MacIntel,60,,,,,,,,,,0.370418878,-0.008524577,1,0,0,3.69974,test_pile,1,0,1,0,1,MERCHANT - TAJIRI,,,,,,,,,,,,,,,,,,,,,,,,,,,,,,,,,,,,,,,,,,,,,,,,,,,,,,,,,,,,,,,,,,,,,,,,,,,,,,,,
,,,,,,,,,,1600837,2020-10-19_11h46.53.728,swahili,2020.2.4,MacIntel,60,,,,,,,,,,-0.250634837,-0.103464762,1,0,0,0.62998,unsorted_card,2,0,2,0,1,,,,,,,,,,,,,,,,,,,,,,,,,,,,,,,,,,,,,,,,,,,,,,,,,,,,,,,,,,,,,,,,,,,,,,,,,,,,,,,,,
,,,,,,,,,,1600837,2020-10-19_11h46.53.728,swahili,2020.2.4,MacIntel,60,,,,,,,,,,0.478701501,-0.088887533,1,0,0,1.731195,test_pile,3,0,3,0,1,PARROT - KASUKU,,,,,,,,,,,,,,,,,,,,,,,,,,,,,,,,,,,,,,,,,,,,,,,,,,,,,,,,,,,,,,,,,,,,,,,,,,,,,,,,
,,,,,,,,,,1600837,2020-10-19_11h46.53.728,swahili,2020.2.4,MacIntel,60,,,,,,,,,,-0.24823847,-0.082560221,1,0,0,0.664585,unsorted_card,4,0,4,0,1,,,,,,,,,,,,,,,,,,,,,,,,,,,,,,,,,,,,,,,,,,,,,,,,,,,,,,,,,,,,,,,,,,,,,,,,,,,,,,,,,
,,,,,,,,,,1600837,2020-10-19_11h46.53.728,swahili,2020.2.4,MacIntel,60,,,,,,,,,,0.50574785,0.576507568,1,0,0,1.09829,study_pile,5,0,5,0,1,BULL - FAHILI,,,,,,,,,,,,,,,,,,,,,,,,,,,,,,,,,,,,,,,,,,,,,,,,,,,,,,,,,,,,,,,,,,,,,,,,,,,,,,,,
,,,,,,,,,,1600837,2020-10-19_11h46.53.728,swahili,2020.2.4,MacIntel,60,,,,,,,,,,-0.222839266,-0.037241618,1,0,0,0.76307,unsorted_card,6,0,6,0,1,,,,,,,,,,,,,,,,,,,,,,,,,,,,,,,,,,,,,,,,,,,,,,,,,,,,,,,,,,,,,,,,,,,,,,,,,,,,,,,,,
,,,,,,,,,,1600837,2020-10-19_11h46.53.728,swahili,2020.2.4,MacIntel,60,,,,,,,,,,0.475996294,0.476359049,1,0,0,1.099225,study_pile,7,0,7,0,1,PLATE - SAHANI,,,,,,,,,,,,,,,,,,,,,,,,,,,,,,,,,,,,,,,,,,,,,,,,,,,,,,,,,,,,,,,,,,,,,,,,,,,,,,,,
,,,,,,,,,,1600837,2020-10-19_11h46.53.728,swahili,2020.2.4,MacIntel,60,,,,,,,,,,-0.181723554,0.084035238,1,0,0,0.564755,unsorted_card,8,0,8,0,1,,,,,,,,,,,,,,,,,,,,,,,,,,,,,,,,,,,,,,,,,,,,,,,,,,,,,,,,,,,,,,,,,,,,,,,,,,,,,,,,,
,,,,,,,,,,1600837,2020-10-19_11h46.53.728,swahili,2020.2.4,MacIntel,60,,,,,,,,,,0.396813232,0.484710693,1,0,0,0.897405,study_pile,9,0,9,0,1,YEAST - HAMIRA,,,,,,,,,,,,,,,,,,,,,,,,,,,,,,,,,,,,,,,,,,,,,,,,,,,,,,,,,,,,,,,,,,,,,,,,,,,,,,,,
,,,,,,,,,,1600837,2020-10-19_11h46.53.728,swahili,2020.2.4,MacIntel,60,,,,,,,,,,-0.321279054,-0.032399495,1,0,0,0.43082,unsorted_card,10,0,10,0,1,,,,,,,,,,,,,,,,,,,,,,,,,,,,,,,,,,,,,,,,,,,,,,,,,,,,,,,,,,,,,,,,,,,,,,,,,,,,,,,,,
,,,,,,,,,,1600837,2020-10-19_11h46.53.728,swahili,2020.2.4,MacIntel,60,,,,,,,,,,0.420788342,-0.047770182,1,0,0,1.28091,test_pile,11,0,11,0,1,BLAME - LAWAMA,,,,,,,,,,,,,,,,,,,,,,,,,,,,,,,,,,,,,,,,,,,,,,,,,,,,,,,,,,,,,,,,,,,,,,,,,,,,,,,,
,,,,,,,,,,1600837,2020-10-19_11h46.53.728,swahili,2020.2.4,MacIntel,60,,,,,,,,,,-0.333461063,0.030893962,1,0,0,0.53168,unsorted_card,12,0,12,0,1,,,,,,,,,,,,,,,,,,,,,,,,,,,,,,,,,,,,,,,,,,,,,,,,,,,,,,,,,,,,,,,,,,,,,,,,,,,,,,,,,
,,,,,,,,,,1600837,2020-10-19_11h46.53.728,swahili,2020.2.4,MacIntel,60,,,,,,,,,,0.458466783,0.434977214,1,0,0,1.231955,study_pile,13,0,13,0,1,OATH - YAMINI,,,,,,,,,,,,,,,,,,,,,,,,,,,,,,,,,,,,,,,,,,,,,,,,,,,,,,,,,,,,,,,,,,,,,,,,,,,,,,,,
,,,,,,,,,,1600837,2020-10-19_11h46.53.728,swahili,2020.2.4,MacIntel,60,,,,,,,,,,-0.459599195,-0.13196818,1,0,0,0.47897,unsorted_card,14,0,14,0,1,,,,,,,,,,,,,,,,,,,,,,,,,,,,,,,,,,,,,,,,,,,,,,,,,,,,,,,,,,,,,,,,,,,,,,,,,,,,,,,,,
,,,,,,,,,,1600837,2020-10-19_11h46.53.728,swahili,2020.2.4,MacIntel,60,,,,,,,,,,0.409441343,-0.020426432,1,0,0,1.21595,test_pile,15,0,15,0,1,CORN - NAFAKA,,,,,,,,,,,,,,,,,,,,,,,,,,,,,,,,,,,,,,,,,,,,,,,,,,,,,,,,,,,,,,,,,,,,,,,,,,,,,,,,
,,,,,,,,,,1600837,2020-10-19_11h46.53.728,swahili,2020.2.4,MacIntel,60,,,,,,,,,,-0.315954429,0.027496338,1,0,0,0.5486,unsorted_card,16,0,16,0,1,,,,,,,,,,,,,,,,,,,,,,,,,,,,,,,,,,,,,,,,,,,,,,,,,,,,,,,,,,,,,,,,,,,,,,,,,,,,,,,,,
,,,,,,,,,,1600837,2020-10-19_11h46.53.728,swahili,2020.2.4,MacIntel,60,,,,,,,,,,0.471786923,-0.01940918,1,0,0,1.34743,test_pile,17,0,17,0,1,POEM - UTENZI,,,,,,,,,,,,,,,,,,,,,,,,,,,,,,,,,,,,,,,,,,,,,,,,,,,,,,,,,,,,,,,,,,,,,,,,,,,,,,,,
,,,,,,,,,,1600837,2020-10-19_11h46.53.728,swahili,2020.2.4,MacIntel,60,,,,,,,,,,-0.263977855,-0.012064616,1,0,0,0.54824,unsorted_card,18,0,18,0,1,,,,,,,,,,,,,,,,,,,,,,,,,,,,,,,,,,,,,,,,,,,,,,,,,,,,,,,,,,,,,,,,,,,,,,,,,,,,,,,,,
,,,,,,,,,,1600837,2020-10-19_11h46.53.728,swahili,2020.2.4,MacIntel,60,,,,,,,,,,0.516196925,0.014475505,1,0,0,0.96408,test_pile,19,0,19,0,1,TAILOR - MSHONI,,,,,,,,,,,,,,,,,,,,,,,,,,,,,,,,,,,,,,,,,,,,,,,,,,,,,,,,,,,,,,,,,,,,,,,,,,,,,,,,
,,,,,,,,,,1600837,2020-10-19_11h46.53.728,swahili,2020.2.4,MacIntel,60,,,,,,,,,,-0.213139413,-0.000783285,1,0,0,0.515115,unsorted_card,20,0,20,0,1,,,,,,,,,,,,,,,,,,,,,,,,,,,,,,,,,,,,,,,,,,,,,,,,,,,,,,,,,,,,,,,,,,,,,,,,,,,,,,,,,
,,,,,,,,,,1600837,2020-10-19_11h46.53.728,swahili,2020.2.4,MacIntel,60,,,,,,,,,,0.407668375,-0.036956787,1,0,0,1.13163,test_pile,21,0,21,0,1,CHEESE - JIBINI,,,,,,,,,,,,,,,,,,,,,,,,,,,,,,,,,,,,,,,,,,,,,,,,,,,,,,,,,,,,,,,,,,,,,,,,,,,,,,,,
,,,,,,,,,,1600837,2020-10-19_11h46.53.728,swahili,2020.2.4,MacIntel,60,,,,,,,,,,-0.14989591,-0.05774943,1,0,0,0.5313,unsorted_card,22,0,22,0,1,,,,,,,,,,,,,,,,,,,,,,,,,,,,,,,,,,,,,,,,,,,,,,,,,,,,,,,,,,,,,,,,,,,,,,,,,,,,,,,,,
,,,,,,,,,,1600837,2020-10-19_11h46.53.728,swahili,2020.2.4,MacIntel,60,,,,,,,,,,0.521933336,0.041137695,1,0,0,0.899535,test_pile,23,0,23,0,1,GRAPES - ZABIBU,,,,,,,,,,,,,,,,,,,,,,,,,,,,,,,,,,,,,,,,,,,,,,,,,,,,,,,,,,,,,,,,,,,,,,,,,,,,,,,,
,,,,,,,,,,1600837,2020-10-19_11h46.53.728,swahili,2020.2.4,MacIntel,60,,,,,,,,,,-0.33677823,0.024068197,1,0,0,0.74663,unsorted_card,24,0,24,0,1,,,,,,,,,,,,,,,,,,,,,,,,,,,,,,,,,,,,,,,,,,,,,,,,,,,,,,,,,,,,,,,,,,,,,,,,,,,,,,,,,
,,,,,,,,,,1600837,2020-10-19_11h46.53.728,swahili,2020.2.4,MacIntel,60,,,,,,,,,,0.397013406,0.455373128,1,0,0,1.03124,study_pile,25,0,25,0,1,GRAVE - KABURI,,,,,,,,,,,,,,,,,,,,,,,,,,,,,,,,,,,,,,,,,,,,,,,,,,,,,,,,,,,,,,,,,,,,,,,,,,,,,,,,
,,,,,,,,,,1600837,2020-10-19_11h46.53.728,swahili,2020.2.4,MacIntel,60,,,,,,,,,,-0.219911008,0.052998861,1,0,0,0.480515,unsorted_card,26,0,26,0,1,,,,,,,,,,,,,,,,,,,,,,,,,,,,,,,,,,,,,,,,,,,,,,,,,,,,,,,,,,,,,,,,,,,,,,,,,,,,,,,,,
,,,,,,,,,,1600837,2020-10-19_11h46.53.728,swahili,2020.2.4,MacIntel,60,,,,,,,,,,0.389063644,0.402028402,1,0,0,1.398645,study_pile,27,0,27,0,1,MANURE - SAMADI,,,,,,,,,,,,,,,,,,,,,,,,,,,,,,,,,,,,,,,,,,,,,,,,,,,,,,,,,,,,,,,,,,,,,,,,,,,,,,,,
,,,,,,,,,,1600837,2020-10-19_11h46.53.728,swahili,2020.2.4,MacIntel,60,,,,,,,,,,-0.084679264,0.071085612,1,0,0,0.44739,unsorted_card,28,0,28,0,1,,,,,,,,,,,,,,,,,,,,,,,,,,,,,,,,,,,,,,,,,,,,,,,,,,,,,,,,,,,,,,,,,,,,,,,,,,,,,,,,,
,,,,,,,,,,1600837,2020-10-19_11h46.53.728,swahili,2020.2.4,MacIntel,60,,,,,,,,,,0.362120242,0.528615316,1,0,0,1.065315,study_pile,29,0,29,0,1,AGENT - WAKILI,,,,,,,,,,,,,,,,,,,,,,,,,,,,,,,,,,,,,,,,,,,,,,,,,,,,,,,,,,,,,,,,,,,,,,,,,,,,,,,,
,,,,,,,,,,1600837,2020-10-19_11h46.53.728,swahili,2020.2.4,MacIntel,60,,,,,,,,,,-0.296674826,-0.00487264,1,0,0,0.547435,unsorted_card,30,0,30,0,1,,,,,,,,,,,,,,,,,,,,,,,,,,,,,,,,,,,,,,,,,,,,,,,,,,,,,,,,,,,,,,,,,,,,,,,,,,,,,,,,,
,,,,,,,,,,1600837,2020-10-19_11h46.53.728,swahili,2020.2.4,MacIntel,60,,,,,,,,,,0.289073939,0.437764486,1,0,0,0.850505,study_pile,31,0,31,0,1,BRIBE - RUSHWA,,,,,,,,,,,,,,,,,,,,,,,,,,,,,,,,,,,,,,,,,,,,,,,,,,,,,,,,,,,,,,,,,,,,,,,,,,,,,,,,
,,,,,,,,,,1600837,2020-10-19_11h46.53.728,swahili,2020.2.4,MacIntel,60,,,,,,,,,,-0.283926611,0.068837484,1,0,0,0.69569,unsorted_card,32,0,32,0,1,,,,,,,,,,,,,,,,,,,,,,,,,,,,,,,,,,,,,,,,,,,,,,,,,,,,,,,,,,,,,,,,,,,,,,,,,,,,,,,,,
,,,,,,,,,,1600837,2020-10-19_11h46.53.728,swahili,2020.2.4,MacIntel,60,,,,,,,,,,0.509974378,0.56648763,1,0,0,0.69957,study_pile,33,0,33,0,1,ORPHAN - YATIMA,,,,,,,,,,,,,,,,,,,,,,,,,,,,,,,,,,,,,,,,,,,,,,,,,,,,,,,,,,,,,,,,,,,,,,,,,,,,,,,,
,,,,,,,,,,1600837,2020-10-19_11h46.53.728,swahili,2020.2.4,MacIntel,60,,,,,,,,,,-0.384705573,-0.014017741,1,0,0,0.56429,unsorted_card,34,0,34,0,1,,,,,,,,,,,,,,,,,,,,,,,,,,,,,,,,,,,,,,,,,,,,,,,,,,,,,,,,,,,,,,,,,,,,,,,,,,,,,,,,,
,,,,,,,,,,1600837,2020-10-19_11h46.53.728,swahili,2020.2.4,MacIntel,60,,,,,,,,,,0.394634197,0.03523763,1,0,0,1.680405,test_pile,35,0,35,0,1,DIVORCE - TALAKA,,,,,,,,,,,,,,,,,,,,,,,,,,,,,,,,,,,,,,,,,,,,,,,,,,,,,,,,,,,,,,,,,,,,,,,,,,,,,,,,
,,,,,,,,,,1600837,2020-10-19_11h46.53.728,swahili,2020.2.4,MacIntel,60,,,,,,,,,,-0.272802663,0.043375651,1,0,0,0.479025,unsorted_card,36,0,36,0,1,,,,,,,,,,,,,,,,,,,,,,,,,,,,,,,,,,,,,,,,,,,,,,,,,,,,,,,,,,,,,,,,,,,,,,,,,,,,,,,,,
,,,,,,,,,,1600837,2020-10-19_11h46.53.728,swahili,2020.2.4,MacIntel,60,,,,,,,,,,0.462756223,0.472452799,1,0,0,1.26445,study_pile,37,0,37,0,1,BOAT - MASHUA,,,,,,,,,,,,,,,,,,,,,,,,,,,,,,,,,,,,,,,,,,,,,,,,,,,,,,,,,,,,,,,,,,,,,,,,,,,,,,,,
,,,,,,,,,,1600837,2020-10-19_11h46.53.728,swahili,2020.2.4,MacIntel,60,,,,,,,,,,-0.137570919,0.116190592,1,0,0,0.54848,unsorted_card,38,0,38,0,1,,,,,,,,,,,,,,,,,,,,,,,,,,,,,,,,,,,,,,,,,,,,,,,,,,,,,,,,,,,,,,,,,,,,,,,,,,,,,,,,,
,,,,,,,,,,1600837,2020-10-19_11h46.53.728,swahili,2020.2.4,MacIntel,60,,,,,,,,,,0.400107522,0.506917318,1,0,0,0.69739,study_pile,39,0,39,0,1,TREASURE - DAFINA,,,,,,,,,,,,,,,,,,,,,,,,,,,,,,,,,,,,,,,,,,,,,,,,,,,,,,,,,,,,,,,,,,,,,,,,,,,,,,,,
,,,,,,,,,,1600837,2020-10-19_11h46.53.728,swahili,2020.2.4,MacIntel,60,,,,,,,,,,,,,,,,,,,,,,,0.412306689,0.048482259,1,0,0,0.99845,test_first,,,,,0,0,0,0,1,,,,,,,,,,,,,,,,,,,,,,,,,,,,,,,,,,,,,,,,,,,,,,,,,,,,,,,,,,,,,,,,
,,,,,,,,,,1600837,2020-10-19_11h46.53.728,swahili,2020.2.4,MacIntel,60,,,,,,,,,,,,,,,,,,,,,,,,,,,,,,,,,,,,,,,return,,,,,,0.982855,4.963885,0.564982156,-0.020751953,1,0,0,0.965505,yes,MERCHANT,MISINI,incorrect,0,0,0,0,1,,,,,,,,,,,,,,,,,,,,,,,,,,,,,,,,,,,,,,,,,
,,,,,,,,,,1600837,2020-10-19_11h46.53.728,swahili,2020.2.4,MacIntel,60,,,,,,,,,,,,,,,,,,,,,,,,,,,,,,,,,,,,,,,,,,,,,,4.763005,0.658097319,0.04985555,1,0,0,0.683765,yes,DIVORCE,TALAKA,incorrect,1,0,1,0,1,,,,,,,,,,,,,,,,,,,,,,,,,,,,,,,,,,,,,,,,,
,,,,,,,,,,1600837,2020-10-19_11h46.53.728,swahili,2020.2.4,MacIntel,60,,,,,,,,,,,,,,,,,,,,,,,,,,,,,,,,,,,,,,,,,,,,,,5.56298,0.332065566,-0.161153158,1,0,0,0.733515,yes,CORN,NAZIRI,incorrect,2,0,2,0,1,,,,,,,,,,,,,,,,,,,,,,,,,,,,,,,,,,,,,,,,,
,,,,,,,,,,1600837,2020-10-19_11h46.53.728,swahili,2020.2.4,MacIntel,60,,,,,,,,,,,,,,,,,,,,,,,,,,,,,,,,,,,,,,,,,,,,,,4.846275,0.310978679,-0.097066243,1,0,0,0.68414,yes,CHEESE,JIBITI,incorrect,3,0,3,0,1,,,,,,,,,,,,,,,,,,,,,,,,,,,,,,,,,,,,,,,,,
,,,,,,,,,,1600837,2020-10-19_11h46.53.728,swahili,2020.2.4,MacIntel,60,,,,,,,,,,,,,,,,,,,,,,,,,,,,,,,,,,,,,,,,,,,,,,3.679725,0.368605875,-0.103291829,1,0,0,0.63431,yes,BLAME,MAFAKA,incorrect,4,0,4,0,1,,,,,,,,,,,,,,,,,,,,,,,,,,,,,,,,,,,,,,,,,
,,,,,,,,,,1600837,2020-10-19_11h46.53.728,swahili,2020.2.4,MacIntel,60,,,,,,,,,,,,,,,,,,,,,,,,,,,,,,,,,,,,,,,,,,,,,,3.164765,0.432175375,0.033355713,1,0,0,0.6485,yes,POEM,UTENZI,incorrect,5,0,5,0,1,,,,,,,,,,,,,,,,,,,,,,,,,,,,,,,,,,,,,,,,,
,,,,,,,,,,1600837,2020-10-19_11h46.53.728,swahili,2020.2.4,MacIntel,60,,,,,,,,,,,,,,,,,,,,,,,,,,,,,,,,,,,,,,,,,,,,,,8.114815,0.351322291,-0.19732666,1,0,0,0.79927,yes,GRAPES,ZIBINI,incorrect,6,0,6,0,1,,,,,,,,,,,,,,,,,,,,,,,,,,,,,,,,,,,,,,,,,
,,,,,,,,,,1600837,2020-10-19_11h46.53.728,swahili,2020.2.4,MacIntel,60,,,,,,,,,,,,,,,,,,,,,,,,,,,,,,,,,,,,,,,,,,,,,,3.514475,0.603495608,0.08388265,1,0,0,0.59967,yes,PARROT,UTENZA,incorrect,7,0,7,0,1,,,,,,,,,,,,,,,,,,,,,,,,,,,,,,,,,,,,,,,,,
,,,,,,,,,,1600837,2020-10-19_11h46.53.728,swahili,2020.2.4,MacIntel,60,,,,,,,,,,,,,,,,,,,,,,,,,,,,,,,,,,,,,,,,,,,,,,5.1469,0.526874771,0.01075236,1,0,0,0.584295,yes,TAILOR,MSHIBU,incorrect,8,0,8,0,1,,,,,,,,,,,,,,,,,,,,,,,,,,,,,,,,,,,,,,,,,
,,,,,,,,,,1600837,2020-10-19_11h46.53.728,swahili,2020.2.4,MacIntel,60,,,,,,,,,,,,,,,,,,,,,,,,,,,,,,,,,,,,,,,,0,0,0,0,1,,,,,,,,,,,,,,,,,,,,,,,,,,,,,,,,,,,,,,,,,,,,,,,,,,,,,,,,,,
,,,,,,,,,,1600837,2020-10-19_11h46.53.728,swahili,2020.2.4,MacIntel,60,,,,,,,,,,,,,,,,,,,,,,MANURE - SAMADI,,,,,,,,return,0.10055,return,1.745705,0,0,0,0,1,,,,,,,,,,,,,,,,,,,,,,,,,,,,,,,,,,,,,,,,,,,,,,,,,,,,,,,,,,,,,,,,
,,,,,,,,,,1600837,2020-10-19_11h46.53.728,swahili,2020.2.4,MacIntel,60,,,,,,,,,,,,,,,,,,,,,,TREASURE - DAFINA,,,,,,,,,,return,0.7303,1,0,1,0,1,,,,,,,,,,,,,,,,,,,,,,,,,,,,,,,,,,,,,,,,,,,,,,,,,,,,,,,,,,,,,,,,
,,,,,,,,,,1600837,2020-10-19_11h46.53.728,swahili,2020.2.4,MacIntel,60,,,,,,,,,,,,,,,,,,,,,,OATH - YAMINI,,,,,,,,,,return,0.652995,2,0,2,0,1,,,,,,,,,,,,,,,,,,,,,,,,,,,,,,,,,,,,,,,,,,,,,,,,,,,,,,,,,,,,,,,,
,,,,,,,,,,1600837,2020-10-19_11h46.53.728,swahili,2020.2.4,MacIntel,60,,,,,,,,,,,,,,,,,,,,,,PLATE - SAHANI,,,,,,,,,,return,0.930605,3,0,3,0,1,,,,,,,,,,,,,,,,,,,,,,,,,,,,,,,,,,,,,,,,,,,,,,,,,,,,,,,,,,,,,,,,
,,,,,,,,,,1600837,2020-10-19_11h46.53.728,swahili,2020.2.4,MacIntel,60,,,,,,,,,,,,,,,,,,,,,,BOAT - MASHUA,,,,,,,,,,return,1.24827,4,0,4,0,1,,,,,,,,,,,,,,,,,,,,,,,,,,,,,,,,,,,,,,,,,,,,,,,,,,,,,,,,,,,,,,,,
,,,,,,,,,,1600837,2020-10-19_11h46.53.728,swahili,2020.2.4,MacIntel,60,,,,,,,,,,,,,,,,,,,,,,GRAVE - KABURI,,,,,,,,,,return,1.21822,5,0,5,0,1,,,,,,,,,,,,,,,,,,,,,,,,,,,,,,,,,,,,,,,,,,,,,,,,,,,,,,,,,,,,,,,,
,,,,,,,,,,1600837,2020-10-19_11h46.53.728,swahili,2020.2.4,MacIntel,60,,,,,,,,,,,,,,,,,,,,,,AGENT - WAKILI,,,,,,,,,,return,1.35717,6,0,6,0,1,,,,,,,,,,,,,,,,,,,,,,,,,,,,,,,,,,,,,,,,,,,,,,,,,,,,,,,,,,,,,,,,
,,,,,,,,,,1600837,2020-10-19_11h46.53.728,swahili,2020.2.4,MacIntel,60,,,,,,,,,,,,,,,,,,,,,,ORPHAN - YATIMA,,,,,,,,,,return,0.603165,7,0,7,0,1,,,,,,,,,,,,,,,,,,,,,,,,,,,,,,,,,,,,,,,,,,,,,,,,,,,,,,,,,,,,,,,,
,,,,,,,,,,1600837,2020-10-19_11h46.53.728,swahili,2020.2.4,MacIntel,60,,,,,,,,,,,,,,,,,,,,,,YEAST - HAMIRA,,,,,,,,,,return,0.466335,8,0,8,0,1,,,,,,,,,,,,,,,,,,,,,,,,,,,,,,,,,,,,,,,,,,,,,,,,,,,,,,,,,,,,,,,,
,,,,,,,,,,1600837,2020-10-19_11h46.53.728,swahili,2020.2.4,MacIntel,60,,,,,,,,,,,,,,,,,,,,,,BRIBE - RUSHWA,,,,,,,,,,return,0.86313,9,0,9,0,1,,,,,,,,,,,,,,,,,,,,,,,,,,,,,,,,,,,,,,,,,,,,,,,,,,,,,,,,,,,,,,,,
,,,,,,,,,,1600837,2020-10-19_11h46.53.728,swahili,2020.2.4,MacIntel,60,,,,,,,,,,,,,,,,,,,,,,BULL - FAHILI,,,,,,,,,,return,1.64853,10,0,10,0,1,,,,,,,,,,,,,,,,,,,,,,,,,,,,,,,,,,,,,,,,,,,,,,,,,,,,,,,,,,,,,,,,
,,,,,,,,,,1600837,2020-10-19_11h46.53.728,swahili,2020.2.4,MacIntel,60,,,,,,,,,,,,,,,,,,,,,,,,,,,,,,,,,,,,,,,,1,0,1,0,1,,,,,,,,,,,,,,,,,,,,,,,,,,,,,,,,,,,,,,,,,,,,,,,,,,,,,,,,,,
,,,,,,,,,,1600837,2020-10-19_11h46.53.728,swahili,2020.2.4,MacIntel,60,,,,,,,,,,,,,,,,,,,,,,,,,,,,,,,,,,,,,,,,,,,,,,,,,,,,,,,,,,,,,,3,0,3,0,1,,,,,,,,,,,,,,,,,,,,,,,,,,,,,,,,,,,,
,,,,,,,,,,1600837,2020-10-19_11h46.53.728,swahili,2020.2.4,MacIntel,60,,,,,,,,,,-0.305116444,-0.031636556,1,0,0,7.80972,unsorted_card,0,0,0,0,1,,,,,,,,,,,,,,,,,,,,,,,,,,,,,,,,,,,,,,,,,,,,,,,,,,,,,,,,,,,,,,,,,,,,,,,,,,,,,,,,,
,,,,,,,,,,1600837,2020-10-19_11h46.53.728,swahili,2020.2.4,MacIntel,60,,,,,,,,,,0.386484261,-0.091532389,1,0,0,2.00946,test_pile,1,0,1,0,1,MERCHANT - TAJIRI,,,,,,,,,,,,,,,,,,,,,,,,,,,,,,,,,,,,,,,,,,,,,,,,,,,,,,,,,,,,,,,,,,,,,,,,,,,,,,,,
,,,,,,,,,,1600837,2020-10-19_11h46.53.728,swahili,2020.2.4,MacIntel,60,,,,,,,,,,-0.49441229,-0.162963867,1,0,0,0.530445,unsorted_card,2,0,2,0,1,,,,,,,,,,,,,,,,,,,,,,,,,,,,,,,,,,,,,,,,,,,,,,,,,,,,,,,,,,,,,,,,,,,,,,,,,,,,,,,,,
,,,,,,,,,,1600837,2020-10-19_11h46.53.728,swahili,2020.2.4,MacIntel,60,,,,,,,,,,0.529597136,-0.043609619,1,0,0,0.92782,test_pile,3,0,3,0,1,PARROT - KASUKU,,,,,,,,,,,,,,,,,,,,,,,,,,,,,,,,,,,,,,,,,,,,,,,,,,,,,,,,,,,,,,,,,,,,,,,,,,,,,,,,
,,,,,,,,,,1600837,2020-10-19_11h46.53.728,swahili,2020.2.4,MacIntel,60,,,,,,,,,,-0.147047721,-0.069722493,1,0,0,0.798145,unsorted_card,4,0,4,0,1,,,,,,,,,,,,,,,,,,,,,,,,,,,,,,,,,,,,,,,,,,,,,,,,,,,,,,,,,,,,,,,,,,,,,,,,,,,,,,,,,
,,,,,,,,,,1600837,2020-10-19_11h46.53.728,swahili,2020.2.4,MacIntel,60,,,,,,,,,,0.509894308,0.512817383,1,0,0,1.14873,study_pile,5,0,5,0,1,BULL - FAHILI,,,,,,,,,,,,,,,,,,,,,,,,,,,,,,,,,,,,,,,,,,,,,,,,,,,,,,,,,,,,,,,,,,,,,,,,,,,,,,,,
,,,,,,,,,,1600837,2020-10-19_11h46.53.728,swahili,2020.2.4,MacIntel,60,,,,,,,,,,-0.494149204,-0.20694987,1,0,0,0.514735,unsorted_card,6,0,6,0,1,,,,,,,,,,,,,,,,,,,,,,,,,,,,,,,,,,,,,,,,,,,,,,,,,,,,,,,,,,,,,,,,,,,,,,,,,,,,,,,,,
,,,,,,,,,,1600837,2020-10-19_11h46.53.728,swahili,2020.2.4,MacIntel,60,,,,,,,,,,0.585971816,0.496612549,1,0,0,0.84719,study_pile,7,0,7,0,1,PLATE - SAHANI,,,,,,,,,,,,,,,,,,,,,,,,,,,,,,,,,,,,,,,,,,,,,,,,,,,,,,,,,,,,,,,,,,,,,,,,,,,,,,,,
,,,,,,,,,,1600837,2020-10-19_11h46.53.728,swahili,2020.2.4,MacIntel,60,,,,,,,,,,-0.395200403,-0.220438639,1,0,0,0.498185,unsorted_card,8,0,8,0,1,,,,,,,,,,,,,,,,,,,,,,,,,,,,,,,,,,,,,,,,,,,,,,,,,,,,,,,,,,,,,,,,,,,,,,,,,,,,,,,,,
,,,,,,,,,,1600837,2020-10-19_11h46.53.728,swahili,2020.2.4,MacIntel,60,,,,,,,,,,0.526445827,0.518961589,1,0,0,0.86489,study_pile,9,0,9,0,1,YEAST - HAMIRA,,,,,,,,,,,,,,,,,,,,,,,,,,,,,,,,,,,,,,,,,,,,,,,,,,,,,,,,,,,,,,,,,,,,,,,,,,,,,,,,
,,,,,,,,,,1600837,2020-10-19_11h46.53.728,swahili,2020.2.4,MacIntel,60,,,,,,,,,,-0.326546486,0.085835775,1,0,0,0.51527,unsorted_card,10,0,10,0,1,,,,,,,,,,,,,,,,,,,,,,,,,,,,,,,,,,,,,,,,,,,,,,,,,,,,,,,,,,,,,,,,,,,,,,,,,,,,,,,,,
,,,,,,,,,,1600837,2020-10-19_11h46.53.728,swahili,2020.2.4,MacIntel,60,,,,,,,,,,0.322342835,-0.067189535,1,0,0,1.230135,test_pile,11,0,11,0,1,BLAME - LAWAMA,,,,,,,,,,,,,,,,,,,,,,,,,,,,,,,,,,,,,,,,,,,,,,,,,,,,,,,,,,,,,,,,,,,,,,,,,,,,,,,,
,,,,,,,,,,1600837,2020-10-19_11h46.53.728,swahili,2020.2.4,MacIntel,60,,,,,,,,,,-0.346106332,0.008758545,1,0,0,0.46657,unsorted_card,12,0,12,0,1,,,,,,,,,,,,,,,,,,,,,,,,,,,,,,,,,,,,,,,,,,,,,,,,,,,,,,,,,,,,,,,,,,,,,,,,,,,,,,,,,
,,,,,,,,,,1600837,2020-10-19_11h46.53.728,swahili,2020.2.4,MacIntel,60,,,,,,,,,,0.432278322,0.440867106,1,0,0,1.213065,study_pile,13,0,13,0,1,OATH - YAMINI,,,,,,,,,,,,,,,,,,,,,,,,,,,,,,,,,,,,,,,,,,,,,,,,,,,,,,,,,,,,,,,,,,,,,,,,,,,,,,,,
,,,,,,,,,,1600837,2020-10-19_11h46.53.728,swahili,2020.2.4,MacIntel,60,,,,,,,,,,-0.220986228,-0.064585368,1,0,0,0.433205,unsorted_card,14,0,14,0,1,,,,,,,,,,,,,,,,,,,,,,,,,,,,,,,,,,,,,,,,,,,,,,,,,,,,,,,,,,,,,,,,,,,,,,,,,,,,,,,,,
,,,,,,,,,,1600837,2020-10-19_11h46.53.728,swahili,2020.2.4,MacIntel,60,,,,,,,,,,0.501801565,-0.109802246,1,0,0,0.947595,test_pile,15,0,15,0,1,CORN - NAFAKA,,,,,,,,,,,,,,,,,,,,,,,,,,,,,,,,,,,,,,,,,,,,,,,,,,,,,,,,,,,,,,,,,,,,,,,,,,,,,,,,
,,,,,,,,,,1600837,2020-10-19_11h46.53.728,swahili,2020.2.4,MacIntel,60,,,,,,,,,,-0.228998902,-0.002888997,1,0,0,3.564045,unsorted_card,16,0,16,0,1,,,,,,,,,,,,,,,,,,,,,,,,,,,,,,,,,,,,,,,,,,,,,,,,,,,,,,,,,,,,,,,,,,,,,,,,,,,,,,,,,
,,,,,,,,,,1600837,2020-10-19_11h46.53.728,swahili,2020.2.4,MacIntel,60,,,,,,,,,,0.587413067,-0.050811768,1,0,0,0.998715,test_pile,17,0,17,0,1,POEM - UTENZI,,,,,,,,,,,,,,,,,,,,,,,,,,,,,,,,,,,,,,,,,,,,,,,,,,,,,,,,,,,,,,,,,,,,,,,,,,,,,,,,
,,,,,,,,,,1600837,2020-10-19_11h46.53.728,swahili,2020.2.4,MacIntel,60,,,,,,,,,,-0.544232705,-0.118520101,1,0,0,0.58101,unsorted_card,18,0,18,0,1,,,,,,,,,,,,,,,,,,,,,,,,,,,,,,,,,,,,,,,,,,,,,,,,,,,,,,,,,,,,,,,,,,,,,,,,,,,,,,,,,
,,,,,,,,,,1600837,2020-10-19_11h46.53.728,swahili,2020.2.4,MacIntel,60,,,,,,,,,,0.46599332,-0.068786621,1,0,0,0.881665,test_pile,19,0,19,0,1,TAILOR - MSHONI,,,,,,,,,,,,,,,,,,,,,,,,,,,,,,,,,,,,,,,,,,,,,,,,,,,,,,,,,,,,,,,,,,,,,,,,,,,,,,,,
,,,,,,,,,,1600837,2020-10-19_11h46.53.728,swahili,2020.2.4,MacIntel,60,,,,,,,,,,-0.339660734,-0.291544596,1,0,0,0.94737,unsorted_card,20,0,20,0,1,,,,,,,,,,,,,,,,,,,,,,,,,,,,,,,,,,,,,,,,,,,,,,,,,,,,,,,,,,,,,,,,,,,,,,,,,,,,,,,,,
,,,,,,,,,,1600837,2020-10-19_11h46.53.728,swahili,2020.2.4,MacIntel,60,,,,,,,,,,0.482887994,-0.035654704,1,0,0,0.882135,test_pile,21,0,21,0,1,CHEESE - JIBINI,,,,,,,,,,,,,,,,,,,,,,,,,,,,,,,,,,,,,,,,,,,,,,,,,,,,,,,,,,,,,,,,,,,,,,,,,,,,,,,,
,,,,,,,,,,1600837,2020-10-19_11h46.53.728,swahili,2020.2.4,MacIntel,60,,,,,,,,,,-0.404168192,-0.037465413,1,0,0,0.497355,unsorted_card,22,0,22,0,1,,,,,,,,,,,,,,,,,,,,,,,,,,,,,,,,,,,,,,,,,,,,,,,,,,,,,,,,,,,,,,,,,,,,,,,,,,,,,,,,,
,,,,,,,,,,1600837,2020-10-19_11h46.53.728,swahili,2020.2.4,MacIntel,60,,,,,,,,,,0.49027155,-0.047414144,1,0,0,0.9657,test_pile,23,0,23,0,1,GRAPES - ZABIBU,,,,,,,,,,,,,,,,,,,,,,,,,,,,,,,,,,,,,,,,,,,,,,,,,,,,,,,,,,,,,,,,,,,,,,,,,,,,,,,,
,,,,,,,,,,1600837,2020-10-19_11h46.53.728,swahili,2020.2.4,MacIntel,60,,,,,,,,,,-0.151686036,-0.074534098,1,0,0,0.49706,unsorted_card,24,0,24,0,1,,,,,,,,,,,,,,,,,,,,,,,,,,,,,,,,,,,,,,,,,,,,,,,,,,,,,,,,,,,,,,,,,,,,,,,,,,,,,,,,,
,,,,,,,,,,1600837,2020-10-19_11h46.53.728,swahili,2020.2.4,MacIntel,60,,,,,,,,,,0.453731241,0.562937419,1,0,0,1.232645,study_pile,25,0,25,0,1,GRAVE - KABURI,,,,,,,,,,,,,,,,,,,,,,,,,,,,,,,,,,,,,,,,,,,,,,,,,,,,,,,,,,,,,,,,,,,,,,,,,,,,,,,,
,,,,,,,,,,1600837,2020-10-19_11h46.53.728,swahili,2020.2.4,MacIntel,60,,,,,,,,,,-0.109043283,0.020406087,1,0,0,0.48018,unsorted_card,26,0,26,0,1,,,,,,,,,,,,,,,,,,,,,,,,,,,,,,,,,,,,,,,,,,,,,,,,,,,,,,,,,,,,,,,,,,,,,,,,,,,,,,,,,
,,,,,,,,,,1600837,2020-10-19_11h46.53.728,swahili,2020.2.4,MacIntel,60,,,,,,,,,,0.467903551,0.344116211,1,0,0,0.78326,study_pile,27,0,27,0,1,MANURE - SAMADI,,,,,,,,,,,,,,,,,,,,,,,,,,,,,,,,,,,,,,,,,,,,,,,,,,,,,,,,,,,,,,,,,,,,,,,,,,,,,,,,
,,,,,,,,,,1600837,2020-10-19_11h46.53.728,swahili,2020.2.4,MacIntel,60,,,,,,,,,,-0.135174552,-0.052042643,1,0,0,0.597855,unsorted_card,28,0,28,0,1,,,,,,,,,,,,,,,,,,,,,,,,,,,,,,,,,,,,,,,,,,,,,,,,,,,,,,,,,,,,,,,,,,,,,,,,,,,,,,,,,
,,,,,,,,,,1600837,2020-10-19_11h46.53.728,swahili,2020.2.4,MacIntel,60,,,,,,,,,,0.40065657,0.293375651,1,0,0,0.8827,study_pile,29,0,29,0,1,AGENT - WAKILI,,,,,,,,,,,,,,,,,,,,,,,,,,,,,,,,,,,,,,,,,,,,,,,,,,,,,,,,,,,,,,,,,,,,,,,,,,,,,,,,
,,,,,,,,,,1600837,2020-10-19_11h46.53.728,swahili,2020.2.4,MacIntel,60,,,,,,,,,,-0.207746157,-0.09576416,1,0,0,0.580585,unsorted_card,30,0,30,0,1,,,,,,,,,,,,,,,,,,,,,,,,,,,,,,,,,,,,,,,,,,,,,,,,,,,,,,,,,,,,,,,,,,,,,,,,,,,,,,,,,
,,,,,,,,,,1600837,2020-10-19_11h46.53.728,swahili,2020.2.4,MacIntel,60,,,,,,,,,,0.331516517,0.394541423,1,0,0,0.881915,study_pile,31,0,31,0,1,BRIBE - RUSHWA,,,,,,,,,,,,,,,,,,,,,,,,,,,,,,,,,,,,,,,,,,,,,,,,,,,,,,,,,,,,,,,,,,,,,,,,,,,,,,,,
,,,,,,,,,,1600837,2020-10-19_11h46.53.728,swahili,2020.2.4,MacIntel,60,,,,,,,,,,-0.251996019,-0.038584391,1,0,0,0.56502,unsorted_card,32,0,32,0,1,,,,,,,,,,,,,,,,,,,,,,,,,,,,,,,,,,,,,,,,,,,,,,,,,,,,,,,,,,,,,,,,,,,,,,,,,,,,,,,,,
,,,,,,,,,,1600837,2020-10-19_11h46.53.728,swahili,2020.2.4,MacIntel,60,,,,,,,,,,0.381702965,0.554941813,1,0,0,0.63146,study_pile,33,0,33,0,1,ORPHAN - YATIMA,,,,,,,,,,,,,,,,,,,,,,,,,,,,,,,,,,,,,,,,,,,,,,,,,,,,,,,,,,,,,,,,,,,,,,,,,,,,,,,,
,,,,,,,,,,1600837,2020-10-19_11h46.53.728,swahili,2020.2.4,MacIntel,60,,,,,,,,,,-0.17409407,0.085764567,1,0,0,0.63125,unsorted_card,34,0,34,0,1,,,,,,,,,,,,,,,,,,,,,,,,,,,,,,,,,,,,,,,,,,,,,,,,,,,,,,,,,,,,,,,,,,,,,,,,,,,,,,,,,
,,,,,,,,,,1600837,2020-10-19_11h46.53.728,swahili,2020.2.4,MacIntel,60,,,,,,,,,,0.438375046,0.073435465,1,0,0,1.26398,test_pile,35,0,35,0,1,DIVORCE - TALAKA,,,,,,,,,,,,,,,,,,,,,,,,,,,,,,,,,,,,,,,,,,,,,,,,,,,,,,,,,,,,,,,,,,,,,,,,,,,,,,,,
,,,,,,,,,,1600837,2020-10-19_11h46.53.728,swahili,2020.2.4,MacIntel,60,,,,,,,,,,-0.332282897,-0.148101807,1,0,0,0.515355,unsorted_card,36,0,36,0,1,,,,,,,,,,,,,,,,,,,,,,,,,,,,,,,,,,,,,,,,,,,,,,,,,,,,,,,,,,,,,,,,,,,,,,,,,,,,,,,,,
,,,,,,,,,,1600837,2020-10-19_11h46.53.728,swahili,2020.2.4,MacIntel,60,,,,,,,,,,0.383006955,0.412770589,1,0,0,1.198385,study_pile,37,0,37,0,1,BOAT - MASHUA,,,,,,,,,,,,,,,,,,,,,,,,,,,,,,,,,,,,,,,,,,,,,,,,,,,,,,,,,,,,,,,,,,,,,,,,,,,,,,,,
,,,,,,,,,,1600837,2020-10-19_11h46.53.728,swahili,2020.2.4,MacIntel,60,,,,,,,,,,-0.14890076,0.105336507,1,0,0,1.16535,unsorted_card,38,0,38,0,1,,,,,,,,,,,,,,,,,,,,,,,,,,,,,,,,,,,,,,,,,,,,,,,,,,,,,,,,,,,,,,,,,,,,,,,,,,,,,,,,,
,,,,,,,,,,1600837,2020-10-19_11h46.53.728,swahili,2020.2.4,MacIntel,60,,,,,,,,,,0.498650256,0.401011149,1,0,0,0.8806,study_pile,39,0,39,0,1,TREASURE - DAFINA,,,,,,,,,,,,,,,,,,,,,,,,,,,,,,,,,,,,,,,,,,,,,,,,,,,,,,,,,,,,,,,,,,,,,,,,,,,,,,,,
,,,,,,,,,,1600837,2020-10-19_11h46.53.728,swahili,2020.2.4,MacIntel,60,,,,,,,,,,,,,,,,,,,,,,,0.423413479,-0.048746745,1,0,0,0.700895,test_first,,,,,0,0,0,0,1,,,,,,,,,,,,,,,,,,,,,,,,,,,,,,,,,,,,,,,,,,,,,,,,,,,,,,,,,,,,,,,,
,,,,,,,,,,1600837,2020-10-19_11h46.53.728,swahili,2020.2.4,MacIntel,60,,,,,,,,,,,,,,,,,,,,,,,,,,,,,,,,,,,,,,,return,,,,,,0.884225,2.863815,0.645023106,8.1382E-05,1,0,0,0.615305,yes,POEM,UTENZI,incorrect,0,0,0,0,1,,,,,,,,,,,,,,,,,,,,,,,,,,,,,,,,,,,,,,,,,
,,,,,,,,,,1600837,2020-10-19_11h46.53.728,swahili,2020.2.4,MacIntel,60,,,,,,,,,,,,,,,,,,,,,,,,,,,,,,,,,,,,,,,,,,,,,,7.998925,0.373633098,-0.101084391,1,0,0,0.582765,yes,PARROT,KAMAKA,incorrect,1,0,1,0,1,,,,,,,,,,,,,,,,,,,,,,,,,,,,,,,,,,,,,,,,,
,,,,,,,,,,1600837,2020-10-19_11h46.53.728,swahili,2020.2.4,MacIntel,60,,,,,,,,,,,,,,,,,,,,,,,,,,,,,,,,,,,,,,,,,,,,,,8.11372,0.348211018,-0.163187663,1,0,0,0.666885,yes,BLAME,MAFUKA,incorrect,2,0,2,0,1,,,,,,,,,,,,,,,,,,,,,,,,,,,,,,,,,,,,,,,,,
,,,,,,,,,,1600837,2020-10-19_11h46.53.728,swahili,2020.2.4,MacIntel,60,,,,,,,,,,,,,,,,,,,,,,,,,,,,,,,,,,,,,,,,,,,,,,3.71514,0.376864477,0.053283691,1,0,0,0.66812,yes,GRAPES,ZIBINI,incorrect,3,0,3,0,1,,,,,,,,,,,,,,,,,,,,,,,,,,,,,,,,,,,,,,,,,
,,,,,,,,,,1600837,2020-10-19_11h46.53.728,swahili,2020.2.4,MacIntel,60,,,,,,,,,,,,,,,,,,,,,,,,,,,,,,,,,,,,,,,,,,,,,,4.614915,0.486102214,0.018920898,1,0,0,0.6321,yes,MERCHANT,KIZITI,incorrect,4,0,4,0,1,,,,,,,,,,,,,,,,,,,,,,,,,,,,,,,,,,,,,,,,,
,,,,,,,,,,1600837,2020-10-19_11h46.53.728,swahili,2020.2.4,MacIntel,60,,,,,,,,,,,,,,,,,,,,,,,,,,,,,,,,,,,,,,,,,,,,,,3.28133,0.463980143,-0.057932536,1,0,0,0.583985,yes,CHEESE,JIBINI,incorrect,5,0,5,0,1,,,,,,,,,,,,,,,,,,,,,,,,,,,,,,,,,,,,,,,,,
,,,,,,,,,,1600837,2020-10-19_11h46.53.728,swahili,2020.2.4,MacIntel,60,,,,,,,,,,,,,,,,,,,,,,,,,,,,,,,,,,,,,,,,,,,,,,3.081,0.305997209,-0.145751953,1,0,0,0.56694,yes,DIVORCE,KALAKA,incorrect,6,0,6,0,1,,,,,,,,,,,,,,,,,,,,,,,,,,,,,,,,,,,,,,,,,
,,,,,,,,,,1600837,2020-10-19_11h46.53.728,swahili,2020.2.4,MacIntel,60,,,,,,,,,,,,,,,,,,,,,,,,,,,,,,,,,,,,,,,,,,,,,,3.130605,0.411677571,-0.155049642,1,0,0,0.60079,yes,TAILOR,MSHONI,incorrect,7,0,7,0,1,,,,,,,,,,,,,,,,,,,,,,,,,,,,,,,,,,,,,,,,,
,,,,,,,,,,1600837,2020-10-19_11h46.53.728,swahili,2020.2.4,MacIntel,60,,,,,,,,,,,,,,,,,,,,,,,,,,,,,,,,,,,,,,,,,,,,,,2.297725,0.404620013,0.046447754,1,0,0,0.733625,yes,CORN,NAFAKA,incorrect,8,0,8,0,1,,,,,,,,,,,,,,,,,,,,,,,,,,,,,,,,,,,,,,,,,
,,,,,,,,,,1600837,2020-10-19_11h46.53.728,swahili,2020.2.4,MacIntel,60,,,,,,,,,,,,,,,,,,,,,,,,,,,,,,,,,,,,,,,,0,0,0,0,1,,,,,,,,,,,,,,,,,,,,,,,,,,,,,,,,,,,,,,,,,,,,,,,,,,,,,,,,,,
,,,,,,,,,,1600837,2020-10-19_11h46.53.728,swahili,2020.2.4,MacIntel,60,,,,,,,,,,,,,,,,,,,,,,GRAVE - KABURI,,,,,,,,return,0.987425,return,2.029165,0,0,0,0,1,,,,,,,,,,,,,,,,,,,,,,,,,,,,,,,,,,,,,,,,,,,,,,,,,,,,,,,,,,,,,,,,
,,,,,,,,,,1600837,2020-10-19_11h46.53.728,swahili,2020.2.4,MacIntel,60,,,,,,,,,,,,,,,,,,,,,,BRIBE - RUSHWA,,,,,,,,,,return,1.856355,1,0,1,0,1,,,,,,,,,,,,,,,,,,,,,,,,,,,,,,,,,,,,,,,,,,,,,,,,,,,,,,,,,,,,,,,,
,,,,,,,,,,1600837,2020-10-19_11h46.53.728,swahili,2020.2.4,MacIntel,60,,,,,,,,,,,,,,,,,,,,,,TREASURE - DAFINA,,,,,,,,,,return,1.955445,2,0,2,0,1,,,,,,,,,,,,,,,,,,,,,,,,,,,,,,,,,,,,,,,,,,,,,,,,,,,,,,,,,,,,,,,,
,,,,,,,,,,1600837,2020-10-19_11h46.53.728,swahili,2020.2.4,MacIntel,60,,,,,,,,,,,,,,,,,,,,,,YEAST - HAMIRA,,,,,,,,,,return,1.564175,3,0,3,0,1,,,,,,,,,,,,,,,,,,,,,,,,,,,,,,,,,,,,,,,,,,,,,,,,,,,,,,,,,,,,,,,,
,,,,,,,,,,1600837,2020-10-19_11h46.53.728,swahili,2020.2.4,MacIntel,60,,,,,,,,,,,,,,,,,,,,,,OATH - YAMINI,,,,,,,,,,return,1.330285,4,0,4,0,1,,,,,,,,,,,,,,,,,,,,,,,,,,,,,,,,,,,,,,,,,,,,,,,,,,,,,,,,,,,,,,,,
,,,,,,,,,,1600837,2020-10-19_11h46.53.728,swahili,2020.2.4,MacIntel,60,,,,,,,,,,,,,,,,,,,,,,BULL - FAHILI,,,,,,,,,,return,1.30256,5,0,5,0,1,,,,,,,,,,,,,,,,,,,,,,,,,,,,,,,,,,,,,,,,,,,,,,,,,,,,,,,,,,,,,,,,
,,,,,,,,,,1600837,2020-10-19_11h46.53.728,swahili,2020.2.4,MacIntel,60,,,,,,,,,,,,,,,,,,,,,,BOAT - MASHUA,,,,,,,,,,return,1.98236,6,0,6,0,1,,,,,,,,,,,,,,,,,,,,,,,,,,,,,,,,,,,,,,,,,,,,,,,,,,,,,,,,,,,,,,,,
,,,,,,,,,,1600837,2020-10-19_11h46.53.728,swahili,2020.2.4,MacIntel,60,,,,,,,,,,,,,,,,,,,,,,MANURE - SAMADI,,,,,,,,,,return,0.896855,7,0,7,0,1,,,,,,,,,,,,,,,,,,,,,,,,,,,,,,,,,,,,,,,,,,,,,,,,,,,,,,,,,,,,,,,,
,,,,,,,,,,1600837,2020-10-19_11h46.53.728,swahili,2020.2.4,MacIntel,60,,,,,,,,,,,,,,,,,,,,,,ORPHAN - YATIMA,,,,,,,,,,return,0.871885,8,0,8,0,1,,,,,,,,,,,,,,,,,,,,,,,,,,,,,,,,,,,,,,,,,,,,,,,,,,,,,,,,,,,,,,,,
,,,,,,,,,,1600837,2020-10-19_11h46.53.728,swahili,2020.2.4,MacIntel,60,,,,,,,,,,,,,,,,,,,,,,PLATE - SAHANI,,,,,,,,,,return,1.49058,9,0,9,0,1,,,,,,,,,,,,,,,,,,,,,,,,,,,,,,,,,,,,,,,,,,,,,,,,,,,,,,,,,,,,,,,,
,,,,,,,,,,1600837,2020-10-19_11h46.53.728,swahili,2020.2.4,MacIntel,60,,,,,,,,,,,,,,,,,,,,,,AGENT - WAKILI,,,,,,,,,,return,1.30444,10,0,10,0,1,,,,,,,,,,,,,,,,,,,,,,,,,,,,,,,,,,,,,,,,,,,,,,,,,,,,,,,,,,,,,,,,
,,,,,,,,,,1600837,2020-10-19_11h46.53.728,swahili,2020.2.4,MacIntel,60,,,,,,,,,,,,,,,,,,,,,,,,,,,,,,,,,,,,,,,,1,0,1,0,1,,,,,,,,,,,,,,,,,,,,,,,,,,,,,,,,,,,,,,,,,,,,,,,,,,,,,,,,,,
,,,,,,,,,,1600837,2020-10-19_11h46.53.728,swahili,2020.2.4,MacIntel,60,,,,,,,,,,,,,,,,,,,,,,,,,,,,,,,,,,,,,,,,,,,,,,,,,,,,,,,,,,,,,,4,0,4,0,1,,,,,,,,,,,,,,,,,,,,,,,,,,,,,,,,,,,,
,,,,,,,,,,1600837,2020-10-19_11h46.53.728,swahili,2020.2.4,MacIntel,60,,,,,,,,,,-0.154471312,-0.007802327,1,0,0,1.21873,unsorted_card,0,0,0,0,1,,,,,,,,,,,,,,,,,,,,,,,,,,,,,,,,,,,,,,,,,,,,,,,,,,,,,,,,,,,,,,,,,,,,,,,,,,,,,,,,,
,,,,,,,,,,1600837,2020-10-19_11h46.53.728,swahili,2020.2.4,MacIntel,60,,,,,,,,,,0.528847914,-0.078226725,1,0,0,1.596885,test_pile,1,0,1,0,1,MERCHANT - TAJIRI,,,,,,,,,,,,,,,,,,,,,,,,,,,,,,,,,,,,,,,,,,,,,,,,,,,,,,,,,,,,,,,,,,,,,,,,,,,,,,,,
,,,,,,,,,,1600837,2020-10-19_11h46.53.728,swahili,2020.2.4,MacIntel,60,,,,,,,,,,-0.396338534,-0.064880371,1,0,0,0.644785,unsorted_card,2,0,2,0,1,,,,,,,,,,,,,,,,,,,,,,,,,,,,,,,,,,,,,,,,,,,,,,,,,,,,,,,,,,,,,,,,,,,,,,,,,,,,,,,,,
,,,,,,,,,,1600837,2020-10-19_11h46.53.728,swahili,2020.2.4,MacIntel,60,,,,,,,,,,0.398380307,0.030965169,1,0,0,0.98236,test_pile,3,0,3,0,1,PARROT - KASUKU,,,,,,,,,,,,,,,,,,,,,,,,,,,,,,,,,,,,,,,,,,,,,,,,,,,,,,,,,,,,,,,,,,,,,,,,,,,,,,,,
,,,,,,,,,,1600837,2020-10-19_11h46.53.728,swahili,2020.2.4,MacIntel,60,,,,,,,,,,-0.167385386,0.026448568,1,0,0,0.48053,unsorted_card,4,0,4,0,1,,,,,,,,,,,,,,,,,,,,,,,,,,,,,,,,,,,,,,,,,,,,,,,,,,,,,,,,,,,,,,,,,,,,,,,,,,,,,,,,,
,,,,,,,,,,1600837,2020-10-19_11h46.53.728,swahili,2020.2.4,MacIntel,60,,,,,,,,,,0.568116307,0.473134359,1,0,0,1.298515,study_pile,5,0,5,0,1,BULL - FAHILI,,,,,,,,,,,,,,,,,,,,,,,,,,,,,,,,,,,,,,,,,,,,,,,,,,,,,,,,,,,,,,,,,,,,,,,,,,,,,,,,
,,,,,,,,,,1600837,2020-10-19_11h46.53.728,swahili,2020.2.4,MacIntel,60,,,,,,,,,,-0.275158995,-0.246520996,1,0,0,0.530515,unsorted_card,6,0,6,0,1,,,,,,,,,,,,,,,,,,,,,,,,,,,,,,,,,,,,,,,,,,,,,,,,,,,,,,,,,,,,,,,,,,,,,,,,,,,,,,,,,
,,,,,,,,,,1600837,2020-10-19_11h46.53.728,swahili,2020.2.4,MacIntel,60,,,,,,,,,,0.403075814,-0.000864665,1,0,0,2.166,test_pile,7,0,7,0,1,PLATE - SAHANI,,,,,,,,,,,,,,,,,,,,,,,,,,,,,,,,,,,,,,,,,,,,,,,,,,,,,,,,,,,,,,,,,,,,,,,,,,,,,,,,
,,,,,,,,,,1600837,2020-10-19_11h46.53.728,swahili,2020.2.4,MacIntel,60,,,,,,,,,,-0.482007229,-0.067667643,1,0,0,0.497405,unsorted_card,8,0,8,0,1,,,,,,,,,,,,,,,,,,,,,,,,,,,,,,,,,,,,,,,,,,,,,,,,,,,,,,,,,,,,,,,,,,,,,,,,,,,,,,,,,
,,,,,,,,,,1600837,2020-10-19_11h46.53.728,swahili,2020.2.4,MacIntel,60,,,,,,,,,,0.487955253,0.464813232,1,0,0,1.531545,study_pile,9,0,9,0,1,YEAST - HAMIRA,,,,,,,,,,,,,,,,,,,,,,,,,,,,,,,,,,,,,,,,,,,,,,,,,,,,,,,,,,,,,,,,,,,,,,,,,,,,,,,,
,,,,,,,,,,1600837,2020-10-19_11h46.53.728,swahili,2020.2.4,MacIntel,60,,,,,,,,,,-0.361948664,-0.028778076,1,0,0,0.512795,unsorted_card,10,0,10,0,1,,,,,,,,,,,,,,,,,,,,,,,,,,,,,,,,,,,,,,,,,,,,,,,,,,,,,,,,,,,,,,,,,,,,,,,,,,,,,,,,,
,,,,,,,,,,1600837,2020-10-19_11h46.53.728,swahili,2020.2.4,MacIntel,60,,,,,,,,,,0.474778093,0.043660482,1,0,0,1.164845,test_pile,11,0,11,0,1,BLAME - LAWAMA,,,,,,,,,,,,,,,,,,,,,,,,,,,,,,,,,,,,,,,,,,,,,,,,,,,,,,,,,,,,,,,,,,,,,,,,,,,,,,,,
,,,,,,,,,,1600837,2020-10-19_11h46.53.728,swahili,2020.2.4,MacIntel,60,,,,,,,,,,-0.397150668,0.020151774,1,0,0,0.58234,unsorted_card,12,0,12,0,1,,,,,,,,,,,,,,,,,,,,,,,,,,,,,,,,,,,,,,,,,,,,,,,,,,,,,,,,,,,,,,,,,,,,,,,,,,,,,,,,,
,,,,,,,,,,1600837,2020-10-19_11h46.53.728,swahili,2020.2.4,MacIntel,60,,,,,,,,,,0.421274478,0.504130046,1,0,0,1.165365,study_pile,13,0,13,0,1,OATH - YAMINI,,,,,,,,,,,,,,,,,,,,,,,,,,,,,,,,,,,,,,,,,,,,,,,,,,,,,,,,,,,,,,,,,,,,,,,,,,,,,,,,
,,,,,,,,,,1600837,2020-10-19_11h46.53.728,swahili,2020.2.4,MacIntel,60,,,,,,,,,,-0.402561082,-0.195739746,1,0,0,0.496605,unsorted_card,14,0,14,0,1,,,,,,,,,,,,,,,,,,,,,,,,,,,,,,,,,,,,,,,,,,,,,,,,,,,,,,,,,,,,,,,,,,,,,,,,,,,,,,,,,
,,,,,,,,,,1600837,2020-10-19_11h46.53.728,swahili,2020.2.4,MacIntel,60,,,,,,,,,,0.492061676,-0.052764893,1,0,0,0.831265,test_pile,15,0,15,0,1,CORN - NAFAKA,,,,,,,,,,,,,,,,,,,,,,,,,,,,,,,,,,,,,,,,,,,,,,,,,,,,,,,,,,,,,,,,,,,,,,,,,,,,,,,,
,,,,,,,,,,1600837,2020-10-19_11h46.53.728,swahili,2020.2.4,MacIntel,60,,,,,,,,,,-0.253420113,-0.052652995,1,0,0,0.548295,unsorted_card,16,0,16,0,1,,,,,,,,,,,,,,,,,,,,,,,,,,,,,,,,,,,,,,,,,,,,,,,,,,,,,,,,,,,,,,,,,,,,,,,,,,,,,,,,,
,,,,,,,,,,1600837,2020-10-19_11h46.53.728,swahili,2020.2.4,MacIntel,60,,,,,,,,,,0.453222227,-0.069834391,1,0,0,0.917595,test_pile,17,0,17,0,1,POEM - UTENZI,,,,,,,,,,,,,,,,,,,,,,,,,,,,,,,,,,,,,,,,,,,,,,,,,,,,,,,,,,,,,,,,,,,,,,,,,,,,,,,,
,,,,,,,,,,1600837,2020-10-19_11h46.53.728,swahili,2020.2.4,MacIntel,60,,,,,,,,,,-0.310235176,-0.069834391,1,0,0,0.44603,unsorted_card,18,0,18,0,1,,,,,,,,,,,,,,,,,,,,,,,,,,,,,,,,,,,,,,,,,,,,,,,,,,,,,,,,,,,,,,,,,,,,,,,,,,,,,,,,,
,,,,,,,,,,1600837,2020-10-19_11h46.53.728,swahili,2020.2.4,MacIntel,60,,,,,,,,,,0.390813735,0.007924398,1,0,0,0.86583,test_pile,19,0,19,0,1,TAILOR - MSHONI,,,,,,,,,,,,,,,,,,,,,,,,,,,,,,,,,,,,,,,,,,,,,,,,,,,,,,,,,,,,,,,,,,,,,,,,,,,,,,,,
,,,,,,,,,,1600837,2020-10-19_11h46.53.728,swahili,2020.2.4,MacIntel,60,,,,,,,,,,-0.296451775,-0.094940186,1,0,0,0.61397,unsorted_card,20,0,20,0,1,,,,,,,,,,,,,,,,,,,,,,,,,,,,,,,,,,,,,,,,,,,,,,,,,,,,,,,,,,,,,,,,,,,,,,,,,,,,,,,,,
,,,,,,,,,,1600837,2020-10-19_11h46.53.728,swahili,2020.2.4,MacIntel,60,,,,,,,,,,0.500177297,0.098673503,1,0,0,0.814825,test_pile,21,0,21,0,1,CHEESE - JIBINI,,,,,,,,,,,,,,,,,,,,,,,,,,,,,,,,,,,,,,,,,,,,,,,,,,,,,,,,,,,,,,,,,,,,,,,,,,,,,,,,
,,,,,,,,,,1600837,2020-10-19_11h46.53.728,swahili,2020.2.4,MacIntel,60,,,,,,,,,,-0.286363012,-0.171681722,1,0,0,0.498255,unsorted_card,22,0,22,0,1,,,,,,,,,,,,,,,,,,,,,,,,,,,,,,,,,,,,,,,,,,,,,,,,,,,,,,,,,,,,,,,,,,,,,,,,,,,,,,,,,
,,,,,,,,,,1600837,2020-10-19_11h46.53.728,swahili,2020.2.4,MacIntel,60,,,,,,,,,,0.387233483,-0.079345703,1,0,0,0.830045,test_pile,23,0,23,0,1,GRAPES - ZABIBU,,,,,,,,,,,,,,,,,,,,,,,,,,,,,,,,,,,,,,,,,,,,,,,,,,,,,,,,,,,,,,,,,,,,,,,,,,,,,,,,
,,,,,,,,,,1600837,2020-10-19_11h46.53.728,swahili,2020.2.4,MacIntel,60,,,,,,,,,,-0.290755399,-0.025095622,1,0,0,0.49816,unsorted_card,24,0,24,0,1,,,,,,,,,,,,,,,,,,,,,,,,,,,,,,,,,,,,,,,,,,,,,,,,,,,,,,,,,,,,,,,,,,,,,,,,,,,,,,,,,
,,,,,,,,,,1600837,2020-10-19_11h46.53.728,swahili,2020.2.4,MacIntel,60,,,,,,,,,,0.464266105,0.518341064,1,0,0,1.399345,study_pile,25,0,25,0,1,GRAVE - KABURI,,,,,,,,,,,,,,,,,,,,,,,,,,,,,,,,,,,,,,,,,,,,,,,,,,,,,,,,,,,,,,,,,,,,,,,,,,,,,,,,
,,,,,,,,,,1600837,2020-10-19_11h46.53.728,swahili,2020.2.4,MacIntel,60,,,,,,,,,,-0.17578125,0.031870524,1,0,0,0.44717,unsorted_card,26,0,26,0,1,,,,,,,,,,,,,,,,,,,,,,,,,,,,,,,,,,,,,,,,,,,,,,,,,,,,,,,,,,,,,,,,,,,,,,,,,,,,,,,,,
,,,,,,,,,,1600837,2020-10-19_11h46.53.728,swahili,2020.2.4,MacIntel,60,,,,,,,,,,0.522728313,0.583669027,1,0,0,1.04912,study_pile,27,0,27,0,1,MANURE - SAMADI,,,,,,,,,,,,,,,,,,,,,,,,,,,,,,,,,,,,,,,,,,,,,,,,,,,,,,,,,,,,,,,,,,,,,,,,,,,,,,,,
,,,,,,,,,,1600837,2020-10-19_11h46.53.728,swahili,2020.2.4,MacIntel,60,,,,,,,,,,-0.306437592,-0.088968913,1,0,0,0.480435,unsorted_card,28,0,28,0,1,,,,,,,,,,,,,,,,,,,,,,,,,,,,,,,,,,,,,,,,,,,,,,,,,,,,,,,,,,,,,,,,,,,,,,,,,,,,,,,,,
,,,,,,,,,,1600837,2020-10-19_11h46.53.728,swahili,2020.2.4,MacIntel,60,,,,,,,,,,0.398237326,-0.051208496,1,0,0,1.33149,test_pile,29,0,29,0,1,AGENT - WAKILI,,,,,,,,,,,,,,,,,,,,,,,,,,,,,,,,,,,,,,,,,,,,,,,,,,,,,,,,,,,,,,,,,,,,,,,,,,,,,,,,
,,,,,,,,,,1600837,2020-10-19_11h46.53.728,swahili,2020.2.4,MacIntel,60,,,,,,,,,,-0.343303898,-0.086364746,1,0,0,0.447825,unsorted_card,30,0,30,0,1,,,,,,,,,,,,,,,,,,,,,,,,,,,,,,,,,,,,,,,,,,,,,,,,,,,,,,,,,,,,,,,,,,,,,,,,,,,,,,,,,
,,,,,,,,,,1600837,2020-10-19_11h46.53.728,swahili,2020.2.4,MacIntel,60,,,,,,,,,,0.461457952,0.530751546,1,0,0,1.547365,study_pile,31,0,31,0,1,BRIBE - RUSHWA,,,,,,,,,,,,,,,,,,,,,,,,,,,,,,,,,,,,,,,,,,,,,,,,,,,,,,,,,,,,,,,,,,,,,,,,,,,,,,,,
,,,,,,,,,,1600837,2020-10-19_11h46.53.728,swahili,2020.2.4,MacIntel,60,,,,,,,,,,-0.295456625,0.065979004,1,0,0,0.44848,unsorted_card,32,0,32,0,1,,,,,,,,,,,,,,,,,,,,,,,,,,,,,,,,,,,,,,,,,,,,,,,,,,,,,,,,,,,,,,,,,,,,,,,,,,,,,,,,,
,,,,,,,,,,1600837,2020-10-19_11h46.53.728,swahili,2020.2.4,MacIntel,60,,,,,,,,,,0.539239797,0.543406169,1,0,0,0.6488,study_pile,33,0,33,0,1,ORPHAN - YATIMA,,,,,,,,,,,,,,,,,,,,,,,,,,,,,,,,,,,,,,,,,,,,,,,,,,,,,,,,,,,,,,,,,,,,,,,,,,,,,,,,
,,,,,,,,,,1600837,2020-10-19_11h46.53.728,swahili,2020.2.4,MacIntel,60,,,,,,,,,,-0.233940337,0.196187337,1,0,0,0.430705,unsorted_card,34,0,34,0,1,,,,,,,,,,,,,,,,,,,,,,,,,,,,,,,,,,,,,,,,,,,,,,,,,,,,,,,,,,,,,,,,,,,,,,,,,,,,,,,,,
,,,,,,,,,,1600837,2020-10-19_11h46.53.728,swahili,2020.2.4,MacIntel,60,,,,,,,,,,0.396893302,0.089599609,1,0,0,1.08182,test_pile,35,0,35,0,1,DIVORCE - TALAKA,,,,,,,,,,,,,,,,,,,,,,,,,,,,,,,,,,,,,,,,,,,,,,,,,,,,,,,,,,,,,,,,,,,,,,,,,,,,,,,,
,,,,,,,,,,1600837,2020-10-19_11h46.53.728,swahili,2020.2.4,MacIntel,60,,,,,,,,,,-0.215129713,0.076039632,1,0,0,0.45248,unsorted_card,36,0,36,0,1,,,,,,,,,,,,,,,,,,,,,,,,,,,,,,,,,,,,,,,,,,,,,,,,,,,,,,,,,,,,,,,,,,,,,,,,,,,,,,,,,
,,,,,,,,,,1600837,2020-10-19_11h46.53.728,swahili,2020.2.4,MacIntel,60,,,,,,,,,,0.397339403,0.53809611,1,0,0,1.143765,study_pile,37,0,37,0,1,BOAT - MASHUA,,,,,,,,,,,,,,,,,,,,,,,,,,,,,,,,,,,,,,,,,,,,,,,,,,,,,,,,,,,,,,,,,,,,,,,,,,,,,,,,
,,,,,,,,,,1600837,2020-10-19_11h46.53.728,swahili,2020.2.4,MacIntel,60,,,,,,,,,,-0.574367451,0.068796794,1,0,0,0.513545,unsorted_card,38,0,38,0,1,,,,,,,,,,,,,,,,,,,,,,,,,,,,,,,,,,,,,,,,,,,,,,,,,,,,,,,,,,,,,,,,,,,,,,,,,,,,,,,,,
,,,,,,,,,,1600837,2020-10-19_11h46.53.728,swahili,2020.2.4,MacIntel,60,,,,,,,,,,0.508613195,0.433095296,1,0,0,0.915195,study_pile,39,0,39,0,1,TREASURE - DAFINA,,,,,,,,,,,,,,,,,,,,,,,,,,,,,,,,,,,,,,,,,,,,,,,,,,,,,,,,,,,,,,,,,,,,,,,,,,,,,,,,
,,,,,,,,,,1600837,2020-10-19_11h46.53.728,swahili,2020.2.4,MacIntel,60,,,,,,,,,,,,,,,,,,,,,,,0.478112418,0.131296794,1,0,0,0.665235,test_first,,,,,0,0,0,0,1,,,,,,,,,,,,,,,,,,,,,,,,,,,,,,,,,,,,,,,,,,,,,,,,,,,,,,,,,,,,,,,,
,,,,,,,,,,1600837,2020-10-19_11h46.53.728,swahili,2020.2.4,MacIntel,60,,,,,,,,,,,,,,,,,,,,,,,,,,,,,,,,,,,,,,,return,,,,,,0.901885,6.731195,0.485227169,0.098856608,1,0,0,0.63377,yes,PARROT,KABUTU,incorrect,0,0,0,0,1,,,,,,,,,,,,,,,,,,,,,,,,,,,,,,,,,,,,,,,,,
,,,,,,,,,,1600837,2020-10-19_11h46.53.728,swahili,2020.2.4,MacIntel,60,,,,,,,,,,,,,,,,,,,,,,,,,,,,,,,,,,,,,,,,,,,,,,3.89849,0.485227169,0.098856608,1,0,0,0.632575,yes,DIVORCE,TALAKA,incorrect,1,0,1,0,1,,,,,,,,,,,,,,,,,,,,,,,,,,,,,,,,,,,,,,,,,
,,,,,,,,,,1600837,2020-10-19_11h46.53.728,swahili,2020.2.4,MacIntel,60,,,,,,,,,,,,,,,,,,,,,,,,,,,,,,,,,,,,,,,,,,,,,,5.5813,0.297555591,0.048217773,1,0,0,0.98205,yes,CHEESE,JIBINI,incorrect,2,0,2,0,1,,,,,,,,,,,,,,,,,,,,,,,,,,,,,,,,,,,,,,,,,
,,,,,,,,,,1600837,2020-10-19_11h46.53.728,swahili,2020.2.4,MacIntel,60,,,,,,,,,,,,,,,,,,,,,,,,,,,,,,,,,,,,,,,,,,,,,,7.715095,0.454646321,-0.079416911,1,0,0,0.567175,yes,MERCHANT,SJH,incorrect,3,0,3,0,1,,,,,,,,,,,,,,,,,,,,,,,,,,,,,,,,,,,,,,,,,
,,,,,,,,,,1600837,2020-10-19_11h46.53.728,swahili,2020.2.4,MacIntel,60,,,,,,,,,,,,,,,,,,,,,,,,,,,,,,,,,,,,,,,,,,,,,,2.53053,0.388920663,-0.05388387,1,0,0,0.59947,yes,CORN,NAFAKA,incorrect,4,0,4,0,1,,,,,,,,,,,,,,,,,,,,,,,,,,,,,,,,,,,,,,,,,
,,,,,,,,,,1600837,2020-10-19_11h46.53.728,swahili,2020.2.4,MacIntel,60,,,,,,,,,,,,,,,,,,,,,,,,,,,,,,,,,,,,,,,,,,,,,,4.6478,0.38127974,-0.121592204,1,0,0,0.66622,yes,AGENT,TALI,incorrect,5,0,5,0,1,,,,,,,,,,,,,,,,,,,,,,,,,,,,,,,,,,,,,,,,,
,,,,,,,,,,1600837,2020-10-19_11h46.53.728,swahili,2020.2.4,MacIntel,60,,,,,,,,,,,,,,,,,,,,,,,,,,,,,,,,,,,,,,,,,,,,,,4.047775,0.429247117,-0.070668538,1,0,0,0.550815,yes,POEM,UTENZI,incorrect,6,0,6,0,1,,,,,,,,,,,,,,,,,,,,,,,,,,,,,,,,,,,,,,,,,
,,,,,,,,,,1600837,2020-10-19_11h46.53.728,swahili,2020.2.4,MacIntel,60,,,,,,,,,,,,,,,,,,,,,,,,,,,,,,,,,,,,,,,,,,,,,,2.597695,0.499039165,0.020080566,1,0,0,0.582865,yes,PLATE,NAFIRI,incorrect,7,0,7,0,1,,,,,,,,,,,,,,,,,,,,,,,,,,,,,,,,,,,,,,,,,
,,,,,,,,,,1600837,2020-10-19_11h46.53.728,swahili,2020.2.4,MacIntel,60,,,,,,,,,,,,,,,,,,,,,,,,,,,,,,,,,,,,,,,,,,,,,,4.84937,0.386953239,-0.107299805,1,0,0,0.549255,yes,BLAME,LAMAWA,incorrect,8,0,8,0,1,,,,,,,,,,,,,,,,,,,,,,,,,,,,,,,,,,,,,,,,,
,,,,,,,,,,1600837,2020-10-19_11h46.53.728,swahili,2020.2.4,MacIntel,60,,,,,,,,,,,,,,,,,,,,,,,,,,,,,,,,,,,,,,,,,,,,,,8.9978,0.411860587,-0.102783203,1,0,0,0.565555,yes,GRAPES,ZABUBU,incorrect,9,0,9,0,1,,,,,,,,,,,,,,,,,,,,,,,,,,,,,,,,,,,,,,,,,
,,,,,,,,,,1600837,2020-10-19_11h46.53.728,swahili,2020.2.4,MacIntel,60,,,,,,,,,,,,,,,,,,,,,,,,,,,,,,,,,,,,,,,,,,,,,,3.048955,0.336234901,-0.114318848,1,0,0,0.765305,yes,TAILOR,MSHONI,incorrect,10,0,10,0,1,,,,,,,,,,,,,,,,,,,,,,,,,,,,,,,,,,,,,,,,,
,,,,,,,,,,1600837,2020-10-19_11h46.53.728,swahili,2020.2.4,MacIntel,60,,,,,,,,,,,,,,,,,,,,,,,,,,,,,,,,,,,,,,,,0,0,0,0,1,,,,,,,,,,,,,,,,,,,,,,,,,,,,,,,,,,,,,,,,,,,,,,,,,,,,,,,,,,
,,,,,,,,,,1600837,2020-10-19_11h46.53.728,swahili,2020.2.4,MacIntel,60,,,,,,,,,,,,,,,,,,,,,,BOAT - MASHUA,,,,,,,,return,0.997255,return,15.62805,0,0,0,0,1,,,,,,,,,,,,,,,,,,,,,,,,,,,,,,,,,,,,,,,,,,,,,,,,,,,,,,,,,,,,,,,,
,,,,,,,,,,1600837,2020-10-19_11h46.53.728,swahili,2020.2.4,MacIntel,60,,,,,,,,,,,,,,,,,,,,,,MANURE - SAMADI,,,,,,,,,,return,3.244805,1,0,1,0,1,,,,,,,,,,,,,,,,,,,,,,,,,,,,,,,,,,,,,,,,,,,,,,,,,,,,,,,,,,,,,,,,
,,,,,,,,,,1600837,2020-10-19_11h46.53.728,swahili,2020.2.4,MacIntel,60,,,,,,,,,,,,,,,,,,,,,,BRIBE - RUSHWA,,,,,,,,,,return,2.720835,2,0,2,0,1,,,,,,,,,,,,,,,,,,,,,,,,,,,,,,,,,,,,,,,,,,,,,,,,,,,,,,,,,,,,,,,,
,,,,,,,,,,1600837,2020-10-19_11h46.53.728,swahili,2020.2.4,MacIntel,60,,,,,,,,,,,,,,,,,,,,,,ORPHAN - YATIMA,,,,,,,,,,return,1.47061,3,0,3,0,1,,,,,,,,,,,,,,,,,,,,,,,,,,,,,,,,,,,,,,,,,,,,,,,,,,,,,,,,,,,,,,,,
,,,,,,,,,,1600837,2020-10-19_11h46.53.728,swahili,2020.2.4,MacIntel,60,,,,,,,,,,,,,,,,,,,,,,GRAVE - KABURI,,,,,,,,,,return,1.118555,4,0,4,0,1,,,,,,,,,,,,,,,,,,,,,,,,,,,,,,,,,,,,,,,,,,,,,,,,,,,,,,,,,,,,,,,,
,,,,,,,,,,1600837,2020-10-19_11h46.53.728,swahili,2020.2.4,MacIntel,60,,,,,,,,,,,,,,,,,,,,,,OATH - YAMINI,,,,,,,,,,return,8.915975,5,0,5,0,1,,,,,,,,,,,,,,,,,,,,,,,,,,,,,,,,,,,,,,,,,,,,,,,,,,,,,,,,,,,,,,,,
,,,,,,,,,,1600837,2020-10-19_11h46.53.728,swahili,2020.2.4,MacIntel,60,,,,,,,,,,,,,,,,,,,,,,BULL - FAHILI,,,,,,,,,,return,1.972595,6,0,6,0,1,,,,,,,,,,,,,,,,,,,,,,,,,,,,,,,,,,,,,,,,,,,,,,,,,,,,,,,,,,,,,,,,
,,,,,,,,,,1600837,2020-10-19_11h46.53.728,swahili,2020.2.4,MacIntel,60,,,,,,,,,,,,,,,,,,,,,,YEAST - HAMIRA,,,,,,,,,,return,1.565215,7,0,7,0,1,,,,,,,,,,,,,,,,,,,,,,,,,,,,,,,,,,,,,,,,,,,,,,,,,,,,,,,,,,,,,,,,
,,,,,,,,,,1600837,2020-10-19_11h46.53.728,swahili,2020.2.4,MacIntel,60,,,,,,,,,,,,,,,,,,,,,,TREASURE - DAFINA,,,,,,,,,,return,0.639585,8,0,8,0,1,,,,,,,,,,,,,,,,,,,,,,,,,,,,,,,,,,,,,,,,,,,,,,,,,,,,,,,,,,,,,,,,
,,,,,,,,,,1600837,2020-10-19_11h46.53.728,swahili,2020.2.4,MacIntel,60,,,,,,,,,,,,,,,,,,,,,,,,,,,,,,,,,,,,,,,,1,0,1,0,1,,,,,,,,,,,,,,,,,,,,,,,,,,,,,,,,,,,,,,,,,,,,,,,,,,,,,,,,,,
,,,,,,,,,,1600837,2020-10-19_11h46.53.728,swahili,2020.2.4,MacIntel,60,,,,,,,,,,,,,,,,,,,,,,,,,,,,,,,,,,,,,,,,,,,,,,,,,,,,,,,,,,,,,,5,0,5,0,1,,,,,,,,,,,,,,,,,,,,,,,,,,,,,,,,,,,,
,,,,,,,,,,1600837,2020-10-19_11h46.53.728,swahili,2020.2.4,MacIntel,60,,,,,,,,,,-0.379072108,-0.033050537,1,0,0,1.21969,unsorted_card,0,0,0,0,1,,,,,,,,,,,,,,,,,,,,,,,,,,,,,,,,,,,,,,,,,,,,,,,,,,,,,,,,,,,,,,,,,,,,,,,,,,,,,,,,,
,,,,,,,,,,1600837,2020-10-19_11h46.53.728,swahili,2020.2.4,MacIntel,60,,,,,,,,,,0.584158812,-0.106292725,1,0,0,1.2435,test_pile,1,0,1,0,1,MERCHANT - TAJIRI,,,,,,,,,,,,,,,,,,,,,,,,,,,,,,,,,,,,,,,,,,,,,,,,,,,,,,,,,,,,,,,,,,,,,,,,,,,,,,,,
,,,,,,,,,,1600837,2020-10-19_11h46.53.728,swahili,2020.2.4,MacIntel,60,,,,,,,,,,-0.169701684,-0.030232747,1,0,0,0.565785,unsorted_card,2,0,2,0,1,,,,,,,,,,,,,,,,,,,,,,,,,,,,,,,,,,,,,,,,,,,,,,,,,,,,,,,,,,,,,,,,,,,,,,,,,,,,,,,,,
,,,,,,,,,,1600837,2020-10-19_11h46.53.728,swahili,2020.2.4,MacIntel,60,,,,,,,,,,0.562871751,-0.051605225,1,0,0,0.94837,test_pile,3,0,3,0,1,PARROT - KASUKU,,,,,,,,,,,,,,,,,,,,,,,,,,,,,,,,,,,,,,,,,,,,,,,,,,,,,,,,,,,,,,,,,,,,,,,,,,,,,,,,
,,,,,,,,,,1600837,2020-10-19_11h46.53.728,swahili,2020.2.4,MacIntel,60,,,,,,,,,,-0.259945781,-0.155476888,1,0,0,0.663415,unsorted_card,4,0,4,0,1,,,,,,,,,,,,,,,,,,,,,,,,,,,,,,,,,,,,,,,,,,,,,,,,,,,,,,,,,,,,,,,,,,,,,,,,,,,,,,,,,
,,,,,,,,,,1600837,2020-10-19_11h46.53.728,swahili,2020.2.4,MacIntel,60,,,,,,,,,,0.371271047,0.357533773,1,0,0,2.29762,study_pile,5,0,5,0,1,BULL - FAHILI,,,,,,,,,,,,,,,,,,,,,,,,,,,,,,,,,,,,,,,,,,,,,,,,,,,,,,,,,,,,,,,,,,,,,,,,,,,,,,,,
,,,,,,,,,,1600837,2020-10-19_11h46.53.728,swahili,2020.2.4,MacIntel,60,,,,,,,,,,-0.252893942,0.066375732,1,0,0,0.44892,unsorted_card,6,0,6,0,1,,,,,,,,,,,,,,,,,,,,,,,,,,,,,,,,,,,,,,,,,,,,,,,,,,,,,,,,,,,,,,,,,,,,,,,,,,,,,,,,,
,,,,,,,,,,1600837,2020-10-19_11h46.53.728,swahili,2020.2.4,MacIntel,60,,,,,,,,,,0.444540401,0.48626709,1,0,0,1.3813,study_pile,7,0,7,0,1,PLATE - SAHANI,,,,,,,,,,,,,,,,,,,,,,,,,,,,,,,,,,,,,,,,,,,,,,,,,,,,,,,,,,,,,,,,,,,,,,,,,,,,,,,,
,,,,,,,,,,1600837,2020-10-19_11h46.53.728,swahili,2020.2.4,MacIntel,60,,,,,,,,,,-0.124839861,0.016062419,1,0,0,0.448445,unsorted_card,8,0,8,0,1,,,,,,,,,,,,,,,,,,,,,,,,,,,,,,,,,,,,,,,,,,,,,,,,,,,,,,,,,,,,,,,,,,,,,,,,,,,,,,,,,
,,,,,,,,,,1600837,2020-10-19_11h46.53.728,swahili,2020.2.4,MacIntel,60,,,,,,,,,,0.40832037,0.469991048,1,0,0,0.84732,study_pile,9,0,9,0,1,YEAST - HAMIRA,,,,,,,,,,,,,,,,,,,,,,,,,,,,,,,,,,,,,,,,,,,,,,,,,,,,,,,,,,,,,,,,,,,,,,,,,,,,,,,,
,,,,,,,,,,1600837,2020-10-19_11h46.53.728,swahili,2020.2.4,MacIntel,60,,,,,,,,,,-0.239367908,0.115529378,1,0,0,0.398975,unsorted_card,10,0,10,0,1,,,,,,,,,,,,,,,,,,,,,,,,,,,,,,,,,,,,,,,,,,,,,,,,,,,,,,,,,,,,,,,,,,,,,,,,,,,,,,,,,
,,,,,,,,,,1600837,2020-10-19_11h46.53.728,swahili,2020.2.4,MacIntel,60,,,,,,,,,,0.349269079,-0.004730225,1,0,0,1.064065,test_pile,11,0,11,0,1,BLAME - LAWAMA,,,,,,,,,,,,,,,,,,,,,,,,,,,,,,,,,,,,,,,,,,,,,,,,,,,,,,,,,,,,,,,,,,,,,,,,,,,,,,,,
,,,,,,,,,,1600837,2020-10-19_11h46.53.728,swahili,2020.2.4,MacIntel,60,,,,,,,,,,-0.407073572,-0.007334391,1,0,0,0.41508,unsorted_card,12,0,12,0,1,,,,,,,,,,,,,,,,,,,,,,,,,,,,,,,,,,,,,,,,,,,,,,,,,,,,,,,,,,,,,,,,,,,,,,,,,,,,,,,,,
,,,,,,,,,,1600837,2020-10-19_11h46.53.728,swahili,2020.2.4,MacIntel,60,,,,,,,,,,0.443951318,-0.007222493,1,0,0,1.6819,test_pile,13,0,13,0,1,OATH - YAMINI,,,,,,,,,,,,,,,,,,,,,,,,,,,,,,,,,,,,,,,,,,,,,,,,,,,,,,,,,,,,,,,,,,,,,,,,,,,,,,,,
,,,,,,,,,,1600837,2020-10-19_11h46.53.728,swahili,2020.2.4,MacIntel,60,,,,,,,,,,-0.469035963,-0.0215861,1,0,0,0.647325,unsorted_card,14,0,14,0,1,,,,,,,,,,,,,,,,,,,,,,,,,,,,,,,,,,,,,,,,,,,,,,,,,,,,,,,,,,,,,,,,,,,,,,,,,,,,,,,,,
,,,,,,,,,,1600837,2020-10-19_11h46.53.728,swahili,2020.2.4,MacIntel,60,,,,,,,,,,0.651834736,-0.002848307,1,0,0,0.799595,test_pile,15,0,15,0,1,CORN - NAFAKA,,,,,,,,,,,,,,,,,,,,,,,,,,,,,,,,,,,,,,,,,,,,,,,,,,,,,,,,,,,,,,,,,,,,,,,,,,,,,,,,
,,,,,,,,,,1600837,2020-10-19_11h46.53.728,swahili,2020.2.4,MacIntel,60,,,,,,,,,,-0.239287839,-0.068857829,1,0,0,0.56385,unsorted_card,16,0,16,0,1,,,,,,,,,,,,,,,,,,,,,,,,,,,,,,,,,,,,,,,,,,,,,,,,,,,,,,,,,,,,,,,,,,,,,,,,,,,,,,,,,
,,,,,,,,,,1600837,2020-10-19_11h46.53.728,swahili,2020.2.4,MacIntel,60,,,,,,,,,,0.485919198,0.066345215,1,0,0,1.281605,test_pile,17,0,17,0,1,POEM - UTENZI,,,,,,,,,,,,,,,,,,,,,,,,,,,,,,,,,,,,,,,,,,,,,,,,,,,,,,,,,,,,,,,,,,,,,,,,,,,,,,,,
,,,,,,,,,,1600837,2020-10-19_11h46.53.728,swahili,2020.2.4,MacIntel,60,,,,,,,,,,-0.202930545,-0.101847331,1,0,0,0.429695,unsorted_card,18,0,18,0,1,,,,,,,,,,,,,,,,,,,,,,,,,,,,,,,,,,,,,,,,,,,,,,,,,,,,,,,,,,,,,,,,,,,,,,,,,,,,,,,,,
,,,,,,,,,,1600837,2020-10-19_11h46.53.728,swahili,2020.2.4,MacIntel,60,,,,,,,,,,0.491901537,-0.000457764,1,0,0,0.848865,test_pile,19,0,19,0,1,TAILOR - MSHONI,,,,,,,,,,,,,,,,,,,,,,,,,,,,,,,,,,,,,,,,,,,,,,,,,,,,,,,,,,,,,,,,,,,,,,,,,,,,,,,,
,,,,,,,,,,1600837,2020-10-19_11h46.53.728,swahili,2020.2.4,MacIntel,60,,,,,,,,,,-0.235015556,-0.015828451,1,0,0,0.63078,unsorted_card,20,0,20,0,1,,,,,,,,,,,,,,,,,,,,,,,,,,,,,,,,,,,,,,,,,,,,,,,,,,,,,,,,,,,,,,,,,,,,,,,,,,,,,,,,,
,,,,,,,,,,1600837,2020-10-19_11h46.53.728,swahili,2020.2.4,MacIntel,60,,,,,,,,,,0.437322703,0.035705566,1,0,0,0.71594,test_pile,21,0,21,0,1,CHEESE - JIBINI,,,,,,,,,,,,,,,,,,,,,,,,,,,,,,,,,,,,,,,,,,,,,,,,,,,,,,,,,,,,,,,,,,,,,,,,,,,,,,,,
,,,,,,,,,,1600837,2020-10-19_11h46.53.728,swahili,2020.2.4,MacIntel,60,,,,,,,,,,-0.20526972,0.008585612,1,0,0,0.4801,unsorted_card,22,0,22,0,1,,,,,,,,,,,,,,,,,,,,,,,,,,,,,,,,,,,,,,,,,,,,,,,,,,,,,,,,,,,,,,,,,,,,,,,,,,,,,,,,,
,,,,,,,,,,1600837,2020-10-19_11h46.53.728,swahili,2020.2.4,MacIntel,60,,,,,,,,,,0.447325677,0.050394694,1,0,0,0.93004,test_pile,23,0,23,0,1,GRAPES - ZABIBU,,,,,,,,,,,,,,,,,,,,,,,,,,,,,,,,,,,,,,,,,,,,,,,,,,,,,,,,,,,,,,,,,,,,,,,,,,,,,,,,
