condition,consent_key.keys,consent_key.rt,done_with_instructions.keys,done_with_instructions.rt,instr_loop.thisRepN,instr_loop.thisTrialN,instr_loop.thisN,instr_loop.thisIndex,instr_loop.ran,Student ID #,date,expName,psychopyVersion,OS,frameRate,instr_learning_key.keys,instr_learning_key.rt,card_gen_loop.thisRepN,card_gen_loop.thisTrialN,card_gen_loop.thisN,card_gen_loop.thisIndex,card_gen_loop.ran,swa,eng,choose_pile.x,choose_pile.y,choose_pile.leftButton,choose_pile.midButton,choose_pile.rightButton,choose_pile.time,choose_pile.clicked_name,choices.thisRepN,choices.thisTrialN,choices.thisN,choices.thisIndex,choices.ran,card_to_show,mouse_pick.x,mouse_pick.y,mouse_pick.leftButton,mouse_pick.midButton,mouse_pick.rightButton,mouse_pick.time,mouse_pick.clicked_name,key_instr_study.keys,key_instr_study.rt,next_study.keys,next_study.rt,study_loop.thisRepN,study_loop.thisTrialN,study_loop.thisN,study_loop.thisIndex,study_loop.ran,key_instr_test.keys,learn_loop.thisRepN,learn_loop.thisTrialN,learn_loop.thisN,learn_loop.thisIndex,learn_loop.ran,trials.thisRepN,trials.thisTrialN,trials.thisN,trials.thisIndex,trials.ran,instr_movie_key.keys,instr_movie_key.rt,return_to_exp.keys,return_to_exp.rt,instr_assess_key.keys,instr_assess_key.rt,test_response.resp,test_response.eval,duration,assess_loop.thisRepN,assess_loop.thisTrialN,assess_loop.thisN,assess_loop.thisIndex,assess_loop.ran,ans_gen_loop.thisRepN,ans_gen_loop.thisTrialN,ans_gen_loop.thisN,ans_gen_loop.thisIndex,ans_gen_loop.ran,sen,ans,instr_transfer_key.keys,instr_transfer_key.rt,transfer_response.resp,transfer_response.eval,select_word.x,select_word.y,select_word.leftButton,select_word.midButton,select_word.rightButton,select_word.time,select_word.clicked_name,transfers.thisRepN,transfers.thisTrialN,transfers.thisN,transfers.thisIndex,transfers.ran,end_experiment.keys,end_experiment.rt
1,return,14.732135,return,7.962155,0,0,0,0,1,00001410275,2020-10-18_14h21.24.895,swahili,2020.2.4,Win32,60,,,,,,,,,,,,,,,,,,,,,,,,,,,,,,,,,,,,,,,,,,,,,,,,,,,,,,,,,,,,,,,,,,,,,,,,,,,,,,,,,,,,,,,,
,,,,,,,,,,00001410275,2020-10-18_14h21.24.895,swahili,2020.2.4,Win32,60,return,3.5735,0,0,0,0,1,TAJIRI,MERCHANT,,,,,,,,,,,,,,,,,,,,,,,,,,,,,,,,,,,,,,,,,,,,,,,,,,,,,,,,,,,,,,,,,,,,,,,,,,,,,,,
,,,,,,,,,,00001410275,2020-10-18_14h21.24.895,swahili,2020.2.4,Win32,60,,,0,1,1,1,1,KASUKU,PARROT,,,,,,,,,,,,,,,,,,,,,,,,,,,,,,,,,,,,,,,,,,,,,,,,,,,,,,,,,,,,,,,,,,,,,,,,,,,,,,,
,,,,,,,,,,00001410275,2020-10-18_14h21.24.895,swahili,2020.2.4,Win32,60,,,0,2,2,2,1,FAHILI,BULL,,,,,,,,,,,,,,,,,,,,,,,,,,,,,,,,,,,,,,,,,,,,,,,,,,,,,,,,,,,,,,,,,,,,,,,,,,,,,,,
,,,,,,,,,,00001410275,2020-10-18_14h21.24.895,swahili,2020.2.4,Win32,60,,,0,3,3,3,1,SAHANI,PLATE,,,,,,,,,,,,,,,,,,,,,,,,,,,,,,,,,,,,,,,,,,,,,,,,,,,,,,,,,,,,,,,,,,,,,,,,,,,,,,,
,,,,,,,,,,00001410275,2020-10-18_14h21.24.895,swahili,2020.2.4,Win32,60,,,0,4,4,4,1,HAMIRA,YEAST,,,,,,,,,,,,,,,,,,,,,,,,,,,,,,,,,,,,,,,,,,,,,,,,,,,,,,,,,,,,,,,,,,,,,,,,,,,,,,,
,,,,,,,,,,00001410275,2020-10-18_14h21.24.895,swahili,2020.2.4,Win32,60,,,0,5,5,5,1,LAWAMA,BLAME,,,,,,,,,,,,,,,,,,,,,,,,,,,,,,,,,,,,,,,,,,,,,,,,,,,,,,,,,,,,,,,,,,,,,,,,,,,,,,,
,,,,,,,,,,00001410275,2020-10-18_14h21.24.895,swahili,2020.2.4,Win32,60,,,0,6,6,6,1,YAMINI,OATH,,,,,,,,,,,,,,,,,,,,,,,,,,,,,,,,,,,,,,,,,,,,,,,,,,,,,,,,,,,,,,,,,,,,,,,,,,,,,,,
,,,,,,,,,,00001410275,2020-10-18_14h21.24.895,swahili,2020.2.4,Win32,60,,,0,7,7,7,1,NAFAKA,CORN,,,,,,,,,,,,,,,,,,,,,,,,,,,,,,,,,,,,,,,,,,,,,,,,,,,,,,,,,,,,,,,,,,,,,,,,,,,,,,,
,,,,,,,,,,00001410275,2020-10-18_14h21.24.895,swahili,2020.2.4,Win32,60,,,0,8,8,8,1,UTENZI,POEM,,,,,,,,,,,,,,,,,,,,,,,,,,,,,,,,,,,,,,,,,,,,,,,,,,,,,,,,,,,,,,,,,,,,,,,,,,,,,,,
,,,,,,,,,,00001410275,2020-10-18_14h21.24.895,swahili,2020.2.4,Win32,60,,,0,9,9,9,1,MSHONI,TAILOR,,,,,,,,,,,,,,,,,,,,,,,,,,,,,,,,,,,,,,,,,,,,,,,,,,,,,,,,,,,,,,,,,,,,,,,,,,,,,,,
,,,,,,,,,,00001410275,2020-10-18_14h21.24.895,swahili,2020.2.4,Win32,60,,,0,10,10,10,1,JIBINI,CHEESE,,,,,,,,,,,,,,,,,,,,,,,,,,,,,,,,,,,,,,,,,,,,,,,,,,,,,,,,,,,,,,,,,,,,,,,,,,,,,,,
,,,,,,,,,,00001410275,2020-10-18_14h21.24.895,swahili,2020.2.4,Win32,60,,,0,11,11,11,1,ZABIBU,GRAPES,,,,,,,,,,,,,,,,,,,,,,,,,,,,,,,,,,,,,,,,,,,,,,,,,,,,,,,,,,,,,,,,,,,,,,,,,,,,,,,
,,,,,,,,,,00001410275,2020-10-18_14h21.24.895,swahili,2020.2.4,Win32,60,,,0,12,12,12,1,KABURI,GRAVE,,,,,,,,,,,,,,,,,,,,,,,,,,,,,,,,,,,,,,,,,,,,,,,,,,,,,,,,,,,,,,,,,,,,,,,,,,,,,,,
,,,,,,,,,,00001410275,2020-10-18_14h21.24.895,swahili,2020.2.4,Win32,60,,,0,13,13,13,1,SAMADI,MANURE,,,,,,,,,,,,,,,,,,,,,,,,,,,,,,,,,,,,,,,,,,,,,,,,,,,,,,,,,,,,,,,,,,,,,,,,,,,,,,,
,,,,,,,,,,00001410275,2020-10-18_14h21.24.895,swahili,2020.2.4,Win32,60,,,0,14,14,14,1,WAKILI,AGENT,,,,,,,,,,,,,,,,,,,,,,,,,,,,,,,,,,,,,,,,,,,,,,,,,,,,,,,,,,,,,,,,,,,,,,,,,,,,,,,
,,,,,,,,,,00001410275,2020-10-18_14h21.24.895,swahili,2020.2.4,Win32,60,,,0,15,15,15,1,RUSHWA,BRIBE,,,,,,,,,,,,,,,,,,,,,,,,,,,,,,,,,,,,,,,,,,,,,,,,,,,,,,,,,,,,,,,,,,,,,,,,,,,,,,,
,,,,,,,,,,00001410275,2020-10-18_14h21.24.895,swahili,2020.2.4,Win32,60,,,0,16,16,16,1,YATIMA,ORPHAN,,,,,,,,,,,,,,,,,,,,,,,,,,,,,,,,,,,,,,,,,,,,,,,,,,,,,,,,,,,,,,,,,,,,,,,,,,,,,,,
,,,,,,,,,,00001410275,2020-10-18_14h21.24.895,swahili,2020.2.4,Win32,60,,,0,17,17,17,1,TALAKA,DIVORCE,,,,,,,,,,,,,,,,,,,,,,,,,,,,,,,,,,,,,,,,,,,,,,,,,,,,,,,,,,,,,,,,,,,,,,,,,,,,,,,
,,,,,,,,,,00001410275,2020-10-18_14h21.24.895,swahili,2020.2.4,Win32,60,,,0,18,18,18,1,MASHUA,BOAT,,,,,,,,,,,,,,,,,,,,,,,,,,,,,,,,,,,,,,,,,,,,,,,,,,,,,,,,,,,,,,,,,,,,,,,,,,,,,,,
,,,,,,,,,,00001410275,2020-10-18_14h21.24.895,swahili,2020.2.4,Win32,60,,,0,19,19,19,1,DAFINA,TREASURE,,,,,,,,,,,,,,,,,,,,,,,,,,,,,,,,,,,,,,,,,,,,,,,,,,,,,,,,,,,,,,,,,,,,,,,,,,,,,,,
,,,,,,,,,,00001410275,2020-10-18_14h21.24.895,swahili,2020.2.4,Win32,60,,,,,,,,,,-0.359929059,0.05350612,1,0,0,3.520285,unsorted_card,0,0,0,0,1,,,,,,,,,,,,,,,,,,,,,,,,,,,,,,,,,,,,,,,,,,,,,,,,,,,,,,,,,,,,,,,,,,,
,,,,,,,,,,00001410275,2020-10-18_14h21.24.895,swahili,2020.2.4,Win32,60,,,,,,,,,,-0.257092176,-0.088733831,1,0,0,3.94371,unsorted_card,1,0,1,0,1,MERCHANT - TAJIRI,,,,,,,,,,,,,,,,,,,,,,,,,,,,,,,,,,,,,,,,,,,,,,,,,,,,,,,,,,,,,,,,,,
,,,,,,,,,,00001410275,2020-10-18_14h21.24.895,swahili,2020.2.4,Win32,60,,,,,,,,,,-0.228723381,0.11332666,1,0,0,4.581665,unsorted_card,2,0,2,0,1,MERCHANT - TAJIRI,,,,,,,,,,,,,,,,,,,,,,,,,,,,,,,,,,,,,,,,,,,,,,,,,,,,,,,,,,,,,,,,,,
,,,,,,,,,,00001410275,2020-10-18_14h21.24.895,swahili,2020.2.4,Win32,60,,,,,,,,,,-0.4113475,-0.068793651,1,0,0,1.13122,unsorted_card,3,0,3,0,1,MERCHANT - TAJIRI,,,,,,,,,,,,,,,,,,,,,,,,,,,,,,,,,,,,,,,,,,,,,,,,,,,,,,,,,,,,,,,,,,
,,,,,,,,,,00001410275,2020-10-18_14h21.24.895,swahili,2020.2.4,Win32,60,,,,,,,,,,0.520390116,-0.458291835,1,0,0,33.0665,done_pile,4,0,4,0,1,MERCHANT - TAJIRI,,,,,,,,,,,,,,,,,,,,,,,,,,,,,,,,,,,,,,,,,,,,,,,,,,,,,,,,,,,,,,,,,,
,,,,,,,,,,00001410275,2020-10-18_14h21.24.895,swahili,2020.2.4,Win32,60,,,,,,,,,,-0.398049627,-0.034230672,1,0,0,1.26202,unsorted_card,5,0,5,0,1,,,,,,,,,,,,,,,,,,,,,,,,,,,,,,,,,,,,,,,,,,,,,,,,,,,,,,,,,,,,,,,,,,,
,,,,,,,,,,00001410275,2020-10-18_14h21.24.895,swahili,2020.2.4,Win32,60,,,,,,,,,,0.515070967,0.457627102,1,0,0,10.67989,study_pile,6,0,6,0,1,PARROT - KASUKU,,,,,,,,,,,,,,,,,,,,,,,,,,,,,,,,,,,,,,,,,,,,,,,,,,,,,,,,,,,,,,,,,,
,,,,,,,,,,00001410275,2020-10-18_14h21.24.895,swahili,2020.2.4,Win32,60,,,,,,,,,,-0.406914876,-0.076769723,1,0,0,0.762955,unsorted_card,7,0,7,0,1,,,,,,,,,,,,,,,,,,,,,,,,,,,,,,,,,,,,,,,,,,,,,,,,,,,,,,,,,,,,,,,,,,,
,,,,,,,,,,00001410275,2020-10-18_14h21.24.895,swahili,2020.2.4,Win32,60,,,,,,,,,,0.452127703,0.482884664,1,0,0,4.230145,study_pile,8,0,8,0,1,BULL - FAHILI,,,,,,,,,,,,,,,,,,,,,,,,,,,,,,,,,,,,,,,,,,,,,,,,,,,,,,,,,,,,,,,,,,
,,,,,,,,,,00001410275,2020-10-18_14h21.24.895,swahili,2020.2.4,Win32,60,,,,,,,,,,-0.504432609,-0.155201179,1,0,0,0.7961,unsorted_card,9,0,9,0,1,,,,,,,,,,,,,,,,,,,,,,,,,,,,,,,,,,,,,,,,,,,,,,,,,,,,,,,,,,,,,,,,,,,
,,,,,,,,,,00001410275,2020-10-18_14h21.24.895,swahili,2020.2.4,Win32,60,,,,,,,,,,0.473404299,-0.55666339,1,0,0,2.78204,done_pile,10,0,10,0,1,PLATE - SAHANI,,,,,,,,,,,,,,,,,,,,,,,,,,,,,,,,,,,,,,,,,,,,,,,,,,,,,,,,,,,,,,,,,,
,,,,,,,,,,00001410275,2020-10-18_14h21.24.895,swahili,2020.2.4,Win32,60,,,,,,,,,,-0.250886448,-0.010302456,1,0,0,0.862,unsorted_card,11,0,11,0,1,,,,,,,,,,,,,,,,,,,,,,,,,,,,,,,,,,,,,,,,,,,,,,,,,,,,,,,,,,,,,,,,,,,
,,,,,,,,,,00001410275,2020-10-18_14h21.24.895,swahili,2020.2.4,Win32,60,,,,,,,,,,0.422872383,-0.488866778,1,0,0,2.99763,done_pile,12,0,12,0,1,YEAST - HAMIRA,,,,,,,,,,,,,,,,,,,,,,,,,,,,,,,,,,,,,,,,,,,,,,,,,,,,,,,,,,,,,,,,,,
,,,,,,,,,,00001410275,2020-10-18_14h21.24.895,swahili,2020.2.4,Win32,60,,,,,,,,,,-0.255319127,0.001661652,1,0,0,0.62915,unsorted_card,13,0,13,0,1,,,,,,,,,,,,,,,,,,,,,,,,,,,,,,,,,,,,,,,,,,,,,,,,,,,,,,,,,,,,,,,,,,,
,,,,,,,,,,00001410275,2020-10-18_14h21.24.895,swahili,2020.2.4,Win32,60,,,,,,,,,,0.487588805,-0.503489576,1,0,0,6.097635,done_pile,14,0,14,0,1,BLAME - LAWAMA,,,,,,,,,,,,,,,,,,,,,,,,,,,,,,,,,,,,,,,,,,,,,,,,,,,,,,,,,,,,,,,,,,
,,,,,,,,,,00001410275,2020-10-18_14h21.24.895,swahili,2020.2.4,Win32,60,,,,,,,,,,-0.164893592,-0.039548135,1,0,0,0.829575,unsorted_card,15,0,15,0,1,,,,,,,,,,,,,,,,,,,,,,,,,,,,,,,,,,,,,,,,,,,,,,,,,,,,,,,,,,,,,,,,,,,
,,,,,,,,,,00001410275,2020-10-18_14h21.24.895,swahili,2020.2.4,Win32,60,,,,,,,,,,-0.164893592,-0.039548135,1,0,0,4.63156,unsorted_card,16,0,16,0,1,OATH - YAMINI,,,,,,,,,,,,,,,,,,,,,,,,,,,,,,,,,,,,,,,,,,,,,,,,,,,,,,,,,,,,,,,,,,
,,,,,,,,,,00001410275,2020-10-18_14h21.24.895,swahili,2020.2.4,Win32,60,,,,,,,,,,0.422872383,-0.353273553,1,0,0,0.748325,done_pile,17,0,17,0,1,OATH - YAMINI,,,,,,,,,,,,,,,,,,,,,,,,,,,,,,,,,,,,,,,,,,,,,,,,,,,,,,,,,,,,,,,,,,
,,,,,,,,,,00001410275,2020-10-18_14h21.24.895,swahili,2020.2.4,Win32,60,,,,,,,,,,-0.373226932,-0.078099068,1,0,0,0.56412,unsorted_card,18,0,18,0,1,,,,,,,,,,,,,,,,,,,,,,,,,,,,,,,,,,,,,,,,,,,,,,,,,,,,,,,,,,,,,,,,,,,
,,,,,,,,,,00001410275,2020-10-18_14h21.24.895,swahili,2020.2.4,Win32,60,,,,,,,,,,-0.373226932,-0.078099068,1,0,0,3.8153,unsorted_card,19,0,19,0,1,CORN - NAFAKA,,,,,,,,,,,,,,,,,,,,,,,,,,,,,,,,,,,,,,,,,,,,,,,,,,,,,,,,,,,,,,,,,,
,,,,,,,,,,00001410275,2020-10-18_14h21.24.895,swahili,2020.2.4,Win32,60,,,,,,,,,,0.486702172,0.41242932,1,0,0,1.547165,study_pile,20,0,20,0,1,CORN - NAFAKA,,,,,,,,,,,,,,,,,,,,,,,,,,,,,,,,,,,,,,,,,,,,,,,,,,,,,,,,,,,,,,,,,,
,,,,,,,,,,00001410275,2020-10-18_14h21.24.895,swahili,2020.2.4,Win32,60,,,,,,,,,,-0.303191469,-0.127284927,1,0,0,0.497895,unsorted_card,21,0,21,0,1,,,,,,,,,,,,,,,,,,,,,,,,,,,,,,,,,,,,,,,,,,,,,,,,,,,,,,,,,,,,,,,,,,,
,,,,,,,,,,00001410275,2020-10-18_14h21.24.895,swahili,2020.2.4,Win32,60,,,,,,,,,,0.43173774,0.593220327,1,0,0,4.565675,study_pile,22,0,22,0,1,POEM - UTENZI,,,,,,,,,,,,,,,,,,,,,,,,,,,,,,,,,,,,,,,,,,,,,,,,,,,,,,,,,,,,,,,,,,
,,,,,,,,,,00001410275,2020-10-18_14h21.24.895,swahili,2020.2.4,Win32,60,,,,,,,,,,-0.422872323,-0.100697939,1,0,0,0.746225,unsorted_card,23,0,23,0,1,,,,,,,,,,,,,,,,,,,,,,,,,,,,,,,,,,,,,,,,,,,,,,,,,,,,,,,,,,,,,,,,,,,
,,,,,,,,,,00001410275,2020-10-18_14h21.24.895,swahili,2020.2.4,Win32,60,,,,,,,,,,0.510638343,0.443004304,1,0,0,6.0657,study_pile,24,0,24,0,1,TAILOR - MSHONI,,,,,,,,,,,,,,,,,,,,,,,,,,,,,,,,,,,,,,,,,,,,,,,,,,,,,,,,,,,,,,,,,,
,,,,,,,,,,00001410275,2020-10-18_14h21.24.895,swahili,2020.2.4,Win32,60,,,,,,,,,,-0.429077997,-0.181788005,1,0,0,0.47991,unsorted_card,25,0,25,0,1,,,,,,,,,,,,,,,,,,,,,,,,,,,,,,,,,,,,,,,,,,,,,,,,,,,,,,,,,,,,,,,,,,,
,,,,,,,,,,00001410275,2020-10-18_14h21.24.895,swahili,2020.2.4,Win32,60,,,,,,,,,,0.531914939,-0.492854814,1,0,0,1.748235,done_pile,26,0,26,0,1,CHEESE - JIBINI,,,,,,,,,,,,,,,,,,,,,,,,,,,,,,,,,,,,,,,,,,,,,,,,,,,,,,,,,,,,,,,,,,
,,,,,,,,,,00001410275,2020-10-18_14h21.24.895,swahili,2020.2.4,Win32,60,,,,,,,,,,-0.187056659,-0.094051212,1,0,0,0.614885,unsorted_card,27,0,27,0,1,,,,,,,,,,,,,,,,,,,,,,,,,,,,,,,,,,,,,,,,,,,,,,,,,,,,,,,,,,,,,,,,,,,
,,,,,,,,,,00001410275,2020-10-18_14h21.24.895,swahili,2020.2.4,Win32,60,,,,,,,,,,0.423759016,-0.532735174,1,0,0,6.89786,done_pile,28,0,28,0,1,GRAPES - ZABIBU,,,,,,,,,,,,,,,,,,,,,,,,,,,,,,,,,,,,,,,,,,,,,,,,,,,,,,,,,,,,,,,,,,
,,,,,,,,,,00001410275,2020-10-18_14h21.24.895,swahili,2020.2.4,Win32,60,,,,,,,,,,-0.226950277,0.064140883,1,0,0,0.963445,unsorted_card,29,0,29,0,1,,,,,,,,,,,,,,,,,,,,,,,,,,,,,,,,,,,,,,,,,,,,,,,,,,,,,,,,,,,,,,,,,,,
,,,,,,,,,,00001410275,2020-10-18_14h21.24.895,swahili,2020.2.4,Win32,60,,,,,,,,,,0.536347564,-0.53672321,1,0,0,3.529405,done_pile,30,0,30,0,1,GRAVE - KABURI,,,,,,,,,,,,,,,,,,,,,,,,,,,,,,,,,,,,,,,,,,,,,,,,,,,,,,,,,,,,,,,,,,
,,,,,,,,,,00001410275,2020-10-18_14h21.24.895,swahili,2020.2.4,Win32,60,,,,,,,,,,-0.218971554,0.006979033,1,0,0,0.713625,unsorted_card,31,0,31,0,1,,,,,,,,,,,,,,,,,,,,,,,,,,,,,,,,,,,,,,,,,,,,,,,,,,,,,,,,,,,,,,,,,,,
,,,,,,,,,,00001410275,2020-10-18_14h21.24.895,swahili,2020.2.4,Win32,60,,,,,,,,,,0.429078165,-0.470255943,1,0,0,4.315,done_pile,32,0,32,0,1,MANURE - SAMADI,,,,,,,,,,,,,,,,,,,,,,,,,,,,,,,,,,,,,,,,,,,,,,,,,,,,,,,,,,,,,,,,,,
,,,,,,,,,,00001410275,2020-10-18_14h21.24.895,swahili,2020.2.4,Win32,60,,,,,,,,,,-0.296099216,-0.080757759,1,0,0,0.529865,unsorted_card,33,0,33,0,1,,,,,,,,,,,,,,,,,,,,,,,,,,,,,,,,,,,,,,,,,,,,,,,,,,,,,,,,,,,,,,,,,,,
,,,,,,,,,,00001410275,2020-10-18_14h21.24.895,swahili,2020.2.4,Win32,60,,,,,,,,,,0.479610081,-0.470255943,1,0,0,6.29878,done_pile,34,0,34,0,1,AGENT - WAKILI,,,,,,,,,,,,,,,,,,,,,,,,,,,,,,,,,,,,,,,,,,,,,,,,,,,,,,,,,,,,,,,,,,
,,,,,,,,,,00001410275,2020-10-18_14h21.24.895,swahili,2020.2.4,Win32,60,,,,,,,,,,-0.266843896,0.081422372,1,0,0,0.59688,unsorted_card,35,0,35,0,1,,,,,,,,,,,,,,,,,,,,,,,,,,,,,,,,,,,,,,,,,,,,,,,,,,,,,,,,,,,,,,,,,,,
,,,,,,,,,,00001410275,2020-10-18_14h21.24.895,swahili,2020.2.4,Win32,60,,,,,,,,,,0.512411393,-0.603190476,1,0,0,4.080375,done_pile,36,0,36,0,1,BRIBE - RUSHWA,,,,,,,,,,,,,,,,,,,,,,,,,,,,,,,,,,,,,,,,,,,,,,,,,,,,,,,,,,,,,,,,,,
,,,,,,,,,,00001410275,2020-10-18_14h21.24.895,swahili,2020.2.4,Win32,60,,,,,,,,,,-0.339538987,0.151877675,1,0,0,0.546635,unsorted_card,37,0,37,0,1,,,,,,,,,,,,,,,,,,,,,,,,,,,,,,,,,,,,,,,,,,,,,,,,,,,,,,,,,,,,,,,,,,,
,,,,,,,,,,00001410275,2020-10-18_14h21.24.895,swahili,2020.2.4,Win32,60,,,,,,,,,,0.433510681,-0.463609216,1,0,0,5.89723,done_pile,38,0,38,0,1,ORPHAN - YATIMA,,,,,,,,,,,,,,,,,,,,,,,,,,,,,,,,,,,,,,,,,,,,,,,,,,,,,,,,,,,,,,,,,,
,,,,,,,,,,00001410275,2020-10-18_14h21.24.895,swahili,2020.2.4,Win32,60,,,,,,,,,,-0.29875879,-0.083416531,1,0,0,1.02616,unsorted_card,39,0,39,0,1,,,,,,,,,,,,,,,,,,,,,,,,,,,,,,,,,,,,,,,,,,,,,,,,,,,,,,,,,,,,,,,,,,,
,,,,,,,,,,00001410275,2020-10-18_14h21.24.895,swahili,2020.2.4,Win32,60,,,,,,,,,,0.36790795,-0.504818922,1,0,0,3.88177,done_pile,40,0,40,0,1,DIVORCE - TALAKA,,,,,,,,,,,,,,,,,,,,,,,,,,,,,,,,,,,,,,,,,,,,,,,,,,,,,,,,,,,,,,,,,,
,,,,,,,,,,00001410275,2020-10-18_14h21.24.895,swahili,2020.2.4,Win32,60,,,,,,,,,,-0.35283686,0.069458264,1,0,0,0.67985,unsorted_card,41,0,41,0,1,,,,,,,,,,,,,,,,,,,,,,,,,,,,,,,,,,,,,,,,,,,,,,,,,,,,,,,,,,,,,,,,,,,
,,,,,,,,,,00001410275,2020-10-18_14h21.24.895,swahili,2020.2.4,Win32,60,,,,,,,,,,0.453900753,-0.51944172,1,0,0,5.23161,done_pile,42,0,42,0,1,BOAT - MASHUA,,,,,,,,,,,,,,,,,,,,,,,,,,,,,,,,,,,,,,,,,,,,,,,,,,,,,,,,,,,,,,,,,,
,,,,,,,,,,00001410275,2020-10-18_14h21.24.895,swahili,2020.2.4,Win32,60,,,,,,,,,,-0.335992888,0.101362552,1,0,0,0.696725,unsorted_card,43,0,43,0,1,,,,,,,,,,,,,,,,,,,,,,,,,,,,,,,,,,,,,,,,,,,,,,,,,,,,,,,,,,,,,,,,,,,
,,,,,,,,,,00001410275,2020-10-18_14h21.24.895,swahili,2020.2.4,Win32,60,,,,,,,,,,0.585993063,-0.494184159,1,0,0,5.98214,done_pile,44,0,44,0,1,TREASURE - DAFINA,,,,,,,,,,,,,,,,,,,,,,,,,,,,,,,,,,,,,,,,,,,,,,,,,,,,,,,,,,,,,,,,,,
,,,,,,,,,,00001410275,2020-10-18_14h21.24.895,swahili,2020.2.4,Win32,60,,,,,,,,,,,,,,,,,,,,,,BULL - FAHILI,,,,,,,,return,10.40235,return,3.389925,0,0,0,0,1,,,,,,,,,,,,,,,,,,,,,,,,,,,,,,,,,,,,,,,,,,,,,,,,,,
,,,,,,,,,,00001410275,2020-10-18_14h21.24.895,swahili,2020.2.4,Win32,60,,,,,,,,,,,,,,,,,,,,,,CORN - NAFAKA,,,,,,,,,,return,0.982,1,0,1,0,1,,,,,,,,,,,,,,,,,,,,,,,,,,,,,,,,,,,,,,,,,,,,,,,,,,
,,,,,,,,,,00001410275,2020-10-18_14h21.24.895,swahili,2020.2.4,Win32,60,,,,,,,,,,,,,,,,,,,,,,PARROT - KASUKU,,,,,,,,,,return,12.33354,2,0,2,0,1,,,,,,,,,,,,,,,,,,,,,,,,,,,,,,,,,,,,,,,,,,,,,,,,,,
,,,,,,,,,,00001410275,2020-10-18_14h21.24.895,swahili,2020.2.4,Win32,60,,,,,,,,,,,,,,,,,,,,,,TAILOR - MSHONI,,,,,,,,,,return,1.49032,3,0,3,0,1,,,,,,,,,,,,,,,,,,,,,,,,,,,,,,,,,,,,,,,,,,,,,,,,,,
,,,,,,,,,,00001410275,2020-10-18_14h21.24.895,swahili,2020.2.4,Win32,60,,,,,,,,,,,,,,,,,,,,,,POEM - UTENZI,,,,,,,,,,return,1.06397,4,0,4,0,1,,,,,,,,,,,,,,,,,,,,,,,,,,,,,,,,,,,,,,,,,,,,,,,,,,
,,,,,,,,,,00001410275,2020-10-18_14h21.24.895,swahili,2020.2.4,Win32,60,,,,,,,,,,,,,,,,,,,,,,,,,,,,,,,,,,,,,,,,0,0,0,0,1,,,,,,,,,,,,,,,,,,,,,,,,,,,,,,,,,,,,,,,,,,,,
,,,,,,,,,,00001410275,2020-10-18_14h21.24.895,swahili,2020.2.4,Win32,60,,,,,,,,,,,,,,,,,,,,,,,,,,,,,,,,,,,,,,,,1,0,1,0,1,,,,,,,,,,,,,,,,,,,,,,,,,,,,,,,,,,,,,,,,,,,,
,,,,,,,,,,00001410275,2020-10-18_14h21.24.895,swahili,2020.2.4,Win32,60,,,,,,,,,,,,,,,,,,,,,,,,,,,,,,,,,,,,,,,,,,,,,0,0,0,0,1,,,,,,,,,,,,,,,,,,,,,,,,,,,,,,,,,,,,,,,
,,,,,,,,,,00001410275,2020-10-18_14h21.24.895,swahili,2020.2.4,Win32,60,,,,,,,,,,-0.358156009,0.034895285,1,0,0,2.395915,unsorted_card,0,0,0,0,1,,,,,,,,,,,,,,,,,,,,,,,,,,,,,,,,,,,,,,,,,,,,,,,,,,,,,,,,,,,,,,,,,,,
,,,,,,,,,,00001410275,2020-10-18_14h21.24.895,swahili,2020.2.4,Win32,60,,,,,,,,,,0.506205827,-0.502160231,1,0,0,0.898425,done_pile,1,0,1,0,1,PARROT - KASUKU,,,,,,,,,,,,,,,,,,,,,,,,,,,,,,,,,,,,,,,,,,,,,,,,,,,,,,,,,,,,,,,,,,
,,,,,,,,,,00001410275,2020-10-18_14h21.24.895,swahili,2020.2.4,Win32,60,,,,,,,,,,-0.347517711,-0.047524207,1,0,0,0.43156,unsorted_card,2,0,2,0,1,,,,,,,,,,,,,,,,,,,,,,,,,,,,,,,,,,,,,,,,,,,,,,,,,,,,,,,,,,,,,,,,,,,
,,,,,,,,,,00001410275,2020-10-18_14h21.24.895,swahili,2020.2.4,Win32,60,,,,,,,,,,0.577127707,-0.486208087,1,0,0,0.831445,done_pile,3,0,3,0,1,BULL - FAHILI,,,,,,,,,,,,,,,,,,,,,,,,,,,,,,,,,,,,,,,,,,,,,,,,,,,,,,,,,,,,,,,,,,
,,,,,,,,,,00001410275,2020-10-18_14h21.24.895,swahili,2020.2.4,Win32,60,,,,,,,,,,-0.338652463,0.026919213,1,0,0,0.44803,unsorted_card,4,0,4,0,1,,,,,,,,,,,,,,,,,,,,,,,,,,,,,,,,,,,,,,,,,,,,,,,,,,,,,,,,,,,,,,,,,,,
,,,,,,,,,,00001410275,2020-10-18_14h21.24.895,swahili,2020.2.4,Win32,60,,,,,,,,,,0.443262454,-0.386507187,1,0,0,0.79807,done_pile,5,0,5,0,1,CORN - NAFAKA,,,,,,,,,,,,,,,,,,,,,,,,,,,,,,,,,,,,,,,,,,,,,,,,,,,,,,,,,,,,,,,,,,
,,,,,,,,,,00001410275,2020-10-18_14h21.24.895,swahili,2020.2.4,Win32,60,,,,,,,,,,-0.256205597,-0.136590263,1,0,0,0.398775,unsorted_card,6,0,6,0,1,,,,,,,,,,,,,,,,,,,,,,,,,,,,,,,,,,,,,,,,,,,,,,,,,,,,,,,,,,,,,,,,,,,
,,,,,,,,,,00001410275,2020-10-18_14h21.24.895,swahili,2020.2.4,Win32,60,,,,,,,,,,0.473404299,-0.423728856,1,0,0,0.69825,done_pile,7,0,7,0,1,POEM - UTENZI,,,,,,,,,,,,,,,,,,,,,,,,,,,,,,,,,,,,,,,,,,,,,,,,,,,,,,,,,,,,,,,,,,
,,,,,,,,,,00001410275,2020-10-18_14h21.24.895,swahili,2020.2.4,Win32,60,,,,,,,,,,-0.350177286,-0.003655729,1,0,0,0.397705,unsorted_card,8,0,8,0,1,,,,,,,,,,,,,,,,,,,,,,,,,,,,,,,,,,,,,,,,,,,,,,,,,,,,,,,,,,,,,,,,,,,
,,,,,,,,,,00001410275,2020-10-18_14h21.24.895,swahili,2020.2.4,Win32,60,,,,,,,,,,0.464539051,-0.434363619,1,0,0,0.9319,done_pile,9,0,9,0,1,TAILOR - MSHONI,,,,,,,,,,,,,,,,,,,,,,,,,,,,,,,,,,,,,,,,,,,,,,,,,,,,,,,,,,,,,,,,,,
,,,,,,,,,,00001410275,2020-10-18_14h21.24.895,swahili,2020.2.4,Win32,60,,,,,,,,,,,,,,,,,,,,,,,,,,,,,,,,,,,,,,,,0,0,0,0,1,,,,,,,,,,,,,,,,,,,,,,,,,,,,,,,,,,,,,,,,,,,,
,,,,,,,,,,00001410275,2020-10-18_14h21.24.895,swahili,2020.2.4,Win32,60,,,,,,,,,,,,,,,,,,,,,,,,,,,,,,,,,,,,,,,,1,0,1,0,1,,,,,,,,,,,,,,,,,,,,,,,,,,,,,,,,,,,,,,,,,,,,
,,,,,,,,,,00001410275,2020-10-18_14h21.24.895,swahili,2020.2.4,Win32,60,,,,,,,,JIBINI,CHEESE,,,,,,,,,,,,,,,,,,,,,,,,,,,,,,,,,,,,,,,,,return,3.105285,return,47.70674,return,5.31965,JIBINE,incorrect,46.228455,0,0,0,10,1,,,,,,,,,,,,,,,,,,,,,,,,,
,,,,,,,,,,00001410275,2020-10-18_14h21.24.895,swahili,2020.2.4,Win32,60,,,,,,,,RUSHWA,BRIBE,,,,,,,,,,,,,,,,,,,,,,,,,,,,,,,,,,,,,,,,,,,,,,,IDK,incorrect,12.079745,0,1,1,15,1,,,,,,,,,,,,,,,,,,,,,,,,,
,,,,,,,,,,00001410275,2020-10-18_14h21.24.895,swahili,2020.2.4,Win32,60,,,,,,,,HAMIRA,YEAST,,,,,,,,,,,,,,,,,,,,,,,,,,,,,,,,,,,,,,,,,,,,,,,IDK,incorrect,12.014455,0,2,2,4,1,,,,,,,,,,,,,,,,,,,,,,,,,
,,,,,,,,,,00001410275,2020-10-18_14h21.24.895,swahili,2020.2.4,Win32,60,,,,,,,,NAFAKA,CORN,,,,,,,,,,,,,,,,,,,,,,,,,,,,,,,,,,,,,,,,,,,,,,,NAFAKA,correct,9.91548,0,3,3,7,1,,,,,,,,,,,,,,,,,,,,,,,,,
,,,,,,,,,,00001410275,2020-10-18_14h21.24.895,swahili,2020.2.4,Win32,60,,,,,,,,WAKILI,AGENT,,,,,,,,,,,,,,,,,,,,,,,,,,,,,,,,,,,,,,,,,,,,,,,WAKILI,correct,8.548055,0,4,4,14,1,,,,,,,,,,,,,,,,,,,,,,,,,
,,,,,,,,,,00001410275,2020-10-18_14h21.24.895,swahili,2020.2.4,Win32,60,,,,,,,,KASUKU,PARROT,,,,,,,,,,,,,,,,,,,,,,,,,,,,,,,,,,,,,,,,,,,,,,,IDK,incorrect,4.731185,0,5,5,1,1,,,,,,,,,,,,,,,,,,,,,,,,,
,,,,,,,,,,00001410275,2020-10-18_14h21.24.895,swahili,2020.2.4,Win32,60,,,,,,,,ZABIBU,GRAPES,,,,,,,,,,,,,,,,,,,,,,,,,,,,,,,,,,,,,,,,,,,,,,,ZABIBU,correct,19.831735,0,6,6,11,1,,,,,,,,,,,,,,,,,,,,,,,,,
,,,,,,,,,,00001410275,2020-10-18_14h21.24.895,swahili,2020.2.4,Win32,60,,,,,,,,LAWAMA,BLAME,,,,,,,,,,,,,,,,,,,,,,,,,,,,,,,,,,,,,,,,,,,,,,,LAWAMA,correct,20.431705,0,7,7,5,1,,,,,,,,,,,,,,,,,,,,,,,,,
,,,,,,,,,,00001410275,2020-10-18_14h21.24.895,swahili,2020.2.4,Win32,60,,,,,,,,UTENZI,POEM,,,,,,,,,,,,,,,,,,,,,,,,,,,,,,,,,,,,,,,,,,,,,,,IDK,incorrect,4.2813,0,8,8,8,1,,,,,,,,,,,,,,,,,,,,,,,,,
,,,,,,,,,,00001410275,2020-10-18_14h21.24.895,swahili,2020.2.4,Win32,60,,,,,,,,TALAKA,DIVORCE,,,,,,,,,,,,,,,,,,,,,,,,,,,,,,,,,,,,,,,,,,,,,,,TALAK,incorrect,6.798115,0,9,9,17,1,,,,,,,,,,,,,,,,,,,,,,,,,
,,,,,,,,,,00001410275,2020-10-18_14h21.24.895,swahili,2020.2.4,Win32,60,,,,,,,,KABURI,GRAVE,,,,,,,,,,,,,,,,,,,,,,,,,,,,,,,,,,,,,,,,,,,,,,,KUBRUI,incorrect,8.01467,0,10,10,12,1,,,,,,,,,,,,,,,,,,,,,,,,,
,,,,,,,,,,00001410275,2020-10-18_14h21.24.895,swahili,2020.2.4,Win32,60,,,,,,,,MSHONI,TAILOR,,,,,,,,,,,,,,,,,,,,,,,,,,,,,,,,,,,,,,,,,,,,,,,MISHONI,incorrect,13.031875,0,11,11,9,1,,,,,,,,,,,,,,,,,,,,,,,,,
,,,,,,,,,,00001410275,2020-10-18_14h21.24.895,swahili,2020.2.4,Win32,60,,,,,,,,DAFINA,TREASURE,,,,,,,,,,,,,,,,,,,,,,,,,,,,,,,,,,,,,,,,,,,,,,,DAFENA,incorrect,11.248045,0,12,12,19,1,,,,,,,,,,,,,,,,,,,,,,,,,
,,,,,,,,,,00001410275,2020-10-18_14h21.24.895,swahili,2020.2.4,Win32,60,,,,,,,,YAMINI,OATH,,,,,,,,,,,,,,,,,,,,,,,,,,,,,,,,,,,,,,,,,,,,,,,YAMINI,correct,13.231525,0,13,13,6,1,,,,,,,,,,,,,,,,,,,,,,,,,
,,,,,,,,,,00001410275,2020-10-18_14h21.24.895,swahili,2020.2.4,Win32,60,,,,,,,,SAHANI,PLATE,,,,,,,,,,,,,,,,,,,,,,,,,,,,,,,,,,,,,,,,,,,,,,,SAHEN,incorrect,23.731515,0,14,14,3,1,,,,,,,,,,,,,,,,,,,,,,,,,
,,,,,,,,,,00001410275,2020-10-18_14h21.24.895,swahili,2020.2.4,Win32,60,,,,,,,,TAJIRI,MERCHANT,,,,,,,,,,,,,,,,,,,,,,,,,,,,,,,,,,,,,,,,,,,,,,,TAJR,incorrect,26.56538,0,15,15,0,1,,,,,,,,,,,,,,,,,,,,,,,,,
,,,,,,,,,,00001410275,2020-10-18_14h21.24.895,swahili,2020.2.4,Win32,60,,,,,,,,FAHILI,BULL,,,,,,,,,,,,,,,,,,,,,,,,,,,,,,,,,,,,,,,,,,,,,,,IDK,incorrect,4.247955,0,16,16,2,1,,,,,,,,,,,,,,,,,,,,,,,,,
,,,,,,,,,,00001410275,2020-10-18_14h21.24.895,swahili,2020.2.4,Win32,60,,,,,,,,MASHUA,BOAT,,,,,,,,,,,,,,,,,,,,,,,,,,,,,,,,,,,,,,,,,,,,,,,MASHAU,incorrect,12.58126,0,17,17,18,1,,,,,,,,,,,,,,,,,,,,,,,,,
,,,,,,,,,,00001410275,2020-10-18_14h21.24.895,swahili,2020.2.4,Win32,60,,,,,,,,YATIMA,ORPHAN,,,,,,,,,,,,,,,,,,,,,,,,,,,,,,,,,,,,,,,,,,,,,,,IKD,incorrect,10.481765,0,18,18,16,1,,,,,,,,,,,,,,,,,,,,,,,,,
,,,,,,,,,,00001410275,2020-10-18_14h21.24.895,swahili,2020.2.4,Win32,60,,,,,,,,SAMADI,MANURE,,,,,,,,,,,,,,,,,,,,,,,,,,,,,,,,,,,,,,,,,,,,,,,IDK,incorrect,6.04769,0,19,19,13,1,,,,,,,,,,,,,,,,,,,,,,,,,
,,,,,,,,,,00001410275,2020-10-18_14h21.24.895,swahili,2020.2.4,Win32,60,,,,,,,,,,,,,,,,,,,,,,,,,,,,,,,,,,,,,,,,,,,,,,,,,,,,,,,,,,,,,,,,0,0,0,0,1,I bought all my goods from the ____ at the market. ,TAJIRI,,,,,,,,,,,,,,,,,,
,,,,,,,,,,00001410275,2020-10-18_14h21.24.895,swahili,2020.2.4,Win32,60,,,,,,,,,,,,,,,,,,,,,,,,,,,,,,,,,,,,,,,,,,,,,,,,,,,,,,,,,,,,,,,,0,1,1,1,1,The ____ is a bird that can learn to repeat words.,KASUKU,,,,,,,,,,,,,,,,,,
,,,,,,,,,,00001410275,2020-10-18_14h21.24.895,swahili,2020.2.4,Win32,60,,,,,,,,,,,,,,,,,,,,,,,,,,,,,,,,,,,,,,,,,,,,,,,,,,,,,,,,,,,,,,,,0,2,2,2,1,The ____ charged the matador's red cape. ,FAHILI,,,,,,,,,,,,,,,,,,
,,,,,,,,,,00001410275,2020-10-18_14h21.24.895,swahili,2020.2.4,Win32,60,,,,,,,,,,,,,,,,,,,,,,,,,,,,,,,,,,,,,,,,,,,,,,,,,,,,,,,,,,,,,,,,0,3,3,3,1,I filled my ____ with food at the buffet. ,SAHANI,,,,,,,,,,,,,,,,,,
,,,,,,,,,,00001410275,2020-10-18_14h21.24.895,swahili,2020.2.4,Win32,60,,,,,,,,,,,,,,,,,,,,,,,,,,,,,,,,,,,,,,,,,,,,,,,,,,,,,,,,,,,,,,,,0,4,4,4,1,_____ makes bread rise. ,HAMIRA,,,,,,,,,,,,,,,,,,
,,,,,,,,,,00001410275,2020-10-18_14h21.24.895,swahili,2020.2.4,Win32,60,,,,,,,,,,,,,,,,,,,,,,,,,,,,,,,,,,,,,,,,,,,,,,,,,,,,,,,,,,,,,,,,0,5,5,5,1,Shannon had no one else to  ____ for what happened.,LAWAMA,,,,,,,,,,,,,,,,,,
,,,,,,,,,,00001410275,2020-10-18_14h21.24.895,swahili,2020.2.4,Win32,60,,,,,,,,,,,,,,,,,,,,,,,,,,,,,,,,,,,,,,,,,,,,,,,,,,,,,,,,,,,,,,,,0,6,6,6,1,The president takes the  ____ of office to uphold the Constitution.,YAMINI,,,,,,,,,,,,,,,,,,
,,,,,,,,,,00001410275,2020-10-18_14h21.24.895,swahili,2020.2.4,Win32,60,,,,,,,,,,,,,,,,,,,,,,,,,,,,,,,,,,,,,,,,,,,,,,,,,,,,,,,,,,,,,,,,0,7,7,7,1,Kate doesn't like ____ on the cob because it gets stuck between her teeth. ,NAFAKA,,,,,,,,,,,,,,,,,,
,,,,,,,,,,00001410275,2020-10-18_14h21.24.895,swahili,2020.2.4,Win32,60,,,,,,,,,,,,,,,,,,,,,,,,,,,,,,,,,,,,,,,,,,,,,,,,,,,,,,,,,,,,,,,,0,8,8,8,1,David wrote Cynthia a romantic ____  but she thought it rhymed too much.,UTENZI,,,,,,,,,,,,,,,,,,
,,,,,,,,,,00001410275,2020-10-18_14h21.24.895,swahili,2020.2.4,Win32,60,,,,,,,,,,,,,,,,,,,,,,,,,,,,,,,,,,,,,,,,,,,,,,,,,,,,,,,,,,,,,,,,0,9,9,9,1,Charles went to the ____ to get his suit adjusted. ,MSHONI,,,,,,,,,,,,,,,,,,
,,,,,,,,,,00001410275,2020-10-18_14h21.24.895,swahili,2020.2.4,Win32,60,,,,,,,,,,,,,,,,,,,,,,,,,,,,,,,,,,,,,,,,,,,,,,,,,,,,,,,,,,,,,,,,0,10,10,10,1,Amy cooked a grilled ____ sandwich to go with her tomato soup.,JIBINI,,,,,,,,,,,,,,,,,,
,,,,,,,,,,00001410275,2020-10-18_14h21.24.895,swahili,2020.2.4,Win32,60,,,,,,,,,,,,,,,,,,,,,,,,,,,,,,,,,,,,,,,,,,,,,,,,,,,,,,,,,,,,,,,,0,11,11,11,1,Fermented _______ are used to make wine.,ZABIBU,,,,,,,,,,,,,,,,,,
,,,,,,,,,,00001410275,2020-10-18_14h21.24.895,swahili,2020.2.4,Win32,60,,,,,,,,,,,,,,,,,,,,,,,,,,,,,,,,,,,,,,,,,,,,,,,,,,,,,,,,,,,,,,,,0,12,12,12,1,She visited her father's ___ on the anniversary of his death. ,KABURI,,,,,,,,,,,,,,,,,,
,,,,,,,,,,00001410275,2020-10-18_14h21.24.895,swahili,2020.2.4,Win32,60,,,,,,,,,,,,,,,,,,,,,,,,,,,,,,,,,,,,,,,,,,,,,,,,,,,,,,,,,,,,,,,,0,13,13,13,1,"On a farm, there is a good chance you will step into a pile of ______.",SAMADI,,,,,,,,,,,,,,,,,,
,,,,,,,,,,00001410275,2020-10-18_14h21.24.895,swahili,2020.2.4,Win32,60,,,,,,,,,,,,,,,,,,,,,,,,,,,,,,,,,,,,,,,,,,,,,,,,,,,,,,,,,,,,,,,,0,14,14,14,1,"To buy a house, you may need to speak with a real estate ______.",WAKILI,,,,,,,,,,,,,,,,,,
,,,,,,,,,,00001410275,2020-10-18_14h21.24.895,swahili,2020.2.4,Win32,60,,,,,,,,,,,,,,,,,,,,,,,,,,,,,,,,,,,,,,,,,,,,,,,,,,,,,,,,,,,,,,,,0,15,15,15,1,The politician was arrested for taking a _____.,RUSHWA,,,,,,,,,,,,,,,,,,
,,,,,,,,,,00001410275,2020-10-18_14h21.24.895,swahili,2020.2.4,Win32,60,,,,,,,,,,,,,,,,,,,,,,,,,,,,,,,,,,,,,,,,,,,,,,,,,,,,,,,,,,,,,,,,0,16,16,16,1,The _____ is living with foster parents.,YATIMA,,,,,,,,,,,,,,,,,,
,,,,,,,,,,00001410275,2020-10-18_14h21.24.895,swahili,2020.2.4,Win32,60,,,,,,,,,,,,,,,,,,,,,,,,,,,,,,,,,,,,,,,,,,,,,,,,,,,,,,,,,,,,,,,,0,17,17,17,1,My aunt and uncle got a _________ after two years of marriage.,TALAKA,,,,,,,,,,,,,,,,,,
,,,,,,,,,,00001410275,2020-10-18_14h21.24.895,swahili,2020.2.4,Win32,60,,,,,,,,,,,,,,,,,,,,,,,,,,,,,,,,,,,,,,,,,,,,,,,,,,,,,,,,,,,,,,,,0,18,18,18,1,You need a ______ to go fishing in the middle of a lake.,MASHUA,,,,,,,,,,,,,,,,,,
,,,,,,,,,,00001410275,2020-10-18_14h21.24.895,swahili,2020.2.4,Win32,60,,,,,,,,,,,,,,,,,,,,,,,,,,,,,,,,,,,,,,,,,,,,,,,,,,,,,,,,,,,,,,,,0,19,19,19,1,Pirates looked for buried _________ at the bottom of the sea.,DAFINA,,,,,,,,,,,,,,,,,,
,,,,,,,,,,00001410275,2020-10-18_14h21.24.895,swahili,2020.2.4,Win32,60,,,,,,,,,,,,,,,,,,,,,,,,,,,,,,,,,,,,,,,,,,,,,,,,,,,,,,,,,,,,,,,,,,,,,David wrote Cynthia a romantic ____  but she thought it rhymed too much.,UTENZI,return,2.00738,UTENZI,correct,0.071808543,-0.471585288,1,0,0,9.68815,b,0,0,0,8,1,,
,,,,,,,,,,00001410275,2020-10-18_14h21.24.895,swahili,2020.2.4,Win32,60,,,,,,,,,,,,,,,,,,,,,,,,,,,,,,,,,,,,,,,,,,,,,,,,,,,,,,,,,,,,,,,,,,,,,The _____ is living with foster parents.,YATIMA,,,YATIMA,correct,-0.08953898,-0.41974082,1,0,0,16.72477,b,0,1,1,16,1,,
,,,,,,,,,,00001410275,2020-10-18_14h21.24.895,swahili,2020.2.4,Win32,60,,,,,,,,,,,,,,,,,,,,,,,,,,,,,,,,,,,,,,,,,,,,,,,,,,,,,,,,,,,,,,,,,,,,,She visited her father's ___ on the anniversary of his death. ,KABURI,,,KABURI,correct,-0.077127632,-0.514124339,1,0,0,10.34346,b,0,2,2,12,1,,
,,,,,,,,,,00001410275,2020-10-18_14h21.24.895,swahili,2020.2.4,Win32,60,,,,,,,,,,,,,,,,,,,,,,,,,,,,,,,,,,,,,,,,,,,,,,,,,,,,,,,,,,,,,,,,,,,,,"To buy a house, you may need to speak with a real estate ______.",WAKILI,,,WAKILI,correct,-0.368794307,-0.488866778,1,0,0,9.908535,a,0,3,3,14,1,,
,,,,,,,,,,00001410275,2020-10-18_14h21.24.895,swahili,2020.2.4,Win32,60,,,,,,,,,,,,,,,,,,,,,,,,,,,,,,,,,,,,,,,,,,,,,,,,,,,,,,,,,,,,,,,,,,,,,My aunt and uncle got a _________ after two years of marriage.,TALAKA,,,TALAKA,correct,0.460106426,-0.51678303,1,0,0,8.043525,c,0,4,4,17,1,,
,,,,,,,,,,00001410275,2020-10-18_14h21.24.895,swahili,2020.2.4,Win32,60,,,,,,,,,,,,,,,,,,,,,,,,,,,,,,,,,,,,,,,,,,,,,,,,,,,,,,,,,,,,,,,,,,,,,Shannon had no one else to  ____ for what happened.,LAWAMA,,,LAWAMA,correct,0.521276641,-0.413094093,1,0,0,23.894415,c,0,5,5,5,1,,
,,,,,,,,,,00001410275,2020-10-18_14h21.24.895,swahili,2020.2.4,Win32,60,,,,,,,,,,,,,,,,,,,,,,,,,,,,,,,,,,,,,,,,,,,,,,,,,,,,,,,,,,,,,,,,,,,,,I filled my ____ with food at the buffet. ,SAHANI,,,SAHANI,correct,0.49911352,-0.480890705,1,0,0,3.21063,c,0,6,6,3,1,,
,,,,,,,,,,00001410275,2020-10-18_14h21.24.895,swahili,2020.2.4,Win32,60,,,,,,,,,,,,,,,,,,,,,,,,,,,,,,,,,,,,,,,,,,,,,,,,,,,,,,,,,,,,,,,,,,,,,Fermented _______ are used to make wine.,ZABIBU,,,ZABIBU,correct,0.511524976,-0.439681,1,0,0,3.06134,c,0,7,7,11,1,,
,,,,,,,,,,00001410275,2020-10-18_14h21.24.895,swahili,2020.2.4,Win32,60,,,,,,,,,,,,,,,,,,,,,,,,,,,,,,,,,,,,,,,,,,,,,,,,,,,,,,,,,,,,,,,,,,,,,Kate doesn't like ____ on the cob because it gets stuck between her teeth. ,NAFAKA,,,NAFAKA,correct,0.071808543,-0.490196123,1,0,0,5.277135,b,0,8,8,7,1,,
,,,,,,,,,,00001410275,2020-10-18_14h21.24.895,swahili,2020.2.4,Win32,60,,,,,,,,,,,,,,,,,,,,,,,,,,,,,,,,,,,,,,,,,,,,,,,,,,,,,,,,,,,,,,,,,,,,,The ____ is a bird that can learn to repeat words.,KASUKU,,,KASUKU,correct,0.448581603,-0.478232015,1,0,0,8.21162,c,0,9,9,1,1,,
,,,,,,,,,,00001410275,2020-10-18_14h21.24.895,swahili,2020.2.4,Win32,60,,,,,,,,,,,,,,,,,,,,,,,,,,,,,,,,,,,,,,,,,,,,,,,,,,,,,,,,,,,,,,,,,,,,,I bought all my goods from the ____ at the market. ,TAJIRI,,,TAJIRI,correct,-0.434397146,-0.455633144,1,0,0,6.34422,a,0,10,10,0,1,,
,,,,,,,,,,00001410275,2020-10-18_14h21.24.895,swahili,2020.2.4,Win32,60,,,,,,,,,,,,,,,,,,,,,,,,,,,,,,,,,,,,,,,,,,,,,,,,,,,,,,,,,,,,,,,,,,,,,The president takes the  ____ of office to uphold the Constitution.,YAMINI,,,YAMINI,correct,-0.419326224,-0.476902669,1,0,0,8.77594,a,0,11,11,6,1,,
,,,,,,,,,,00001410275,2020-10-18_14h21.24.895,swahili,2020.2.4,Win32,60,,,,,,,,,,,,,,,,,,,,,,,,,,,,,,,,,,,,,,,,,,,,,,,,,,,,,,,,,,,,,,,,,,,,,The ____ charged the matador's red cape. ,FAHILI,,,FAHILI,correct,0.502659619,-0.535393864,1,0,0,10.060995,c,0,12,12,2,1,,
,,,,,,,,,,00001410275,2020-10-18_14h21.24.895,swahili,2020.2.4,Win32,60,,,,,,,,,,,,,,,,,,,,,,,,,,,,,,,,,,,,,,,,,,,,,,,,,,,,,,,,,,,,,,,,,,,,,_____ makes bread rise. ,HAMIRA,,,HAMIRA,correct,0.456560327,-0.546028627,1,0,0,3.42729,c,0,13,13,4,1,,
,,,,,,,,,,00001410275,2020-10-18_14h21.24.895,swahili,2020.2.4,Win32,60,,,,,,,,,,,,,,,,,,,,,,,,,,,,,,,,,,,,,,,,,,,,,,,,,,,,,,,,,,,,,,,,,,,,,Charles went to the ____ to get his suit adjusted. ,MSHONI,,,MSHONI,correct,-0.455673743,-0.451645108,1,0,0,9.794695,a,0,14,14,9,1,,
,,,,,,,,,,00001410275,2020-10-18_14h21.24.895,swahili,2020.2.4,Win32,60,,,,,,,,,,,,,,,,,,,,,,,,,,,,,,,,,,,,,,,,,,,,,,,,,,,,,,,,,,,,,,,,,,,,,You need a ______ to go fishing in the middle of a lake.,MASHUA,,,MASHUA,correct,-0.38031913,-0.478232015,1,0,0,12.12681,a,0,15,15,18,1,,
,,,,,,,,,,00001410275,2020-10-18_14h21.24.895,swahili,2020.2.4,Win32,60,,,,,,,,,,,,,,,,,,,,,,,,,,,,,,,,,,,,,,,,,,,,,,,,,,,,,,,,,,,,,,,,,,,,,"On a farm, there is a good chance you will step into a pile of ______.",SAMADI,,,SAMADI,correct,0.022163151,-0.538052555,1,0,0,9.493935,b,0,16,16,13,1,,
,,,,,,,,,,00001410275,2020-10-18_14h21.24.895,swahili,2020.2.4,Win32,60,,,,,,,,,,,,,,,,,,,,,,,,,,,,,,,,,,,,,,,,,,,,,,,,,,,,,,,,,,,,,,,,,,,,,Amy cooked a grilled ____ sandwich to go with her tomato soup.,JIBINI,,,JIBINI,correct,0.040780173,-0.531405828,1,0,0,6.943125,b,0,17,17,10,1,,
,,,,,,,,,,00001410275,2020-10-18_14h21.24.895,swahili,2020.2.4,Win32,60,,,,,,,,,,,,,,,,,,,,,,,,,,,,,,,,,,,,,,,,,,,,,,,,,,,,,,,,,,,,,,,,,,,,,Pirates looked for buried _________ at the bottom of the sea.,DAFINA,,,DAFINA,correct,0.356383019,-0.544699282,1,0,0,3.99489,c,0,18,18,19,1,,
,,,,,,,,,,00001410275,2020-10-18_14h21.24.895,swahili,2020.2.4,Win32,60,,,,,,,,,,,,,,,,,,,,,,,,,,,,,,,,,,,,,,,,,,,,,,,,,,,,,,,,,,,,,,,,,,,,,The politician was arrested for taking a _____.,RUSHWA,,,RUSHWA,correct,0.096631238,-0.476902669,1,0,0,10.55918,b,0,19,19,15,1,,
,,,,,,,,,,00001410275,2020-10-18_14h21.24.895,swahili,2020.2.4,Win32,60,,,,,,,,,,,,,,,,,,,,,,,,,,,,,,,,,,,,,,,,,,,,,,,,,,,,,,,,,,,,,,,,,,,,,,,,,,,,,,,,,,,,,,,return,2.39312
