condition,consent_key.keys,consent_key.rt,done_with_instructions.keys,done_with_instructions.rt,instr_loop.thisRepN,instr_loop.thisTrialN,instr_loop.thisN,instr_loop.thisIndex,instr_loop.ran,Student ID #,date,expName,psychopyVersion,OS,frameRate,instr_learning_key.keys,instr_learning_key.rt,card_gen_loop.thisRepN,card_gen_loop.thisTrialN,card_gen_loop.thisN,card_gen_loop.thisIndex,card_gen_loop.ran,swa,eng,choose_pile.x,choose_pile.y,choose_pile.leftButton,choose_pile.midButton,choose_pile.rightButton,choose_pile.time,choose_pile.clicked_name,choices.thisRepN,choices.thisTrialN,choices.thisN,choices.thisIndex,choices.ran,card_to_show,mouse_pick.x,mouse_pick.y,mouse_pick.leftButton,mouse_pick.midButton,mouse_pick.rightButton,mouse_pick.time,mouse_pick.clicked_name,key_instr_study.keys,key_instr_study.rt,next_study.keys,next_study.rt,study_loop.thisRepN,study_loop.thisTrialN,study_loop.thisN,study_loop.thisIndex,study_loop.ran,key_instr_test.keys,learn_loop.thisRepN,learn_loop.thisTrialN,learn_loop.thisN,learn_loop.thisIndex,learn_loop.ran,trials.thisRepN,trials.thisTrialN,trials.thisN,trials.thisIndex,trials.ran,key_instr_test.rt,duration,yes_or_no.x,yes_or_no.y,yes_or_no.leftButton,yes_or_no.midButton,yes_or_no.rightButton,yes_or_no.time,yes_or_no.clicked_name,test_response.stim,test_response.resp,test_response.eval,test_loop.thisRepN,test_loop.thisTrialN,test_loop.thisN,test_loop.thisIndex,test_loop.ran,instr_movie_key.keys,instr_movie_key.rt
1,return,35.54723,return,14.343215,0,0,0,0,1,00001335110,2020-10-30_21h49.01.900,swahili,2020.2.4,MacIntel,60,,,,,,,,,,,,,,,,,,,,,,,,,,,,,,,,,,,,,,,,,,,,,,,,,,,,,,,,,,,,,,,,,,,,
,,,,,,,,,,00001335110,2020-10-30_21h49.01.900,swahili,2020.2.4,MacIntel,60,return,14.36651,0,0,0,0,1,TAJIRI,MERCHANT,,,,,,,,,,,,,,,,,,,,,,,,,,,,,,,,,,,,,,,,,,,,,,,,,,,,,,,,,,,
,,,,,,,,,,00001335110,2020-10-30_21h49.01.900,swahili,2020.2.4,MacIntel,60,,,0,1,1,1,1,KASUKU,PARROT,,,,,,,,,,,,,,,,,,,,,,,,,,,,,,,,,,,,,,,,,,,,,,,,,,,,,,,,,,,
,,,,,,,,,,00001335110,2020-10-30_21h49.01.900,swahili,2020.2.4,MacIntel,60,,,0,2,2,2,1,FAHILI,BULL,,,,,,,,,,,,,,,,,,,,,,,,,,,,,,,,,,,,,,,,,,,,,,,,,,,,,,,,,,,
,,,,,,,,,,00001335110,2020-10-30_21h49.01.900,swahili,2020.2.4,MacIntel,60,,,0,3,3,3,1,SAHANI,PLATE,,,,,,,,,,,,,,,,,,,,,,,,,,,,,,,,,,,,,,,,,,,,,,,,,,,,,,,,,,,
,,,,,,,,,,00001335110,2020-10-30_21h49.01.900,swahili,2020.2.4,MacIntel,60,,,0,4,4,4,1,HAMIRA,YEAST,,,,,,,,,,,,,,,,,,,,,,,,,,,,,,,,,,,,,,,,,,,,,,,,,,,,,,,,,,,
,,,,,,,,,,00001335110,2020-10-30_21h49.01.900,swahili,2020.2.4,MacIntel,60,,,0,5,5,5,1,LAWAMA,BLAME,,,,,,,,,,,,,,,,,,,,,,,,,,,,,,,,,,,,,,,,,,,,,,,,,,,,,,,,,,,
,,,,,,,,,,00001335110,2020-10-30_21h49.01.900,swahili,2020.2.4,MacIntel,60,,,0,6,6,6,1,YAMINI,OATH,,,,,,,,,,,,,,,,,,,,,,,,,,,,,,,,,,,,,,,,,,,,,,,,,,,,,,,,,,,
,,,,,,,,,,00001335110,2020-10-30_21h49.01.900,swahili,2020.2.4,MacIntel,60,,,0,7,7,7,1,NAFAKA,CORN,,,,,,,,,,,,,,,,,,,,,,,,,,,,,,,,,,,,,,,,,,,,,,,,,,,,,,,,,,,
,,,,,,,,,,00001335110,2020-10-30_21h49.01.900,swahili,2020.2.4,MacIntel,60,,,0,8,8,8,1,UTENZI,POEM,,,,,,,,,,,,,,,,,,,,,,,,,,,,,,,,,,,,,,,,,,,,,,,,,,,,,,,,,,,
,,,,,,,,,,00001335110,2020-10-30_21h49.01.900,swahili,2020.2.4,MacIntel,60,,,0,9,9,9,1,MSHONI,TAILOR,,,,,,,,,,,,,,,,,,,,,,,,,,,,,,,,,,,,,,,,,,,,,,,,,,,,,,,,,,,
,,,,,,,,,,00001335110,2020-10-30_21h49.01.900,swahili,2020.2.4,MacIntel,60,,,0,10,10,10,1,JIBINI,CHEESE,,,,,,,,,,,,,,,,,,,,,,,,,,,,,,,,,,,,,,,,,,,,,,,,,,,,,,,,,,,
,,,,,,,,,,00001335110,2020-10-30_21h49.01.900,swahili,2020.2.4,MacIntel,60,,,0,11,11,11,1,ZABIBU,GRAPES,,,,,,,,,,,,,,,,,,,,,,,,,,,,,,,,,,,,,,,,,,,,,,,,,,,,,,,,,,,
,,,,,,,,,,00001335110,2020-10-30_21h49.01.900,swahili,2020.2.4,MacIntel,60,,,0,12,12,12,1,KABURI,GRAVE,,,,,,,,,,,,,,,,,,,,,,,,,,,,,,,,,,,,,,,,,,,,,,,,,,,,,,,,,,,
,,,,,,,,,,00001335110,2020-10-30_21h49.01.900,swahili,2020.2.4,MacIntel,60,,,0,13,13,13,1,SAMADI,MANURE,,,,,,,,,,,,,,,,,,,,,,,,,,,,,,,,,,,,,,,,,,,,,,,,,,,,,,,,,,,
,,,,,,,,,,00001335110,2020-10-30_21h49.01.900,swahili,2020.2.4,MacIntel,60,,,0,14,14,14,1,WAKILI,AGENT,,,,,,,,,,,,,,,,,,,,,,,,,,,,,,,,,,,,,,,,,,,,,,,,,,,,,,,,,,,
,,,,,,,,,,00001335110,2020-10-30_21h49.01.900,swahili,2020.2.4,MacIntel,60,,,0,15,15,15,1,RUSHWA,BRIBE,,,,,,,,,,,,,,,,,,,,,,,,,,,,,,,,,,,,,,,,,,,,,,,,,,,,,,,,,,,
,,,,,,,,,,00001335110,2020-10-30_21h49.01.900,swahili,2020.2.4,MacIntel,60,,,0,16,16,16,1,YATIMA,ORPHAN,,,,,,,,,,,,,,,,,,,,,,,,,,,,,,,,,,,,,,,,,,,,,,,,,,,,,,,,,,,
,,,,,,,,,,00001335110,2020-10-30_21h49.01.900,swahili,2020.2.4,MacIntel,60,,,0,17,17,17,1,TALAKA,DIVORCE,,,,,,,,,,,,,,,,,,,,,,,,,,,,,,,,,,,,,,,,,,,,,,,,,,,,,,,,,,,
,,,,,,,,,,00001335110,2020-10-30_21h49.01.900,swahili,2020.2.4,MacIntel,60,,,0,18,18,18,1,MASHUA,BOAT,,,,,,,,,,,,,,,,,,,,,,,,,,,,,,,,,,,,,,,,,,,,,,,,,,,,,,,,,,,
,,,,,,,,,,00001335110,2020-10-30_21h49.01.900,swahili,2020.2.4,MacIntel,60,,,0,19,19,19,1,DAFINA,TREASURE,,,,,,,,,,,,,,,,,,,,,,,,,,,,,,,,,,,,,,,,,,,,,,,,,,,,,,,,,,,
,,,,,,,,,,00001335110,2020-10-30_21h49.01.900,swahili,2020.2.4,MacIntel,60,,,,,,,,,,-0.148339844,-0.013940972,1,0,0,6.94447,unsorted_card,0,0,0,0,1,,,,,,,,,,,,,,,,,,,,,,,,,,,,,,,,,,,,,,,,,,,,,,,
,,,,,,,,,,00001335110,2020-10-30_21h49.01.900,swahili,2020.2.4,MacIntel,60,,,,,,,,,,0.388764106,0.425529514,1,0,0,4.545645,study_pile,1,0,1,0,1,MERCHANT - TAJIRI,,,,,,,,,,,,,,,,,,,,,,,,,,,,,,,,,,,,,,,,,,,,,,
,,,,,,,,,,00001335110,2020-10-30_21h49.01.900,swahili,2020.2.4,MacIntel,60,,,,,,,,,,-0.19875217,-0.061449653,1,0,0,1.030205,unsorted_card,2,0,2,0,1,,,,,,,,,,,,,,,,,,,,,,,,,,,,,,,,,,,,,,,,,,,,,,,
,,,,,,,,,,00001335110,2020-10-30_21h49.01.900,swahili,2020.2.4,MacIntel,60,,,,,,,,,,0.392730035,0.400989583,1,0,0,4.815025,study_pile,3,0,3,0,1,PARROT - KASUKU,,,,,,,,,,,,,,,,,,,,,,,,,,,,,,,,,,,,,,,,,,,,,,
,,,,,,,,,,00001335110,2020-10-30_21h49.01.900,swahili,2020.2.4,MacIntel,60,,,,,,,,,,-0.137141927,0.051302083,1,0,0,0.795905,unsorted_card,4,0,4,0,1,,,,,,,,,,,,,,,,,,,,,,,,,,,,,,,,,,,,,,,,,,,,,,,
,,,,,,,,,,00001335110,2020-10-30_21h49.01.900,swahili,2020.2.4,MacIntel,60,,,,,,,,,,0.358447266,0.408307292,1,0,0,4.91412,study_pile,5,0,5,0,1,BULL - FAHILI,,,,,,,,,,,,,,,,,,,,,,,,,,,,,,,,,,,,,,,,,,,,,,
,,,,,,,,,,00001335110,2020-10-30_21h49.01.900,swahili,2020.2.4,MacIntel,60,,,,,,,,,,-0.161783854,0.046814236,1,0,0,0.698105,unsorted_card,6,0,6,0,1,,,,,,,,,,,,,,,,,,,,,,,,,,,,,,,,,,,,,,,,,,,,,,,
,,,,,,,,,,00001335110,2020-10-30_21h49.01.900,swahili,2020.2.4,MacIntel,60,,,,,,,,,,0.386279297,0.439027778,1,0,0,7.68218,study_pile,7,0,7,0,1,PLATE - SAHANI,,,,,,,,,,,,,,,,,,,,,,,,,,,,,,,,,,,,,,,,,,,,,,
,,,,,,,,,,00001335110,2020-10-30_21h49.01.900,swahili,2020.2.4,MacIntel,60,,,,,,,,,,-0.243473307,-0.043975694,1,0,0,0.68027,unsorted_card,8,0,8,0,1,,,,,,,,,,,,,,,,,,,,,,,,,,,,,,,,,,,,,,,,,,,,,,,
,,,,,,,,,,00001335110,2020-10-30_21h49.01.900,swahili,2020.2.4,MacIntel,60,,,,,,,,,,0.395084635,0.421336806,1,0,0,2.53236,study_pile,9,0,9,0,1,YEAST - HAMIRA,,,,,,,,,,,,,,,,,,,,,,,,,,,,,,,,,,,,,,,,,,,,,,
,,,,,,,,,,00001335110,2020-10-30_21h49.01.900,swahili,2020.2.4,MacIntel,60,,,,,,,,,,-0.192578125,0.032604167,1,0,0,0.76581,unsorted_card,10,0,10,0,1,,,,,,,,,,,,,,,,,,,,,,,,,,,,,,,,,,,,,,,,,,,,,,,
,,,,,,,,,,00001335110,2020-10-30_21h49.01.900,swahili,2020.2.4,MacIntel,60,,,,,,,,,,0.430794271,0.423862847,1,0,0,2.865155,study_pile,11,0,11,0,1,BLAME - LAWAMA,,,,,,,,,,,,,,,,,,,,,,,,,,,,,,,,,,,,,,,,,,,,,,
,,,,,,,,,,00001335110,2020-10-30_21h49.01.900,swahili,2020.2.4,MacIntel,60,,,,,,,,,,-0.131282552,0.008342014,1,0,0,0.82935,unsorted_card,12,0,12,0,1,,,,,,,,,,,,,,,,,,,,,,,,,,,,,,,,,,,,,,,,,,,,,,,
,,,,,,,,,,00001335110,2020-10-30_21h49.01.900,swahili,2020.2.4,MacIntel,60,,,,,,,,,,0.395827908,0.413619792,1,0,0,2.68255,study_pile,13,0,13,0,1,OATH - YAMINI,,,,,,,,,,,,,,,,,,,,,,,,,,,,,,,,,,,,,,,,,,,,,,
,,,,,,,,,,00001335110,2020-10-30_21h49.01.900,swahili,2020.2.4,MacIntel,60,,,,,,,,,,-0.141395399,-0.038420139,1,0,0,0.663845,unsorted_card,14,0,14,0,1,,,,,,,,,,,,,,,,,,,,,,,,,,,,,,,,,,,,,,,,,,,,,,,
,,,,,,,,,,00001335110,2020-10-30_21h49.01.900,swahili,2020.2.4,MacIntel,60,,,,,,,,,,0.429513889,0.481527778,1,0,0,1.915775,study_pile,15,0,15,0,1,CORN - NAFAKA,,,,,,,,,,,,,,,,,,,,,,,,,,,,,,,,,,,,,,,,,,,,,,
,,,,,,,,,,00001335110,2020-10-30_21h49.01.900,swahili,2020.2.4,MacIntel,60,,,,,,,,,,-0.145448134,-0.017552083,1,0,0,0.86419,unsorted_card,16,0,16,0,1,,,,,,,,,,,,,,,,,,,,,,,,,,,,,,,,,,,,,,,,,,,,,,,
,,,,,,,,,,00001335110,2020-10-30_21h49.01.900,swahili,2020.2.4,MacIntel,60,,,,,,,,,,0.431684028,0.424340278,1,0,0,4.100235,study_pile,17,0,17,0,1,POEM - UTENZI,,,,,,,,,,,,,,,,,,,,,,,,,,,,,,,,,,,,,,,,,,,,,,
,,,,,,,,,,00001335110,2020-10-30_21h49.01.900,swahili,2020.2.4,MacIntel,60,,,,,,,,,,-0.197178819,0.015486111,1,0,0,0.764505,unsorted_card,18,0,18,0,1,,,,,,,,,,,,,,,,,,,,,,,,,,,,,,,,,,,,,,,,,,,,,,,
,,,,,,,,,,00001335110,2020-10-30_21h49.01.900,swahili,2020.2.4,MacIntel,60,,,,,,,,,,0.48663737,0.403237847,1,0,0,5.1802,study_pile,19,0,19,0,1,TAILOR - MSHONI,,,,,,,,,,,,,,,,,,,,,,,,,,,,,,,,,,,,,,,,,,,,,,
,,,,,,,,,,00001335110,2020-10-30_21h49.01.900,swahili,2020.2.4,MacIntel,60,,,,,,,,,,-0.180501302,-0.161006944,1,0,0,0.73258,unsorted_card,20,0,20,0,1,,,,,,,,,,,,,,,,,,,,,,,,,,,,,,,,,,,,,,,,,,,,,,,
,,,,,,,,,,00001335110,2020-10-30_21h49.01.900,swahili,2020.2.4,MacIntel,60,,,,,,,,,,0.485335286,0.415581597,1,0,0,5.180135,study_pile,21,0,21,0,1,CHEESE - JIBINI,,,,,,,,,,,,,,,,,,,,,,,,,,,,,,,,,,,,,,,,,,,,,,
,,,,,,,,,,00001335110,2020-10-30_21h49.01.900,swahili,2020.2.4,MacIntel,60,,,,,,,,,,-0.224050564,-0.026727431,1,0,0,0.847195,unsorted_card,22,0,22,0,1,,,,,,,,,,,,,,,,,,,,,,,,,,,,,,,,,,,,,,,,,,,,,,,
,,,,,,,,,,00001335110,2020-10-30_21h49.01.900,swahili,2020.2.4,MacIntel,60,,,,,,,,,,0.506608073,0.526015625,1,0,0,3.132085,study_pile,23,0,23,0,1,GRAPES - ZABIBU,,,,,,,,,,,,,,,,,,,,,,,,,,,,,,,,,,,,,,,,,,,,,,
,,,,,,,,,,00001335110,2020-10-30_21h49.01.900,swahili,2020.2.4,MacIntel,60,,,,,,,,,,-0.149782986,0.031614583,1,0,0,0.816535,unsorted_card,24,0,24,0,1,,,,,,,,,,,,,,,,,,,,,,,,,,,,,,,,,,,,,,,,,,,,,,,
,,,,,,,,,,00001335110,2020-10-30_21h49.01.900,swahili,2020.2.4,MacIntel,60,,,,,,,,,,0.500726997,0.434210069,1,0,0,6.64783,study_pile,25,0,25,0,1,GRAVE - KABURI,,,,,,,,,,,,,,,,,,,,,,,,,,,,,,,,,,,,,,,,,,,,,,
,,,,,,,,,,00001335110,2020-10-30_21h49.01.900,swahili,2020.2.4,MacIntel,60,,,,,,,,,,-0.194786241,-0.023107639,1,0,0,0.76154,unsorted_card,26,0,26,0,1,,,,,,,,,,,,,,,,,,,,,,,,,,,,,,,,,,,,,,,,,,,,,,,
,,,,,,,,,,00001335110,2020-10-30_21h49.01.900,swahili,2020.2.4,MacIntel,60,,,,,,,,,,0.402452257,0.422673611,1,0,0,7.94833,study_pile,27,0,27,0,1,MANURE - SAMADI,,,,,,,,,,,,,,,,,,,,,,,,,,,,,,,,,,,,,,,,,,,,,,
,,,,,,,,,,00001335110,2020-10-30_21h49.01.900,swahili,2020.2.4,MacIntel,60,,,,,,,,,,-0.179926215,-0.095225694,1,0,0,0.83049,unsorted_card,28,0,28,0,1,,,,,,,,,,,,,,,,,,,,,,,,,,,,,,,,,,,,,,,,,,,,,,,
,,,,,,,,,,00001335110,2020-10-30_21h49.01.900,swahili,2020.2.4,MacIntel,60,,,,,,,,,,0.44078776,0.376024306,1,0,0,3.081675,study_pile,29,0,29,0,1,AGENT - WAKILI,,,,,,,,,,,,,,,,,,,,,,,,,,,,,,,,,,,,,,,,,,,,,,
,,,,,,,,,,00001335110,2020-10-30_21h49.01.900,swahili,2020.2.4,MacIntel,60,,,,,,,,,,-0.150640191,-0.115954861,1,0,0,0.79877,unsorted_card,30,0,30,0,1,,,,,,,,,,,,,,,,,,,,,,,,,,,,,,,,,,,,,,,,,,,,,,,
,,,,,,,,,,00001335110,2020-10-30_21h49.01.900,swahili,2020.2.4,MacIntel,60,,,,,,,,,,0.485823568,0.430842014,1,0,0,3.332,study_pile,31,0,31,0,1,BRIBE - RUSHWA,,,,,,,,,,,,,,,,,,,,,,,,,,,,,,,,,,,,,,,,,,,,,,
,,,,,,,,,,00001335110,2020-10-30_21h49.01.900,swahili,2020.2.4,MacIntel,60,,,,,,,,,,-0.147032335,-0.018289931,1,0,0,0.765265,unsorted_card,32,0,32,0,1,,,,,,,,,,,,,,,,,,,,,,,,,,,,,,,,,,,,,,,,,,,,,,,
,,,,,,,,,,00001335110,2020-10-30_21h49.01.900,swahili,2020.2.4,MacIntel,60,,,,,,,,,,0.497460937,0.434201389,1,0,0,3.96535,study_pile,33,0,33,0,1,ORPHAN - YATIMA,,,,,,,,,,,,,,,,,,,,,,,,,,,,,,,,,,,,,,,,,,,,,,
,,,,,,,,,,00001335110,2020-10-30_21h49.01.900,swahili,2020.2.4,MacIntel,60,,,,,,,,,,-0.207052951,-0.001527778,1,0,0,0.73117,unsorted_card,34,0,34,0,1,,,,,,,,,,,,,,,,,,,,,,,,,,,,,,,,,,,,,,,,,,,,,,,
,,,,,,,,,,00001335110,2020-10-30_21h49.01.900,swahili,2020.2.4,MacIntel,60,,,,,,,,,,0.452088759,0.413993056,1,0,0,2.43247,study_pile,35,0,35,0,1,DIVORCE - TALAKA,,,,,,,,,,,,,,,,,,,,,,,,,,,,,,,,,,,,,,,,,,,,,,
,,,,,,,,,,00001335110,2020-10-30_21h49.01.900,swahili,2020.2.4,MacIntel,60,,,,,,,,,,-0.173030599,-0.093359375,1,0,0,0.74799,unsorted_card,36,0,36,0,1,,,,,,,,,,,,,,,,,,,,,,,,,,,,,,,,,,,,,,,,,,,,,,,
,,,,,,,,,,00001335110,2020-10-30_21h49.01.900,swahili,2020.2.4,MacIntel,60,,,,,,,,,,-0.173030599,-0.093359375,1,0,0,3.197455,unsorted_card,37,0,37,0,1,BOAT - MASHUA,,,,,,,,,,,,,,,,,,,,,,,,,,,,,,,,,,,,,,,,,,,,,,
,,,,,,,,,,00001335110,2020-10-30_21h49.01.900,swahili,2020.2.4,MacIntel,60,,,,,,,,,,0.41624349,0.434982639,1,0,0,1.2155,study_pile,38,0,38,0,1,BOAT - MASHUA,,,,,,,,,,,,,,,,,,,,,,,,,,,,,,,,,,,,,,,,,,,,,,
,,,,,,,,,,00001335110,2020-10-30_21h49.01.900,swahili,2020.2.4,MacIntel,60,,,,,,,,,,-0.314968533,-0.100147569,1,0,0,0.73299,unsorted_card,39,0,39,0,1,,,,,,,,,,,,,,,,,,,,,,,,,,,,,,,,,,,,,,,,,,,,,,,
,,,,,,,,,,00001335110,2020-10-30_21h49.01.900,swahili,2020.2.4,MacIntel,60,,,,,,,,,,0.441210938,0.463914931,1,0,0,4.34761,study_pile,40,0,40,0,1,TREASURE - DAFINA,,,,,,,,,,,,,,,,,,,,,,,,,,,,,,,,,,,,,,,,,,,,,,
,,,,,,,,,,00001335110,2020-10-30_21h49.01.900,swahili,2020.2.4,MacIntel,60,,,,,,,,,,,,,,,,,,,,,,BOAT - MASHUA,,,,,,,,return,7.18683,return,6.26745,0,0,0,0,1,,,,,,,,,,,,,,,,,,,,,,,,,,,,,,
,,,,,,,,,,00001335110,2020-10-30_21h49.01.900,swahili,2020.2.4,MacIntel,60,,,,,,,,,,,,,,,,,,,,,,TAILOR - MSHONI,,,,,,,,,,return,4.18691,1,0,1,0,1,,,,,,,,,,,,,,,,,,,,,,,,,,,,,,
,,,,,,,,,,00001335110,2020-10-30_21h49.01.900,swahili,2020.2.4,MacIntel,60,,,,,,,,,,,,,,,,,,,,,,TREASURE - DAFINA,,,,,,,,,,return,3.084345,2,0,2,0,1,,,,,,,,,,,,,,,,,,,,,,,,,,,,,,
,,,,,,,,,,00001335110,2020-10-30_21h49.01.900,swahili,2020.2.4,MacIntel,60,,,,,,,,,,,,,,,,,,,,,,CORN - NAFAKA,,,,,,,,,,return,4.63163,3,0,3,0,1,,,,,,,,,,,,,,,,,,,,,,,,,,,,,,
,,,,,,,,,,00001335110,2020-10-30_21h49.01.900,swahili,2020.2.4,MacIntel,60,,,,,,,,,,,,,,,,,,,,,,MANURE - SAMADI,,,,,,,,,,return,3.817695,4,0,4,0,1,,,,,,,,,,,,,,,,,,,,,,,,,,,,,,
,,,,,,,,,,00001335110,2020-10-30_21h49.01.900,swahili,2020.2.4,MacIntel,60,,,,,,,,,,,,,,,,,,,,,,PLATE - SAHANI,,,,,,,,,,return,3.436275,5,0,5,0,1,,,,,,,,,,,,,,,,,,,,,,,,,,,,,,
,,,,,,,,,,00001335110,2020-10-30_21h49.01.900,swahili,2020.2.4,MacIntel,60,,,,,,,,,,,,,,,,,,,,,,DIVORCE - TALAKA,,,,,,,,,,return,1.81858,6,0,6,0,1,,,,,,,,,,,,,,,,,,,,,,,,,,,,,,
,,,,,,,,,,00001335110,2020-10-30_21h49.01.900,swahili,2020.2.4,MacIntel,60,,,,,,,,,,,,,,,,,,,,,,ORPHAN - YATIMA,,,,,,,,,,return,2.18529,7,0,7,0,1,,,,,,,,,,,,,,,,,,,,,,,,,,,,,,
,,,,,,,,,,00001335110,2020-10-30_21h49.01.900,swahili,2020.2.4,MacIntel,60,,,,,,,,,,,,,,,,,,,,,,BLAME - LAWAMA,,,,,,,,,,return,5.31947,8,0,8,0,1,,,,,,,,,,,,,,,,,,,,,,,,,,,,,,
,,,,,,,,,,00001335110,2020-10-30_21h49.01.900,swahili,2020.2.4,MacIntel,60,,,,,,,,,,,,,,,,,,,,,,YEAST - HAMIRA,,,,,,,,,,return,9.601795,9,0,9,0,1,,,,,,,,,,,,,,,,,,,,,,,,,,,,,,
,,,,,,,,,,00001335110,2020-10-30_21h49.01.900,swahili,2020.2.4,MacIntel,60,,,,,,,,,,,,,,,,,,,,,,MERCHANT - TAJIRI,,,,,,,,,,return,15.22058,10,0,10,0,1,,,,,,,,,,,,,,,,,,,,,,,,,,,,,,
,,,,,,,,,,00001335110,2020-10-30_21h49.01.900,swahili,2020.2.4,MacIntel,60,,,,,,,,,,,,,,,,,,,,,,OATH - YAMINI,,,,,,,,,,return,3.60426,11,0,11,0,1,,,,,,,,,,,,,,,,,,,,,,,,,,,,,,
,,,,,,,,,,00001335110,2020-10-30_21h49.01.900,swahili,2020.2.4,MacIntel,60,,,,,,,,,,,,,,,,,,,,,,POEM - UTENZI,,,,,,,,,,return,2.15089,12,0,12,0,1,,,,,,,,,,,,,,,,,,,,,,,,,,,,,,
,,,,,,,,,,00001335110,2020-10-30_21h49.01.900,swahili,2020.2.4,MacIntel,60,,,,,,,,,,,,,,,,,,,,,,PARROT - KASUKU,,,,,,,,,,return,1.350635,13,0,13,0,1,,,,,,,,,,,,,,,,,,,,,,,,,,,,,,
,,,,,,,,,,00001335110,2020-10-30_21h49.01.900,swahili,2020.2.4,MacIntel,60,,,,,,,,,,,,,,,,,,,,,,GRAPES - ZABIBU,,,,,,,,,,return,3.484315,14,0,14,0,1,,,,,,,,,,,,,,,,,,,,,,,,,,,,,,
,,,,,,,,,,00001335110,2020-10-30_21h49.01.900,swahili,2020.2.4,MacIntel,60,,,,,,,,,,,,,,,,,,,,,,CHEESE - JIBINI,,,,,,,,,,return,3.33461,15,0,15,0,1,,,,,,,,,,,,,,,,,,,,,,,,,,,,,,
,,,,,,,,,,00001335110,2020-10-30_21h49.01.900,swahili,2020.2.4,MacIntel,60,,,,,,,,,,,,,,,,,,,,,,GRAVE - KABURI,,,,,,,,,,return,1.21665,16,0,16,0,1,,,,,,,,,,,,,,,,,,,,,,,,,,,,,,
,,,,,,,,,,00001335110,2020-10-30_21h49.01.900,swahili,2020.2.4,MacIntel,60,,,,,,,,,,,,,,,,,,,,,,AGENT - WAKILI,,,,,,,,,,return,5.08007,17,0,17,0,1,,,,,,,,,,,,,,,,,,,,,,,,,,,,,,
,,,,,,,,,,00001335110,2020-10-30_21h49.01.900,swahili,2020.2.4,MacIntel,60,,,,,,,,,,,,,,,,,,,,,,BRIBE - RUSHWA,,,,,,,,,,return,1.00364,18,0,18,0,1,,,,,,,,,,,,,,,,,,,,,,,,,,,,,,
,,,,,,,,,,00001335110,2020-10-30_21h49.01.900,swahili,2020.2.4,MacIntel,60,,,,,,,,,,,,,,,,,,,,,,BULL - FAHILI,,,,,,,,,,return,5.219225,19,0,19,0,1,,,,,,,,,,,,,,,,,,,,,,,,,,,,,,
,,,,,,,,,,00001335110,2020-10-30_21h49.01.900,swahili,2020.2.4,MacIntel,60,,,,,,,,,,,,,,,,,,,,,,,,,,,,,,,,,,,,,,,,0,0,0,0,1,,,,,,,,,,,,,,,,,,,,,,,,
,,,,,,,,,,00001335110,2020-10-30_21h49.01.900,swahili,2020.2.4,MacIntel,60,,,,,,,,,,,,,,,,,,,,,,,,,,,,,,,,,,,,,,,,1,0,1,0,1,,,,,,,,,,,,,,,,,,,,,,,,
,,,,,,,,,,00001335110,2020-10-30_21h49.01.900,swahili,2020.2.4,MacIntel,60,,,,,,,,,,,,,,,,,,,,,,,,,,,,,,,,,,,,,,,,,,,,,0,0,0,0,1,,,,,,,,,,,,,,,,,,,
,,,,,,,,,,00001335110,2020-10-30_21h49.01.900,swahili,2020.2.4,MacIntel,60,,,,,,,,,,-0.253222656,0.054114583,1,0,0,25.448615,unsorted_card,0,0,0,0,1,,,,,,,,,,,,,,,,,,,,,,,,,,,,,,,,,,,,,,,,,,,,,,,
,,,,,,,,,,00001335110,2020-10-30_21h49.01.900,swahili,2020.2.4,MacIntel,60,,,,,,,,,,0.458040365,0.425026042,1,0,0,2.064935,study_pile,1,0,1,0,1,MERCHANT - TAJIRI,,,,,,,,,,,,,,,,,,,,,,,,,,,,,,,,,,,,,,,,,,,,,,
,,,,,,,,,,00001335110,2020-10-30_21h49.01.900,swahili,2020.2.4,MacIntel,60,,,,,,,,,,-0.116362847,0.084105903,1,0,0,0.850435,unsorted_card,2,0,2,0,1,,,,,,,,,,,,,,,,,,,,,,,,,,,,,,,,,,,,,,,,,,,,,,,
,,,,,,,,,,00001335110,2020-10-30_21h49.01.900,swahili,2020.2.4,MacIntel,60,,,,,,,,,,0.366780599,0.050954861,1,0,0,3.33112,test_pile,3,0,3,0,1,PARROT - KASUKU,,,,,,,,,,,,,,,,,,,,,,,,,,,,,,,,,,,,,,,,,,,,,,
,,,,,,,,,,00001335110,2020-10-30_21h49.01.900,swahili,2020.2.4,MacIntel,60,,,,,,,,,,-0.031043837,-0.003133681,1,0,0,0.548395,unsorted_card,4,0,4,0,1,,,,,,,,,,,,,,,,,,,,,,,,,,,,,,,,,,,,,,,,,,,,,,,
,,,,,,,,,,00001335110,2020-10-30_21h49.01.900,swahili,2020.2.4,MacIntel,60,,,,,,,,,,0.462055122,0.41734375,1,0,0,3.48164,study_pile,5,0,5,0,1,BULL - FAHILI,,,,,,,,,,,,,,,,,,,,,,,,,,,,,,,,,,,,,,,,,,,,,,
,,,,,,,,,,00001335110,2020-10-30_21h49.01.900,swahili,2020.2.4,MacIntel,60,,,,,,,,,,-0.21484375,0.02828125,1,0,0,0.71438,unsorted_card,6,0,6,0,1,,,,,,,,,,,,,,,,,,,,,,,,,,,,,,,,,,,,,,,,,,,,,,,
,,,,,,,,,,00001335110,2020-10-30_21h49.01.900,swahili,2020.2.4,MacIntel,60,,,,,,,,,,0.383132595,0.430407986,1,0,0,1.38255,study_pile,7,0,7,0,1,PLATE - SAHANI,,,,,,,,,,,,,,,,,,,,,,,,,,,,,,,,,,,,,,,,,,,,,,
,,,,,,,,,,00001335110,2020-10-30_21h49.01.900,swahili,2020.2.4,MacIntel,60,,,,,,,,,,-0.182411024,0.011822917,1,0,0,0.514535,unsorted_card,8,0,8,0,1,,,,,,,,,,,,,,,,,,,,,,,,,,,,,,,,,,,,,,,,,,,,,,,
,,,,,,,,,,00001335110,2020-10-30_21h49.01.900,swahili,2020.2.4,MacIntel,60,,,,,,,,,,0.380560981,0.050164931,1,0,0,1.633165,test_pile,9,0,9,0,1,YEAST - HAMIRA,,,,,,,,,,,,,,,,,,,,,,,,,,,,,,,,,,,,,,,,,,,,,,
,,,,,,,,,,00001335110,2020-10-30_21h49.01.900,swahili,2020.2.4,MacIntel,60,,,,,,,,,,-0.174430339,-0.015329861,1,0,0,0.530675,unsorted_card,10,0,10,0,1,,,,,,,,,,,,,,,,,,,,,,,,,,,,,,,,,,,,,,,,,,,,,,,
,,,,,,,,,,00001335110,2020-10-30_21h49.01.900,swahili,2020.2.4,MacIntel,60,,,,,,,,,,0.432373047,0.456779514,1,0,0,3.99849,study_pile,11,0,11,0,1,BLAME - LAWAMA,,,,,,,,,,,,,,,,,,,,,,,,,,,,,,,,,,,,,,,,,,,,,,
,,,,,,,,,,00001335110,2020-10-30_21h49.01.900,swahili,2020.2.4,MacIntel,60,,,,,,,,,,-0.151925998,0.012005208,1,0,0,0.58106,unsorted_card,12,0,12,0,1,,,,,,,,,,,,,,,,,,,,,,,,,,,,,,,,,,,,,,,,,,,,,,,
,,,,,,,,,,00001335110,2020-10-30_21h49.01.900,swahili,2020.2.4,MacIntel,60,,,,,,,,,,0.475482856,0.42328125,1,0,0,1.498445,study_pile,13,0,13,0,1,OATH - YAMINI,,,,,,,,,,,,,,,,,,,,,,,,,,,,,,,,,,,,,,,,,,,,,,
,,,,,,,,,,00001335110,2020-10-30_21h49.01.900,swahili,2020.2.4,MacIntel,60,,,,,,,,,,-0.136610243,-0.054513889,1,0,0,0.61638,unsorted_card,14,0,14,0,1,,,,,,,,,,,,,,,,,,,,,,,,,,,,,,,,,,,,,,,,,,,,,,,
,,,,,,,,,,00001335110,2020-10-30_21h49.01.900,swahili,2020.2.4,MacIntel,60,,,,,,,,,,0.340190972,0.001423611,1,0,0,2.047755,test_pile,15,0,15,0,1,CORN - NAFAKA,,,,,,,,,,,,,,,,,,,,,,,,,,,,,,,,,,,,,,,,,,,,,,
,,,,,,,,,,00001335110,2020-10-30_21h49.01.900,swahili,2020.2.4,MacIntel,60,,,,,,,,,,-0.276730686,-0.040503472,1,0,0,0.565265,unsorted_card,16,0,16,0,1,,,,,,,,,,,,,,,,,,,,,,,,,,,,,,,,,,,,,,,,,,,,,,,
,,,,,,,,,,00001335110,2020-10-30_21h49.01.900,swahili,2020.2.4,MacIntel,60,,,,,,,,,,0.356884766,0.013802083,1,0,0,1.415265,test_pile,17,0,17,0,1,POEM - UTENZI,,,,,,,,,,,,,,,,,,,,,,,,,,,,,,,,,,,,,,,,,,,,,,
,,,,,,,,,,00001335110,2020-10-30_21h49.01.900,swahili,2020.2.4,MacIntel,60,,,,,,,,,,-0.243663194,-0.004782986,1,0,0,0.613855,unsorted_card,18,0,18,0,1,,,,,,,,,,,,,,,,,,,,,,,,,,,,,,,,,,,,,,,,,,,,,,,
,,,,,,,,,,00001335110,2020-10-30_21h49.01.900,swahili,2020.2.4,MacIntel,60,,,,,,,,,,0.344341363,0.018420139,1,0,0,1.2834,test_pile,19,0,19,0,1,TAILOR - MSHONI,,,,,,,,,,,,,,,,,,,,,,,,,,,,,,,,,,,,,,,,,,,,,,
,,,,,,,,,,00001335110,2020-10-30_21h49.01.900,swahili,2020.2.4,MacIntel,60,,,,,,,,,,-0.132286241,-0.017317708,1,0,0,0.532255,unsorted_card,20,0,20,0,1,,,,,,,,,,,,,,,,,,,,,,,,,,,,,,,,,,,,,,,,,,,,,,,
,,,,,,,,,,00001335110,2020-10-30_21h49.01.900,swahili,2020.2.4,MacIntel,60,,,,,,,,,,0.378233507,0.057039931,1,0,0,1.71402,test_pile,21,0,21,0,1,CHEESE - JIBINI,,,,,,,,,,,,,,,,,,,,,,,,,,,,,,,,,,,,,,,,,,,,,,
,,,,,,,,,,00001335110,2020-10-30_21h49.01.900,swahili,2020.2.4,MacIntel,60,,,,,,,,,,-0.214019097,-0.034878472,1,0,0,0.599135,unsorted_card,22,0,22,0,1,,,,,,,,,,,,,,,,,,,,,,,,,,,,,,,,,,,,,,,,,,,,,,,
,,,,,,,,,,00001335110,2020-10-30_21h49.01.900,swahili,2020.2.4,MacIntel,60,,,,,,,,,,0.394829644,-0.002786458,1,0,0,1.565945,test_pile,23,0,23,0,1,GRAPES - ZABIBU,,,,,,,,,,,,,,,,,,,,,,,,,,,,,,,,,,,,,,,,,,,,,,
,,,,,,,,,,00001335110,2020-10-30_21h49.01.900,swahili,2020.2.4,MacIntel,60,,,,,,,,,,-0.216107856,-0.092109375,1,0,0,0.681675,unsorted_card,24,0,24,0,1,,,,,,,,,,,,,,,,,,,,,,,,,,,,,,,,,,,,,,,,,,,,,,,
,,,,,,,,,,00001335110,2020-10-30_21h49.01.900,swahili,2020.2.4,MacIntel,60,,,,,,,,,,0.363943142,0.007282986,1,0,0,1.615275,test_pile,25,0,25,0,1,GRAVE - KABURI,,,,,,,,,,,,,,,,,,,,,,,,,,,,,,,,,,,,,,,,,,,,,,
,,,,,,,,,,00001335110,2020-10-30_21h49.01.900,swahili,2020.2.4,MacIntel,60,,,,,,,,,,-0.149023437,-0.038923611,1,0,0,0.548175,unsorted_card,26,0,26,0,1,,,,,,,,,,,,,,,,,,,,,,,,,,,,,,,,,,,,,,,,,,,,,,,
,,,,,,,,,,00001335110,2020-10-30_21h49.01.900,swahili,2020.2.4,MacIntel,60,,,,,,,,,,0.36086697,0.437612847,1,0,0,1.34894,study_pile,27,0,27,0,1,MANURE - SAMADI,,,,,,,,,,,,,,,,,,,,,,,,,,,,,,,,,,,,,,,,,,,,,,
,,,,,,,,,,00001335110,2020-10-30_21h49.01.900,swahili,2020.2.4,MacIntel,60,,,,,,,,,,-0.161680773,0.036276042,1,0,0,0.598155,unsorted_card,28,0,28,0,1,,,,,,,,,,,,,,,,,,,,,,,,,,,,,,,,,,,,,,,,,,,,,,,
,,,,,,,,,,00001335110,2020-10-30_21h49.01.900,swahili,2020.2.4,MacIntel,60,,,,,,,,,,0.40305447,0.435243056,1,0,0,1.73161,study_pile,29,0,29,0,1,AGENT - WAKILI,,,,,,,,,,,,,,,,,,,,,,,,,,,,,,,,,,,,,,,,,,,,,,
,,,,,,,,,,00001335110,2020-10-30_21h49.01.900,swahili,2020.2.4,MacIntel,60,,,,,,,,,,-0.18367513,0.020963542,1,0,0,0.565225,unsorted_card,30,0,30,0,1,,,,,,,,,,,,,,,,,,,,,,,,,,,,,,,,,,,,,,,,,,,,,,,
,,,,,,,,,,00001335110,2020-10-30_21h49.01.900,swahili,2020.2.4,MacIntel,60,,,,,,,,,,0.41234809,-0.064939236,1,0,0,1.132405,test_pile,31,0,31,0,1,BRIBE - RUSHWA,,,,,,,,,,,,,,,,,,,,,,,,,,,,,,,,,,,,,,,,,,,,,,
,,,,,,,,,,00001335110,2020-10-30_21h49.01.900,swahili,2020.2.4,MacIntel,60,,,,,,,,,,-0.132980686,-0.093151042,1,0,0,0.63191,unsorted_card,32,0,32,0,1,,,,,,,,,,,,,,,,,,,,,,,,,,,,,,,,,,,,,,,,,,,,,,,
,,,,,,,,,,00001335110,2020-10-30_21h49.01.900,swahili,2020.2.4,MacIntel,60,,,,,,,,,,0.33116862,-0.051822917,1,0,0,1.81558,test_pile,33,0,33,0,1,ORPHAN - YATIMA,,,,,,,,,,,,,,,,,,,,,,,,,,,,,,,,,,,,,,,,,,,,,,
,,,,,,,,,,00001335110,2020-10-30_21h49.01.900,swahili,2020.2.4,MacIntel,60,,,,,,,,,,-0.2171875,-0.061953125,1,0,0,0.532005,unsorted_card,34,0,34,0,1,,,,,,,,,,,,,,,,,,,,,,,,,,,,,,,,,,,,,,,,,,,,,,,
,,,,,,,,,,00001335110,2020-10-30_21h49.01.900,swahili,2020.2.4,MacIntel,60,,,,,,,,,,0.43633355,0.007838542,1,0,0,3.449845,test_pile,35,0,35,0,1,DIVORCE - TALAKA,,,,,,,,,,,,,,,,,,,,,,,,,,,,,,,,,,,,,,,,,,,,,,
,,,,,,,,,,00001335110,2020-10-30_21h49.01.900,swahili,2020.2.4,MacIntel,60,,,,,,,,,,-0.145117187,-0.070217014,1,0,0,0.614415,unsorted_card,36,0,36,0,1,,,,,,,,,,,,,,,,,,,,,,,,,,,,,,,,,,,,,,,,,,,,,,,
,,,,,,,,,,00001335110,2020-10-30_21h49.01.900,swahili,2020.2.4,MacIntel,60,,,,,,,,,,0.349007161,0.441397569,1,0,0,2.213525,study_pile,37,0,37,0,1,BOAT - MASHUA,,,,,,,,,,,,,,,,,,,,,,,,,,,,,,,,,,,,,,,,,,,,,,
,,,,,,,,,,00001335110,2020-10-30_21h49.01.900,swahili,2020.2.4,MacIntel,60,,,,,,,,,,-0.158203125,0.010859375,1,0,0,0.615575,unsorted_card,38,0,38,0,1,,,,,,,,,,,,,,,,,,,,,,,,,,,,,,,,,,,,,,,,,,,,,,,
,,,,,,,,,,00001335110,2020-10-30_21h49.01.900,swahili,2020.2.4,MacIntel,60,,,,,,,,,,0.468522135,0.045112847,1,0,0,1.7148,test_pile,39,0,39,0,1,TREASURE - DAFINA,,,,,,,,,,,,,,,,,,,,,,,,,,,,,,,,,,,,,,,,,,,,,,
,,,,,,,,,,00001335110,2020-10-30_21h49.01.900,swahili,2020.2.4,MacIntel,60,,,,,,,,,,,,,,,,,,,,,,,0.349484592,0.079973958,1,0,0,2.51571,test_first,,,,,0,0,0,0,1,,,,,,,,,,,,,,,,,,,,,,,,,,,,,,
,,,,,,,,,,00001335110,2020-10-30_21h49.01.900,swahili,2020.2.4,MacIntel,60,,,,,,,,,,,,,,,,,,,,,,,,,,,,,,,,,,,,,,,return,,,,,,,,,,,5.863215,7.39628,0.3777398,-0.064973958,1,0,0,1.71501,yes,GRAPES,ZABIBU,incorrect,0,0,0,0,1,,
,,,,,,,,,,00001335110,2020-10-30_21h49.01.900,swahili,2020.2.4,MacIntel,60,,,,,,,,,,,,,,,,,,,,,,,,,,,,,,,,,,,,,,,,,,,,,,,,,,,5.732655,0.310177951,-0.157421875,1,0,0,0.966235,yes,BRIBE,RUSHWA,incorrect,1,0,1,0,1,,
,,,,,,,,,,00001335110,2020-10-30_21h49.01.900,swahili,2020.2.4,MacIntel,60,,,,,,,,,,,,,,,,,,,,,,,,,,,,,,,,,,,,,,,,,,,,,,,,,,,3.448875,0.371679688,-0.114791667,1,0,0,1.798505,yes,TREASURE,DAFINA,incorrect,2,0,2,0,1,,
,,,,,,,,,,00001335110,2020-10-30_21h49.01.900,swahili,2020.2.4,MacIntel,60,,,,,,,,,,,,,,,,,,,,,,,,,,,,,,,,,,,,,,,,,,,,,,,,,,,5.08094,0.298318142,-0.186579861,1,0,0,1.151185,yes,POEM,UTENZI,incorrect,3,0,3,0,1,,
,,,,,,,,,,00001335110,2020-10-30_21h49.01.900,swahili,2020.2.4,MacIntel,60,,,,,,,,,,,,,,,,,,,,,,,,,,,,,,,,,,,,,,,,,,,,,,,,,,,3.09858,0.458062066,0.053298611,1,0,0,0.749925,yes,TAILOR,MSHONI,incorrect,4,0,4,0,1,,
,,,,,,,,,,00001335110,2020-10-30_21h49.01.900,swahili,2020.2.4,MacIntel,60,,,,,,,,,,,,,,,,,,,,,,,,,,,,,,,,,,,,,,,,,,,,,,,,,,,2.69727,0.330805122,-0.103185764,1,0,0,0.98486,yes,CORN,NAFAKA,incorrect,5,0,5,0,1,,
,,,,,,,,,,00001335110,2020-10-30_21h49.01.900,swahili,2020.2.4,MacIntel,60,,,,,,,,,,,,,,,,,,,,,,,,,,,,,,,,,,,,,,,,,,,,,,,,,,,4.34881,0.405772569,-0.081675347,1,0,0,0.66723,yes,YEAST,HAMINI,incorrect,6,0,6,0,1,,
,,,,,,,,,,00001335110,2020-10-30_21h49.01.900,swahili,2020.2.4,MacIntel,60,,,,,,,,,,,,,,,,,,,,,,,,,,,,,,,,,,,,,,,,,,,,,,,,,,,3.015385,0.331499566,-0.139305556,1,0,0,0.94938,yes,CHEESE,JIBINI,incorrect,7,0,7,0,1,,
,,,,,,,,,,00001335110,2020-10-30_21h49.01.900,swahili,2020.2.4,MacIntel,60,,,,,,,,,,,,,,,,,,,,,,,,,,,,,,,,,,,,,,,,,,,,,,,,,,,13.599185,0.364290365,-0.031050347,1,0,0,0.765425,yes,GRAVE,DABURI,incorrect,8,0,8,0,1,,
,,,,,,,,,,00001335110,2020-10-30_21h49.01.900,swahili,2020.2.4,MacIntel,60,,,,,,,,,,,,,,,,,,,,,,,,,,,,,,,,,,,,,,,,,,,,,,,,,,,13.43142,0.36633572,-0.076866319,1,0,0,0.717125,yes,PARROT,KUNAKA,incorrect,9,0,9,0,1,,
,,,,,,,,,,00001335110,2020-10-30_21h49.01.900,swahili,2020.2.4,MacIntel,60,,,,,,,,,,,,,,,,,,,,,,,,,,,,,,,,,,,,,,,,,,,,,,,,,,,6.680815,0.302224392,-0.110980903,1,0,0,0.916925,yes,ORPHAN,YATIMA,incorrect,10,0,10,0,1,,
,,,,,,,,,,00001335110,2020-10-30_21h49.01.900,swahili,2020.2.4,MacIntel,60,,,,,,,,,,,,,,,,,,,,,,,,,,,,,,,,,,,,,,,,,,,,,,,,,,,11.41423,0.293495009,-0.150868056,1,0,0,0.90095,yes,DIVORCE,TALAKA,incorrect,11,0,11,0,1,,
,,,,,,,,,,00001335110,2020-10-30_21h49.01.900,swahili,2020.2.4,MacIntel,60,,,,,,,,,,,,,,,,,,,,,,,,,,,,,,,,,,,,,,,,0,0,0,0,1,,,,,,,,,,,,,,,,,,,,,,,,
,,,,,,,,,,00001335110,2020-10-30_21h49.01.900,swahili,2020.2.4,MacIntel,60,,,,,,,,,,,,,,,,,,,,,,BOAT - MASHUA,,,,,,,,return,3.67065,return,4.098565,0,0,0,0,1,,,,,,,,,,,,,,,,,,,,,,,,,,,,,,
,,,,,,,,,,00001335110,2020-10-30_21h49.01.900,swahili,2020.2.4,MacIntel,60,,,,,,,,,,,,,,,,,,,,,,AGENT - WAKILI,,,,,,,,,,return,5.43465,1,0,1,0,1,,,,,,,,,,,,,,,,,,,,,,,,,,,,,,
,,,,,,,,,,00001335110,2020-10-30_21h49.01.900,swahili,2020.2.4,MacIntel,60,,,,,,,,,,,,,,,,,,,,,,OATH - YAMINI,,,,,,,,,,return,17.14667,2,0,2,0,1,,,,,,,,,,,,,,,,,,,,,,,,,,,,,,
,,,,,,,,,,00001335110,2020-10-30_21h49.01.900,swahili,2020.2.4,MacIntel,60,,,,,,,,,,,,,,,,,,,,,,BULL - FAHILI,,,,,,,,,,return,8.85176,3,0,3,0,1,,,,,,,,,,,,,,,,,,,,,,,,,,,,,,
,,,,,,,,,,00001335110,2020-10-30_21h49.01.900,swahili,2020.2.4,MacIntel,60,,,,,,,,,,,,,,,,,,,,,,MERCHANT - TAJIRI,,,,,,,,,,return,2.251165,4,0,4,0,1,,,,,,,,,,,,,,,,,,,,,,,,,,,,,,
,,,,,,,,,,00001335110,2020-10-30_21h49.01.900,swahili,2020.2.4,MacIntel,60,,,,,,,,,,,,,,,,,,,,,,PLATE - SAHANI,,,,,,,,,,return,5.800665,5,0,5,0,1,,,,,,,,,,,,,,,,,,,,,,,,,,,,,,
,,,,,,,,,,00001335110,2020-10-30_21h49.01.900,swahili,2020.2.4,MacIntel,60,,,,,,,,,,,,,,,,,,,,,,BLAME - LAWAMA,,,,,,,,,,return,4.849715,6,0,6,0,1,,,,,,,,,,,,,,,,,,,,,,,,,,,,,,
,,,,,,,,,,00001335110,2020-10-30_21h49.01.900,swahili,2020.2.4,MacIntel,60,,,,,,,,,,,,,,,,,,,,,,MANURE - SAMADI,,,,,,,,,,return,2.467755,7,0,7,0,1,,,,,,,,,,,,,,,,,,,,,,,,,,,,,,
,,,,,,,,,,00001335110,2020-10-30_21h49.01.900,swahili,2020.2.4,MacIntel,60,,,,,,,,,,,,,,,,,,,,,,,,,,,,,,,,,,,,,,,,1,0,1,0,1,,,,,,,,,,,,,,,,,,,,,,,,
,,,,,,,,,,00001335110,2020-10-30_21h49.01.900,swahili,2020.2.4,MacIntel,60,,,,,,,,,,,,,,,,,,,,,,,,,,,,,,,,,,,,,,,,,,,,,1,0,1,0,1,,,,,,,,,,,,,,,,,,,
,,,,,,,,,,00001335110,2020-10-30_21h49.01.900,swahili,2020.2.4,MacIntel,60,,,,,,,,,,-0.221028646,-0.193255208,1,0,0,2.48776,unsorted_card,0,0,0,0,1,,,,,,,,,,,,,,,,,,,,,,,,,,,,,,,,,,,,,,,,,,,,,,,
,,,,,,,,,,00001335110,2020-10-30_21h49.01.900,swahili,2020.2.4,MacIntel,60,,,,,,,,,,0.435210503,0.391258681,1,0,0,2.98149,study_pile,1,0,1,0,1,MERCHANT - TAJIRI,,,,,,,,,,,,,,,,,,,,,,,,,,,,,,,,,,,,,,,,,,,,,,
,,,,,,,,,,00001335110,2020-10-30_21h49.01.900,swahili,2020.2.4,MacIntel,60,,,,,,,,,,-0.183729384,0.033984375,1,0,0,0.59831,unsorted_card,2,0,2,0,1,,,,,,,,,,,,,,,,,,,,,,,,,,,,,,,,,,,,,,,,,,,,,,,
,,,,,,,,,,00001335110,2020-10-30_21h49.01.900,swahili,2020.2.4,MacIntel,60,,,,,,,,,,0.428944227,0.075095486,1,0,0,5.14668,test_pile,3,0,3,0,1,PARROT - KASUKU,,,,,,,,,,,,,,,,,,,,,,,,,,,,,,,,,,,,,,,,,,,,,,
,,,,,,,,,,00001335110,2020-10-30_21h49.01.900,swahili,2020.2.4,MacIntel,60,,,,,,,,,,-0.133648003,-0.072482639,1,0,0,0.729395,unsorted_card,4,0,4,0,1,,,,,,,,,,,,,,,,,,,,,,,,,,,,,,,,,,,,,,,,,,,,,,,
,,,,,,,,,,00001335110,2020-10-30_21h49.01.900,swahili,2020.2.4,MacIntel,60,,,,,,,,,,0.357286241,-0.008394097,1,0,0,1.69791,test_pile,5,0,5,0,1,BULL - FAHILI,,,,,,,,,,,,,,,,,,,,,,,,,,,,,,,,,,,,,,,,,,,,,,
,,,,,,,,,,00001335110,2020-10-30_21h49.01.900,swahili,2020.2.4,MacIntel,60,,,,,,,,,,-0.275211589,-0.085963542,1,0,0,0.51521,unsorted_card,6,0,6,0,1,,,,,,,,,,,,,,,,,,,,,,,,,,,,,,,,,,,,,,,,,,,,,,,
,,,,,,,,,,00001335110,2020-10-30_21h49.01.900,swahili,2020.2.4,MacIntel,60,,,,,,,,,,0.473697917,0.451493056,1,0,0,1.881815,study_pile,7,0,7,0,1,PLATE - SAHANI,,,,,,,,,,,,,,,,,,,,,,,,,,,,,,,,,,,,,,,,,,,,,,
,,,,,,,,,,00001335110,2020-10-30_21h49.01.900,swahili,2020.2.4,MacIntel,60,,,,,,,,,,-0.276779514,0.052612847,1,0,0,0.53268,unsorted_card,8,0,8,0,1,,,,,,,,,,,,,,,,,,,,,,,,,,,,,,,,,,,,,,,,,,,,,,,
,,,,,,,,,,00001335110,2020-10-30_21h49.01.900,swahili,2020.2.4,MacIntel,60,,,,,,,,,,0.403108724,0.009288194,1,0,0,2.33187,test_pile,9,0,9,0,1,YEAST - HAMIRA,,,,,,,,,,,,,,,,,,,,,,,,,,,,,,,,,,,,,,,,,,,,,,
,,,,,,,,,,00001335110,2020-10-30_21h49.01.900,swahili,2020.2.4,MacIntel,60,,,,,,,,,,-0.170486111,-0.16953125,1,0,0,0.614795,unsorted_card,10,0,10,0,1,,,,,,,,,,,,,,,,,,,,,,,,,,,,,,,,,,,,,,,,,,,,,,,
,,,,,,,,,,00001335110,2020-10-30_21h49.01.900,swahili,2020.2.4,MacIntel,60,,,,,,,,,,0.430197483,-0.011588542,1,0,0,2.148755,test_pile,11,0,11,0,1,BLAME - LAWAMA,,,,,,,,,,,,,,,,,,,,,,,,,,,,,,,,,,,,,,,,,,,,,,
,,,,,,,,,,00001335110,2020-10-30_21h49.01.900,swahili,2020.2.4,MacIntel,60,,,,,,,,,,-0.121565755,-0.033559028,1,0,0,0.53265,unsorted_card,12,0,12,0,1,,,,,,,,,,,,,,,,,,,,,,,,,,,,,,,,,,,,,,,,,,,,,,,
,,,,,,,,,,00001335110,2020-10-30_21h49.01.900,swahili,2020.2.4,MacIntel,60,,,,,,,,,,0.421104601,0.401536458,1,0,0,2.050185,study_pile,13,0,13,0,1,OATH - YAMINI,,,,,,,,,,,,,,,,,,,,,,,,,,,,,,,,,,,,,,,,,,,,,,
,,,,,,,,,,00001335110,2020-10-30_21h49.01.900,swahili,2020.2.4,MacIntel,60,,,,,,,,,,-0.164360894,0.044774306,1,0,0,0.464385,unsorted_card,14,0,14,0,1,,,,,,,,,,,,,,,,,,,,,,,,,,,,,,,,,,,,,,,,,,,,,,,
,,,,,,,,,,00001335110,2020-10-30_21h49.01.900,swahili,2020.2.4,MacIntel,60,,,,,,,,,,0.367214627,-0.003689236,1,0,0,2.348915,test_pile,15,0,15,0,1,CORN - NAFAKA,,,,,,,,,,,,,,,,,,,,,,,,,,,,,,,,,,,,,,,,,,,,,,
,,,,,,,,,,00001335110,2020-10-30_21h49.01.900,swahili,2020.2.4,MacIntel,60,,,,,,,,,,-0.107958984,-0.063107639,1,0,0,0.847595,unsorted_card,16,0,16,0,1,,,,,,,,,,,,,,,,,,,,,,,,,,,,,,,,,,,,,,,,,,,,,,,
,,,,,,,,,,00001335110,2020-10-30_21h49.01.900,swahili,2020.2.4,MacIntel,60,,,,,,,,,,0.356233724,-0.023897569,1,0,0,1.03151,test_pile,17,0,17,0,1,POEM - UTENZI,,,,,,,,,,,,,,,,,,,,,,,,,,,,,,,,,,,,,,,,,,,,,,
,,,,,,,,,,00001335110,2020-10-30_21h49.01.900,swahili,2020.2.4,MacIntel,60,,,,,,,,,,-0.196055773,-0.036345486,1,0,0,0.51577,unsorted_card,18,0,18,0,1,,,,,,,,,,,,,,,,,,,,,,,,,,,,,,,,,,,,,,,,,,,,,,,
,,,,,,,,,,00001335110,2020-10-30_21h49.01.900,swahili,2020.2.4,MacIntel,60,,,,,,,,,,0.376557075,-0.000659722,1,0,0,0.917015,test_pile,19,0,19,0,1,TAILOR - MSHONI,,,,,,,,,,,,,,,,,,,,,,,,,,,,,,,,,,,,,,,,,,,,,,
,,,,,,,,,,00001335110,2020-10-30_21h49.01.900,swahili,2020.2.4,MacIntel,60,,,,,,,,,,-0.184798177,-0.052005208,1,0,0,0.515405,unsorted_card,20,0,20,0,1,,,,,,,,,,,,,,,,,,,,,,,,,,,,,,,,,,,,,,,,,,,,,,,
,,,,,,,,,,00001335110,2020-10-30_21h49.01.900,swahili,2020.2.4,MacIntel,60,,,,,,,,,,0.363308377,-0.057890625,1,0,0,0.93058,test_pile,21,0,21,0,1,CHEESE - JIBINI,,,,,,,,,,,,,,,,,,,,,,,,,,,,,,,,,,,,,,,,,,,,,,
,,,,,,,,,,00001335110,2020-10-30_21h49.01.900,swahili,2020.2.4,MacIntel,60,,,,,,,,,,-0.17679579,-0.071840278,1,0,0,0.533435,unsorted_card,22,0,22,0,1,,,,,,,,,,,,,,,,,,,,,,,,,,,,,,,,,,,,,,,,,,,,,,,
,,,,,,,,,,00001335110,2020-10-30_21h49.01.900,swahili,2020.2.4,MacIntel,60,,,,,,,,,,0.376844618,-0.010269097,1,0,0,1.1147,test_pile,23,0,23,0,1,GRAPES - ZABIBU,,,,,,,,,,,,,,,,,,,,,,,,,,,,,,,,,,,,,,,,,,,,,,
,,,,,,,,,,00001335110,2020-10-30_21h49.01.900,swahili,2020.2.4,MacIntel,60,,,,,,,,,,-0.226703559,-0.007013889,1,0,0,0.46498,unsorted_card,24,0,24,0,1,,,,,,,,,,,,,,,,,,,,,,,,,,,,,,,,,,,,,,,,,,,,,,,
,,,,,,,,,,00001335110,2020-10-30_21h49.01.900,swahili,2020.2.4,MacIntel,60,,,,,,,,,,0.394493273,-0.038324653,1,0,0,1.68287,test_pile,25,0,25,0,1,GRAVE - KABURI,,,,,,,,,,,,,,,,,,,,,,,,,,,,,,,,,,,,,,,,,,,,,,
,,,,,,,,,,00001335110,2020-10-30_21h49.01.900,swahili,2020.2.4,MacIntel,60,,,,,,,,,,-0.150195313,-0.088220486,1,0,0,0.531085,unsorted_card,26,0,26,0,1,,,,,,,,,,,,,,,,,,,,,,,,,,,,,,,,,,,,,,,,,,,,,,,
,,,,,,,,,,00001335110,2020-10-30_21h49.01.900,swahili,2020.2.4,MacIntel,60,,,,,,,,,,0.409185113,0.354383681,1,0,0,1.649545,study_pile,27,0,27,0,1,MANURE - SAMADI,,,,,,,,,,,,,,,,,,,,,,,,,,,,,,,,,,,,,,,,,,,,,,
,,,,,,,,,,00001335110,2020-10-30_21h49.01.900,swahili,2020.2.4,MacIntel,60,,,,,,,,,,-0.179465061,-0.021571181,1,0,0,0.4819,unsorted_card,28,0,28,0,1,,,,,,,,,,,,,,,,,,,,,,,,,,,,,,,,,,,,,,,,,,,,,,,
,,,,,,,,,,00001335110,2020-10-30_21h49.01.900,swahili,2020.2.4,MacIntel,60,,,,,,,,,,0.327539062,-0.004036458,1,0,0,1.6654,test_pile,29,0,29,0,1,AGENT - WAKILI,,,,,,,,,,,,,,,,,,,,,,,,,,,,,,,,,,,,,,,,,,,,,,
,,,,,,,,,,00001335110,2020-10-30_21h49.01.900,swahili,2020.2.4,MacIntel,60,,,,,,,,,,-0.144325087,-0.026328125,1,0,0,0.448165,unsorted_card,30,0,30,0,1,,,,,,,,,,,,,,,,,,,,,,,,,,,,,,,,,,,,,,,,,,,,,,,
,,,,,,,,,,00001335110,2020-10-30_21h49.01.900,swahili,2020.2.4,MacIntel,60,,,,,,,,,,0.350976562,-0.051901042,1,0,0,0.899325,test_pile,31,0,31,0,1,BRIBE - RUSHWA,,,,,,,,,,,,,,,,,,,,,,,,,,,,,,,,,,,,,,,,,,,,,,
,,,,,,,,,,00001335110,2020-10-30_21h49.01.900,swahili,2020.2.4,MacIntel,60,,,,,,,,,,-0.148149957,-0.107265625,1,0,0,0.44917,unsorted_card,32,0,32,0,1,,,,,,,,,,,,,,,,,,,,,,,,,,,,,,,,,,,,,,,,,,,,,,,
,,,,,,,,,,00001335110,2020-10-30_21h49.01.900,swahili,2020.2.4,MacIntel,60,,,,,,,,,,0.39225803,-0.050789931,1,0,0,0.914635,test_pile,33,0,33,0,1,ORPHAN - YATIMA,,,,,,,,,,,,,,,,,,,,,,,,,,,,,,,,,,,,,,,,,,,,,,
,,,,,,,,,,00001335110,2020-10-30_21h49.01.900,swahili,2020.2.4,MacIntel,60,,,,,,,,,,-0.133018663,-0.109618056,1,0,0,0.450665,unsorted_card,34,0,34,0,1,,,,,,,,,,,,,,,,,,,,,,,,,,,,,,,,,,,,,,,,,,,,,,,
,,,,,,,,,,00001335110,2020-10-30_21h49.01.900,swahili,2020.2.4,MacIntel,60,,,,,,,,,,0.342941623,-0.025902778,1,0,0,1.04804,test_pile,35,0,35,0,1,DIVORCE - TALAKA,,,,,,,,,,,,,,,,,,,,,,,,,,,,,,,,,,,,,,,,,,,,,,
,,,,,,,,,,00001335110,2020-10-30_21h49.01.900,swahili,2020.2.4,MacIntel,60,,,,,,,,,,-0.212022569,-0.0990625,1,0,0,0.449625,unsorted_card,36,0,36,0,1,,,,,,,,,,,,,,,,,,,,,,,,,,,,,,,,,,,,,,,,,,,,,,,
,,,,,,,,,,00001335110,2020-10-30_21h49.01.900,swahili,2020.2.4,MacIntel,60,,,,,,,,,,0.342415365,-0.062543403,1,0,0,0.899105,test_pile,37,0,37,0,1,BOAT - MASHUA,,,,,,,,,,,,,,,,,,,,,,,,,,,,,,,,,,,,,,,,,,,,,,
,,,,,,,,,,00001335110,2020-10-30_21h49.01.900,swahili,2020.2.4,MacIntel,60,,,,,,,,,,-0.084570312,-0.132300347,1,0,0,0.4313,unsorted_card,38,0,38,0,1,,,,,,,,,,,,,,,,,,,,,,,,,,,,,,,,,,,,,,,,,,,,,,,
,,,,,,,,,,00001335110,2020-10-30_21h49.01.900,swahili,2020.2.4,MacIntel,60,,,,,,,,,,0.387060547,-0.034175347,1,0,0,1.49885,test_pile,39,0,39,0,1,TREASURE - DAFINA,,,,,,,,,,,,,,,,,,,,,,,,,,,,,,,,,,,,,,,,,,,,,,
,,,,,,,,,,00001335110,2020-10-30_21h49.01.900,swahili,2020.2.4,MacIntel,60,,,,,,,,,,,,,,,,,,,,,,,0.397216797,-0.010989583,1,0,0,1.28114,test_first,,,,,0,0,0,0,1,,,,,,,,,,,,,,,,,,,,,,,,,,,,,,
,,,,,,,,,,00001335110,2020-10-30_21h49.01.900,swahili,2020.2.4,MacIntel,60,,,,,,,,,,,,,,,,,,,,,,,,,,,,,,,,,,,,,,,return,,,,,,,,,,,1.22891,3.69398,0.349793837,-0.019105903,1,0,0,0.515655,yes,BRIBE,RUSHWA,incorrect,0,0,0,0,1,,
,,,,,,,,,,00001335110,2020-10-30_21h49.01.900,swahili,2020.2.4,MacIntel,60,,,,,,,,,,,,,,,,,,,,,,,,,,,,,,,,,,,,,,,,,,,,,,,,,,,12.04801,0.410725911,0.062734375,1,0,0,0.71527,yes,YEAST,HAMIWA,incorrect,1,0,1,0,1,,
,,,,,,,,,,00001335110,2020-10-30_21h49.01.900,swahili,2020.2.4,MacIntel,60,,,,,,,,,,,,,,,,,,,,,,,,,,,,,,,,,,,,,,,,,,,,,,,,,,,3.33094,0.288791233,-0.066458333,1,0,0,0.73304,yes,BOAT,MASHUA,incorrect,2,0,2,0,1,,
,,,,,,,,,,00001335110,2020-10-30_21h49.01.900,swahili,2020.2.4,MacIntel,60,,,,,,,,,,,,,,,,,,,,,,,,,,,,,,,,,,,,,,,,,,,,,,,,,,,3.73195,0.379123264,-0.037977431,1,0,0,0.68379,yes,ORPHAN,YATIMA,incorrect,3,0,3,0,1,,
,,,,,,,,,,00001335110,2020-10-30_21h49.01.900,swahili,2020.2.4,MacIntel,60,,,,,,,,,,,,,,,,,,,,,,,,,,,,,,,,,,,,,,,,,,,,,,,,,,,8.21503,0.297303602,-0.119652778,1,0,0,0.81516,yes,PARROT,NAFUKU,incorrect,4,0,4,0,1,,
,,,,,,,,,,00001335110,2020-10-30_21h49.01.900,swahili,2020.2.4,MacIntel,60,,,,,,,,,,,,,,,,,,,,,,,,,,,,,,,,,,,,,,,,,,,,,,,,,,,8.931585,0.30383572,-0.0678125,1,0,0,0.73204,yes,AGENT,WAKILA,incorrect,5,0,5,0,1,,
,,,,,,,,,,00001335110,2020-10-30_21h49.01.900,swahili,2020.2.4,MacIntel,60,,,,,,,,,,,,,,,,,,,,,,,,,,,,,,,,,,,,,,,,,,,,,,,,,,,7.997085,0.349338108,-0.131571181,1,0,0,0.600625,yes,GRAVE,KABURI,incorrect,6,0,6,0,1,,
,,,,,,,,,,00001335110,2020-10-30_21h49.01.900,swahili,2020.2.4,MacIntel,60,,,,,,,,,,,,,,,,,,,,,,,,,,,,,,,,,,,,,,,,,,,,,,,,,,,2.597825,0.324511719,-0.132708333,1,0,0,0.649245,yes,CHEESE,JIBINI,incorrect,7,0,7,0,1,,
,,,,,,,,,,00001335110,2020-10-30_21h49.01.900,swahili,2020.2.4,MacIntel,60,,,,,,,,,,,,,,,,,,,,,,,,,,,,,,,,,,,,,,,,,,,,,,,,,,,2.51464,0.313736979,-0.038680556,1,0,0,0.665705,yes,TAILOR,MSHONI,incorrect,8,0,8,0,1,,
,,,,,,,,,,00001335110,2020-10-30_21h49.01.900,swahili,2020.2.4,MacIntel,60,,,,,,,,,,,,,,,,,,,,,,,,,,,,,,,,,,,,,,,,,,,,,,,,,,,2.91426,0.318136936,-0.017473958,1,0,0,0.58413,yes,DIVORCE,TALAKA,incorrect,9,0,9,0,1,,
,,,,,,,,,,00001335110,2020-10-30_21h49.01.900,swahili,2020.2.4,MacIntel,60,,,,,,,,,,,,,,,,,,,,,,,,,,,,,,,,,,,,,,,,,,,,,,,,,,,3.196245,0.318690321,-0.077048611,1,0,0,0.667275,yes,POEM,UTENZI,incorrect,10,0,10,0,1,,
,,,,,,,,,,00001335110,2020-10-30_21h49.01.900,swahili,2020.2.4,MacIntel,60,,,,,,,,,,,,,,,,,,,,,,,,,,,,,,,,,,,,,,,,,,,,,,,,,,,7.099055,0.286773003,-0.121649306,1,0,0,0.549625,yes,BLAME,WALAMA,incorrect,11,0,11,0,1,,
,,,,,,,,,,00001335110,2020-10-30_21h49.01.900,swahili,2020.2.4,MacIntel,60,,,,,,,,,,,,,,,,,,,,,,,,,,,,,,,,,,,,,,,,,,,,,,,,,,,2.298365,0.321739366,-0.146484375,1,0,0,0.532935,yes,TREASURE,DAFINA,incorrect,12,0,12,0,1,,
,,,,,,,,,,00001335110,2020-10-30_21h49.01.900,swahili,2020.2.4,MacIntel,60,,,,,,,,,,,,,,,,,,,,,,,,,,,,,,,,,,,,,,,,,,,,,,,,,,,3.414155,0.370019531,-0.169340278,1,0,0,0.583075,yes,BULL,FAHILI,incorrect,13,0,13,0,1,,
,,,,,,,,,,00001335110,2020-10-30_21h49.01.900,swahili,2020.2.4,MacIntel,60,,,,,,,,,,,,,,,,,,,,,,,,,,,,,,,,,,,,,,,,,,,,,,,,,,,3.647135,0.291921658,-0.137569444,1,0,0,0.568255,yes,CORN,NAFAKA,incorrect,14,0,14,0,1,,
,,,,,,,,,,00001335110,2020-10-30_21h49.01.900,swahili,2020.2.4,MacIntel,60,,,,,,,,,,,,,,,,,,,,,,,,,,,,,,,,,,,,,,,,,,,,,,,,,,,5.063775,0.297639974,-0.139809028,1,0,0,0.716435,yes,GRAPES,ZABIBU,incorrect,15,0,15,0,1,,
,,,,,,,,,,00001335110,2020-10-30_21h49.01.900,swahili,2020.2.4,MacIntel,60,,,,,,,,,,,,,,,,,,,,,,,,,,,,,,,,,,,,,,,,0,0,0,0,1,,,,,,,,,,,,,,,,,,,,,,,,
,,,,,,,,,,00001335110,2020-10-30_21h49.01.900,swahili,2020.2.4,MacIntel,60,,,,,,,,,,,,,,,,,,,,,,MANURE - SAMADI,,,,,,,,return,1.21691,return,12.663935,0,0,0,0,1,,,,,,,,,,,,,,,,,,,,,,,,,,,,,,
,,,,,,,,,,00001335110,2020-10-30_21h49.01.900,swahili,2020.2.4,MacIntel,60,,,,,,,,,,,,,,,,,,,,,,OATH - YAMINI,,,,,,,,,,return,8.764895,1,0,1,0,1,,,,,,,,,,,,,,,,,,,,,,,,,,,,,,
,,,,,,,,,,00001335110,2020-10-30_21h49.01.900,swahili,2020.2.4,MacIntel,60,,,,,,,,,,,,,,,,,,,,,,PLATE - SAHANI,,,,,,,,,,return,7.602565,2,0,2,0,1,,,,,,,,,,,,,,,,,,,,,,,,,,,,,,
,,,,,,,,,,00001335110,2020-10-30_21h49.01.900,swahili,2020.2.4,MacIntel,60,,,,,,,,,,,,,,,,,,,,,,MERCHANT - TAJIRI,,,,,,,,,,return,2.668485,3,0,3,0,1,,,,,,,,,,,,,,,,,,,,,,,,,,,,,,
,,,,,,,,,,00001335110,2020-10-30_21h49.01.900,swahili,2020.2.4,MacIntel,60,,,,,,,,,,,,,,,,,,,,,,,,,,,,,,,,,,,,,,,,1,0,1,0,1,,,,,,,,,,,,,,,,,,,,,,,,
,,,,,,,,,,00001335110,2020-10-30_21h49.01.900,swahili,2020.2.4,MacIntel,60,,,,,,,,,,,,,,,,,,,,,,,,,,,,,,,,,,,,,,,,,,,,,2,0,2,0,1,,,,,,,,,,,,,,,,,,,
,,,,,,,,,,00001335110,2020-10-30_21h49.01.900,swahili,2020.2.4,MacIntel,60,,,,,,,,,,-0.188845486,-0.128463542,1,0,0,1.588625,unsorted_card,0,0,0,0,1,,,,,,,,,,,,,,,,,,,,,,,,,,,,,,,,,,,,,,,,,,,,,,,
,,,,,,,,,,00001335110,2020-10-30_21h49.01.900,swahili,2020.2.4,MacIntel,60,,,,,,,,,,0.397661675,0.062135417,1,0,0,5.79446,test_pile,1,0,1,0,1,MERCHANT - TAJIRI,,,,,,,,,,,,,,,,,,,,,,,,,,,,,,,,,,,,,,,,,,,,,,
,,,,,,,,,,00001335110,2020-10-30_21h49.01.900,swahili,2020.2.4,MacIntel,60,,,,,,,,,,-0.090353733,-0.054557292,1,0,0,0.54913,unsorted_card,2,0,2,0,1,,,,,,,,,,,,,,,,,,,,,,,,,,,,,,,,,,,,,,,,,,,,,,,
,,,,,,,,,,00001335110,2020-10-30_21h49.01.900,swahili,2020.2.4,MacIntel,60,,,,,,,,,,0.358089193,-0.006953125,1,0,0,1.83209,test_pile,3,0,3,0,1,PARROT - KASUKU,,,,,,,,,,,,,,,,,,,,,,,,,,,,,,,,,,,,,,,,,,,,,,
,,,,,,,,,,00001335110,2020-10-30_21h49.01.900,swahili,2020.2.4,MacIntel,60,,,,,,,,,,-0.180859375,0.018967014,1,0,0,1.882985,unsorted_card,4,0,4,0,1,,,,,,,,,,,,,,,,,,,,,,,,,,,,,,,,,,,,,,,,,,,,,,,
,,,,,,,,,,00001335110,2020-10-30_21h49.01.900,swahili,2020.2.4,MacIntel,60,,,,,,,,,,0.429172092,0.074079861,1,0,0,1.14778,test_pile,5,0,5,0,1,BULL - FAHILI,,,,,,,,,,,,,,,,,,,,,,,,,,,,,,,,,,,,,,,,,,,,,,
,,,,,,,,,,00001335110,2020-10-30_21h49.01.900,swahili,2020.2.4,MacIntel,60,,,,,,,,,,-0.173057726,-0.012005208,1,0,0,0.56528,unsorted_card,6,0,6,0,1,,,,,,,,,,,,,,,,,,,,,,,,,,,,,,,,,,,,,,,,,,,,,,,
,,,,,,,,,,00001335110,2020-10-30_21h49.01.900,swahili,2020.2.4,MacIntel,60,,,,,,,,,,0.425607639,-0.005885417,1,0,0,2.349615,test_pile,7,0,7,0,1,PLATE - SAHANI,,,,,,,,,,,,,,,,,,,,,,,,,,,,,,,,,,,,,,,,,,,,,,
,,,,,,,,,,00001335110,2020-10-30_21h49.01.900,swahili,2020.2.4,MacIntel,60,,,,,,,,,,-0.18758138,-0.063168403,1,0,0,0.615305,unsorted_card,8,0,8,0,1,,,,,,,,,,,,,,,,,,,,,,,,,,,,,,,,,,,,,,,,,,,,,,,
,,,,,,,,,,00001335110,2020-10-30_21h49.01.900,swahili,2020.2.4,MacIntel,60,,,,,,,,,,0.330913628,-0.044574653,1,0,0,2.048165,test_pile,9,0,9,0,1,YEAST - HAMIRA,,,,,,,,,,,,,,,,,,,,,,,,,,,,,,,,,,,,,,,,,,,,,,
,,,,,,,,,,00001335110,2020-10-30_21h49.01.900,swahili,2020.2.4,MacIntel,60,,,,,,,,,,-0.203602431,-0.052526042,1,0,0,0.548665,unsorted_card,10,0,10,0,1,,,,,,,,,,,,,,,,,,,,,,,,,,,,,,,,,,,,,,,,,,,,,,,
,,,,,,,,,,00001335110,2020-10-30_21h49.01.900,swahili,2020.2.4,MacIntel,60,,,,,,,,,,0.434478082,-0.057178819,1,0,0,1.816095,test_pile,11,0,11,0,1,BLAME - LAWAMA,,,,,,,,,,,,,,,,,,,,,,,,,,,,,,,,,,,,,,,,,,,,,,
,,,,,,,,,,00001335110,2020-10-30_21h49.01.900,swahili,2020.2.4,MacIntel,60,,,,,,,,,,-0.094699436,-0.041119792,1,0,0,0.548685,unsorted_card,12,0,12,0,1,,,,,,,,,,,,,,,,,,,,,,,,,,,,,,,,,,,,,,,,,,,,,,,
,,,,,,,,,,00001335110,2020-10-30_21h49.01.900,swahili,2020.2.4,MacIntel,60,,,,,,,,,,0.357394748,-0.036458333,1,0,0,0.767105,test_pile,13,0,13,0,1,OATH - YAMINI,,,,,,,,,,,,,,,,,,,,,,,,,,,,,,,,,,,,,,,,,,,,,,
,,,,,,,,,,00001335110,2020-10-30_21h49.01.900,swahili,2020.2.4,MacIntel,60,,,,,,,,,,-0.225878906,-0.061944444,1,0,0,0.497565,unsorted_card,14,0,14,0,1,,,,,,,,,,,,,,,,,,,,,,,,,,,,,,,,,,,,,,,,,,,,,,,
,,,,,,,,,,00001335110,2020-10-30_21h49.01.900,swahili,2020.2.4,MacIntel,60,,,,,,,,,,0.369428168,-0.026762153,1,0,0,0.71476,test_pile,15,0,15,0,1,CORN - NAFAKA,,,,,,,,,,,,,,,,,,,,,,,,,,,,,,,,,,,,,,,,,,,,,,
,,,,,,,,,,00001335110,2020-10-30_21h49.01.900,swahili,2020.2.4,MacIntel,60,,,,,,,,,,-0.193885634,-0.053289931,1,0,0,0.499215,unsorted_card,16,0,16,0,1,,,,,,,,,,,,,,,,,,,,,,,,,,,,,,,,,,,,,,,,,,,,,,,
,,,,,,,,,,00001335110,2020-10-30_21h49.01.900,swahili,2020.2.4,MacIntel,60,,,,,,,,,,0.37171224,-0.010208333,1,0,0,0.732975,test_pile,17,0,17,0,1,POEM - UTENZI,,,,,,,,,,,,,,,,,,,,,,,,,,,,,,,,,,,,,,,,,,,,,,
,,,,,,,,,,00001335110,2020-10-30_21h49.01.900,swahili,2020.2.4,MacIntel,60,,,,,,,,,,-0.110959201,-0.042326389,1,0,0,0.59843,unsorted_card,18,0,18,0,1,,,,,,,,,,,,,,,,,,,,,,,,,,,,,,,,,,,,,,,,,,,,,,,
,,,,,,,,,,00001335110,2020-10-30_21h49.01.900,swahili,2020.2.4,MacIntel,60,,,,,,,,,,0.346571181,-0.034704861,1,0,0,0.533265,test_pile,19,0,19,0,1,TAILOR - MSHONI,,,,,,,,,,,,,,,,,,,,,,,,,,,,,,,,,,,,,,,,,,,,,,
,,,,,,,,,,00001335110,2020-10-30_21h49.01.900,swahili,2020.2.4,MacIntel,60,,,,,,,,,,-0.245100911,-0.064869792,1,0,0,0.46512,unsorted_card,20,0,20,0,1,,,,,,,,,,,,,,,,,,,,,,,,,,,,,,,,,,,,,,,,,,,,,,,
,,,,,,,,,,00001335110,2020-10-30_21h49.01.900,swahili,2020.2.4,MacIntel,60,,,,,,,,,,0.367209201,-0.034166667,1,0,0,0.631815,test_pile,21,0,21,0,1,CHEESE - JIBINI,,,,,,,,,,,,,,,,,,,,,,,,,,,,,,,,,,,,,,,,,,,,,,
,,,,,,,,,,00001335110,2020-10-30_21h49.01.900,swahili,2020.2.4,MacIntel,60,,,,,,,,,,-0.191427951,-0.076675347,1,0,0,0.481655,unsorted_card,22,0,22,0,1,,,,,,,,,,,,,,,,,,,,,,,,,,,,,,,,,,,,,,,,,,,,,,,
,,,,,,,,,,00001335110,2020-10-30_21h49.01.900,swahili,2020.2.4,MacIntel,60,,,,,,,,,,0.330327691,-0.040972222,1,0,0,0.648945,test_pile,23,0,23,0,1,GRAPES - ZABIBU,,,,,,,,,,,,,,,,,,,,,,,,,,,,,,,,,,,,,,,,,,,,,,
,,,,,,,,,,00001335110,2020-10-30_21h49.01.900,swahili,2020.2.4,MacIntel,60,,,,,,,,,,-0.156944444,-0.010052083,1,0,0,0.4491,unsorted_card,24,0,24,0,1,,,,,,,,,,,,,,,,,,,,,,,,,,,,,,,,,,,,,,,,,,,,,,,
,,,,,,,,,,00001335110,2020-10-30_21h49.01.900,swahili,2020.2.4,MacIntel,60,,,,,,,,,,0.340142144,-0.007439236,1,0,0,0.998265,test_pile,25,0,25,0,1,GRAVE - KABURI,,,,,,,,,,,,,,,,,,,,,,,,,,,,,,,,,,,,,,,,,,,,,,
,,,,,,,,,,00001335110,2020-10-30_21h49.01.900,swahili,2020.2.4,MacIntel,60,,,,,,,,,,-0.177360026,-0.020060764,1,0,0,0.500095,unsorted_card,26,0,26,0,1,,,,,,,,,,,,,,,,,,,,,,,,,,,,,,,,,,,,,,,,,,,,,,,
,,,,,,,,,,00001335110,2020-10-30_21h49.01.900,swahili,2020.2.4,MacIntel,60,,,,,,,,,,0.361707899,-0.009105903,1,0,0,2.01431,test_pile,27,0,27,0,1,MANURE - SAMADI,,,,,,,,,,,,,,,,,,,,,,,,,,,,,,,,,,,,,,,,,,,,,,
,,,,,,,,,,00001335110,2020-10-30_21h49.01.900,swahili,2020.2.4,MacIntel,60,,,,,,,,,,-0.20523546,-0.044036458,1,0,0,0.533005,unsorted_card,28,0,28,0,1,,,,,,,,,,,,,,,,,,,,,,,,,,,,,,,,,,,,,,,,,,,,,,,
,,,,,,,,,,00001335110,2020-10-30_21h49.01.900,swahili,2020.2.4,MacIntel,60,,,,,,,,,,0.428336589,-0.011727431,1,0,0,1.664795,test_pile,29,0,29,0,1,AGENT - WAKILI,,,,,,,,,,,,,,,,,,,,,,,,,,,,,,,,,,,,,,,,,,,,,,
,,,,,,,,,,00001335110,2020-10-30_21h49.01.900,swahili,2020.2.4,MacIntel,60,,,,,,,,,,-0.085215929,-0.030347222,1,0,0,0.56632,unsorted_card,30,0,30,0,1,,,,,,,,,,,,,,,,,,,,,,,,,,,,,,,,,,,,,,,,,,,,,,,
,,,,,,,,,,00001335110,2020-10-30_21h49.01.900,swahili,2020.2.4,MacIntel,60,,,,,,,,,,0.352186415,-0.029939236,1,0,0,0.865185,test_pile,31,0,31,0,1,BRIBE - RUSHWA,,,,,,,,,,,,,,,,,,,,,,,,,,,,,,,,,,,,,,,,,,,,,,
,,,,,,,,,,00001335110,2020-10-30_21h49.01.900,swahili,2020.2.4,MacIntel,60,,,,,,,,,,-0.277533637,-0.064201389,1,0,0,0.61549,unsorted_card,32,0,32,0,1,,,,,,,,,,,,,,,,,,,,,,,,,,,,,,,,,,,,,,,,,,,,,,,
,,,,,,,,,,00001335110,2020-10-30_21h49.01.900,swahili,2020.2.4,MacIntel,60,,,,,,,,,,0.310487196,-0.034479167,1,0,0,0.798295,test_pile,33,0,33,0,1,ORPHAN - YATIMA,,,,,,,,,,,,,,,,,,,,,,,,,,,,,,,,,,,,,,,,,,,,,,
,,,,,,,,,,00001335110,2020-10-30_21h49.01.900,swahili,2020.2.4,MacIntel,60,,,,,,,,,,-0.180121528,-0.052378472,1,0,0,0.449375,unsorted_card,34,0,34,0,1,,,,,,,,,,,,,,,,,,,,,,,,,,,,,,,,,,,,,,,,,,,,,,,
,,,,,,,,,,00001335110,2020-10-30_21h49.01.900,swahili,2020.2.4,MacIntel,60,,,,,,,,,,0.355908203,-0.030763889,1,0,0,0.79935,test_pile,35,0,35,0,1,DIVORCE - TALAKA,,,,,,,,,,,,,,,,,,,,,,,,,,,,,,,,,,,,,,,,,,,,,,
,,,,,,,,,,00001335110,2020-10-30_21h49.01.900,swahili,2020.2.4,MacIntel,60,,,,,,,,,,-0.169156901,-0.139418403,1,0,0,0.44719,unsorted_card,36,0,36,0,1,,,,,,,,,,,,,,,,,,,,,,,,,,,,,,,,,,,,,,,,,,,,,,,
,,,,,,,,,,00001335110,2020-10-30_21h49.01.900,swahili,2020.2.4,MacIntel,60,,,,,,,,,,0.425998264,-0.058046875,1,0,0,0.76633,test_pile,37,0,37,0,1,BOAT - MASHUA,,,,,,,,,,,,,,,,,,,,,,,,,,,,,,,,,,,,,,,,,,,,,,
,,,,,,,,,,00001335110,2020-10-30_21h49.01.900,swahili,2020.2.4,MacIntel,60,,,,,,,,,,-0.129665799,-0.107239583,1,0,0,0.53296,unsorted_card,38,0,38,0,1,,,,,,,,,,,,,,,,,,,,,,,,,,,,,,,,,,,,,,,,,,,,,,,
,,,,,,,,,,00001335110,2020-10-30_21h49.01.900,swahili,2020.2.4,MacIntel,60,,,,,,,,,,0.378412543,-0.016979167,1,0,0,0.81552,test_pile,39,0,39,0,1,TREASURE - DAFINA,,,,,,,,,,,,,,,,,,,,,,,,,,,,,,,,,,,,,,,,,,,,,,
,,,,,,,,,,00001335110,2020-10-30_21h49.01.900,swahili,2020.2.4,MacIntel,60,,,,,,,,,,,,,,,,,,,,,,,,,,,,,,,,,,0,0,0,0,1,,,,,,,,,,,,,,,,,,,,,,,,,,,,,,
,,,,,,,,,,00001335110,2020-10-30_21h49.01.900,swahili,2020.2.4,MacIntel,60,,,,,,,,,,,,,,,,,,,,,,,,,,,,,,,,,,,,,,,return,,,,,,,,,,,1.176765,2.631845,0.379747179,-0.016979167,1,0,0,0.497935,yes,ORPHAN,YATIMA,incorrect,0,0,0,0,1,,
,,,,,,,,,,00001335110,2020-10-30_21h49.01.900,swahili,2020.2.4,MacIntel,60,,,,,,,,,,,,,,,,,,,,,,,,,,,,,,,,,,,,,,,,,,,,,,,,,,,4.7821,0.363091363,-0.043958333,1,0,0,0.74944,yes,OATH,YAMINI,incorrect,1,0,1,0,1,,
,,,,,,,,,,00001335110,2020-10-30_21h49.01.900,swahili,2020.2.4,MacIntel,60,,,,,,,,,,,,,,,,,,,,,,,,,,,,,,,,,,,,,,,,,,,,,,,,,,,4.813585,0.37414822,-0.179444444,1,0,0,0.866825,yes,GRAVE,KABURI,incorrect,2,0,2,0,1,,
,,,,,,,,,,00001335110,2020-10-30_21h49.01.900,swahili,2020.2.4,MacIntel,60,,,,,,,,,,,,,,,,,,,,,,,,,,,,,,,,,,,,,,,,,,,,,,,,,,,2.881355,0.332150608,-0.050034722,1,0,0,0.632505,yes,MERCHANT,TAJIRI,incorrect,3,0,3,0,1,,
,,,,,,,,,,00001335110,2020-10-30_21h49.01.900,swahili,2020.2.4,MacIntel,60,,,,,,,,,,,,,,,,,,,,,,,,,,,,,,,,,,,,,,,,,,,,,,,,,,,2.399675,0.310036892,-0.114835069,1,0,0,0.54913,yes,TAILOR,MSHONI,incorrect,4,0,4,0,1,,
,,,,,,,,,,00001335110,2020-10-30_21h49.01.900,swahili,2020.2.4,MacIntel,60,,,,,,,,,,,,,,,,,,,,,,,,,,,,,,,,,,,,,,,,,,,,,,,,,,,5.08104,0.291004774,-0.141883681,1,0,0,0.56799,yes,MANURE,SAMADI,incorrect,5,0,5,0,1,,
,,,,,,,,,,00001335110,2020-10-30_21h49.01.900,swahili,2020.2.4,MacIntel,60,,,,,,,,,,,,,,,,,,,,,,,,,,,,,,,,,,,,,,,,,,,,,,,,,,,4.06426,0.309499783,-0.086857639,1,0,0,0.633215,yes,BULL,FAHILI,incorrect,6,0,6,0,1,,
,,,,,,,,,,00001335110,2020-10-30_21h49.01.900,swahili,2020.2.4,MacIntel,60,,,,,,,,,,,,,,,,,,,,,,,,,,,,,,,,,,,,,,,,,,,,,,,,,,,5.999865,0.363438585,-0.075954861,1,0,0,0.584,yes,AGENT,TAJIRI,incorrect,7,0,7,0,1,,
,,,,,,,,,,00001335110,2020-10-30_21h49.01.900,swahili,2020.2.4,MacIntel,60,,,,,,,,,,,,,,,,,,,,,,,,,,,,,,,,,,,,,,,,,,,,,,,,,,,2.914685,0.305343967,-0.088862847,1,0,0,1.16573,yes,BRIBE,RUSHWA,incorrect,8,0,8,0,1,,
,,,,,,,,,,00001335110,2020-10-30_21h49.01.900,swahili,2020.2.4,MacIntel,60,,,,,,,,,,,,,,,,,,,,,,,,,,,,,,,,,,,,,,,,,,,,,,,,,,,2.981525,0.315326606,-0.043003472,1,0,0,0.5671,yes,PLATE,SAHANI,incorrect,9,0,9,0,1,,
,,,,,,,,,,00001335110,2020-10-30_21h49.01.900,swahili,2020.2.4,MacIntel,60,,,,,,,,,,,,,,,,,,,,,,,,,,,,,,,,,,,,,,,,,,,,,,,,,,,2.64686,0.290587023,-0.166831597,1,0,0,0.599915,yes,POEM,UTENZI,incorrect,10,0,10,0,1,,
,,,,,,,,,,00001335110,2020-10-30_21h49.01.900,swahili,2020.2.4,MacIntel,60,,,,,,,,,,,,,,,,,,,,,,,,,,,,,,,,,,,,,,,,,,,,,,,,,,,3.113805,0.308669705,-0.113741319,1,0,0,0.550765,yes,DIVORCE,TALAKA,incorrect,11,0,11,0,1,,
,,,,,,,,,,00001335110,2020-10-30_21h49.01.900,swahili,2020.2.4,MacIntel,60,,,,,,,,,,,,,,,,,,,,,,,,,,,,,,,,,,,,,,,,,,,,,,,,,,,18.78311,0.300895182,-0.097604167,1,0,0,0.798185,yes,YEAST,HAMALI,incorrect,12,0,12,0,1,,
,,,,,,,,,,00001335110,2020-10-30_21h49.01.900,swahili,2020.2.4,MacIntel,60,,,,,,,,,,,,,,,,,,,,,,,,,,,,,,,,,,,,,,,,,,,,,,,,,,,4.41487,0.296554905,-0.158958333,1,0,0,0.967385,yes,CHEESE,JIBINI,incorrect,13,0,13,0,1,,
,,,,,,,,,,00001335110,2020-10-30_21h49.01.900,swahili,2020.2.4,MacIntel,60,,,,,,,,,,,,,,,,,,,,,,,,,,,,,,,,,,,,,,,,,,,,,,,,,,,6.463925,0.289078776,-0.149236111,1,0,0,0.78342,yes,BLAME,LAWAMA,incorrect,14,0,14,0,1,,
,,,,,,,,,,00001335110,2020-10-30_21h49.01.900,swahili,2020.2.4,MacIntel,60,,,,,,,,,,,,,,,,,,,,,,,,,,,,,,,,,,,,,,,,,,,,,,,,,,,2.59773,0.374880642,-0.047005208,1,0,0,0.716355,yes,CORN,NAFAKA,incorrect,15,0,15,0,1,,
,,,,,,,,,,00001335110,2020-10-30_21h49.01.900,swahili,2020.2.4,MacIntel,60,,,,,,,,,,,,,,,,,,,,,,,,,,,,,,,,,,,,,,,,,,,,,,,,,,,2.280425,0.304638672,-0.158463542,1,0,0,0.750975,yes,TREASURE,DAFINA,incorrect,16,0,16,0,1,,
,,,,,,,,,,00001335110,2020-10-30_21h49.01.900,swahili,2020.2.4,MacIntel,60,,,,,,,,,,,,,,,,,,,,,,,,,,,,,,,,,,,,,,,,,,,,,,,,,,,6.247325,0.3621148,-0.100486111,1,0,0,0.78372,yes,BOAT,MASHUA,incorrect,17,0,17,0,1,,
,,,,,,,,,,00001335110,2020-10-30_21h49.01.900,swahili,2020.2.4,MacIntel,60,,,,,,,,,,,,,,,,,,,,,,,,,,,,,,,,,,,,,,,,,,,,,,,,,,,5.930945,0.252246094,-0.134157986,1,0,0,0.716685,yes,PARROT,NAFUKU,incorrect,18,0,18,0,1,,
,,,,,,,,,,00001335110,2020-10-30_21h49.01.900,swahili,2020.2.4,MacIntel,60,,,,,,,,,,,,,,,,,,,,,,,,,,,,,,,,,,,,,,,,,,,,,,,,,,,7.397645,0.30445421,-0.102248264,1,0,0,0.80096,yes,GRAPES,ZABIBU,incorrect,19,0,19,0,1,,
,,,,,,,,,,00001335110,2020-10-30_21h49.01.900,swahili,2020.2.4,MacIntel,60,,,,,,,,,,,,,,,,,,,,,,,,,,,,,,,,,,,,,,,,0,0,0,0,1,,,,,,,,,,,,,,,,,,,,,,,,
,,,,,,,,,,00001335110,2020-10-30_21h49.01.900,swahili,2020.2.4,MacIntel,60,,,,,,,,,,,,,,,,,,,,,,,,,,,,,,,,,,,,,,,,1,0,1,0,1,,,,,,,,,,,,,,,,,,,,,,,,
,,,,,,,,,,00001335110,2020-10-30_21h49.01.900,swahili,2020.2.4,MacIntel,60,,,,,,,,,,,,,,,,,,,,,,,,,,,,,,,,,,,,,,,,,,,,,3,0,3,0,1,,,,,,,,,,,,,,,,,,,
,,,,,,,,,,00001335110,2020-10-30_21h49.01.900,swahili,2020.2.4,MacIntel,60,,,,,,,,,,-0.235508898,-0.097118056,1,0,0,2.066165,unsorted_card,0,0,0,0,1,,,,,,,,,,,,,,,,,,,,,,,,,,,,,,,,,,,,,,,,,,,,,,,
,,,,,,,,,,00001335110,2020-10-30_21h49.01.900,swahili,2020.2.4,MacIntel,60,,,,,,,,,,0.492697483,-0.084071181,1,0,0,5.16401,test_pile,1,0,1,0,1,MERCHANT - TAJIRI,,,,,,,,,,,,,,,,,,,,,,,,,,,,,,,,,,,,,,,,,,,,,,
,,,,,,,,,,00001335110,2020-10-30_21h49.01.900,swahili,2020.2.4,MacIntel,60,,,,,,,,,,-0.211664497,-0.093993056,1,0,0,0.56375,unsorted_card,2,0,2,0,1,,,,,,,,,,,,,,,,,,,,,,,,,,,,,,,,,,,,,,,,,,,,,,,
,,,,,,,,,,00001335110,2020-10-30_21h49.01.900,swahili,2020.2.4,MacIntel,60,,,,,,,,,,0.387510851,-0.030407986,1,0,0,4.19896,test_pile,3,0,3,0,1,PARROT - KASUKU,,,,,,,,,,,,,,,,,,,,,,,,,,,,,,,,,,,,,,,,,,,,,,
,,,,,,,,,,00001335110,2020-10-30_21h49.01.900,swahili,2020.2.4,MacIntel,60,,,,,,,,,,-0.294184028,-0.059401042,1,0,0,0.464795,unsorted_card,4,0,4,0,1,,,,,,,,,,,,,,,,,,,,,,,,,,,,,,,,,,,,,,,,,,,,,,,
,,,,,,,,,,00001335110,2020-10-30_21h49.01.900,swahili,2020.2.4,MacIntel,60,,,,,,,,,,0.392366536,-0.056154514,1,0,0,0.715615,test_pile,5,0,5,0,1,BULL - FAHILI,,,,,,,,,,,,,,,,,,,,,,,,,,,,,,,,,,,,,,,,,,,,,,
,,,,,,,,,,00001335110,2020-10-30_21h49.01.900,swahili,2020.2.4,MacIntel,60,,,,,,,,,,-0.206759983,-0.06453125,1,0,0,0.4663,unsorted_card,6,0,6,0,1,,,,,,,,,,,,,,,,,,,,,,,,,,,,,,,,,,,,,,,,,,,,,,,
,,,,,,,,,,00001335110,2020-10-30_21h49.01.900,swahili,2020.2.4,MacIntel,60,,,,,,,,,,0.467198351,-0.033246528,1,0,0,0.731735,test_pile,7,0,7,0,1,PLATE - SAHANI,,,,,,,,,,,,,,,,,,,,,,,,,,,,,,,,,,,,,,,,,,,,,,
,,,,,,,,,,00001335110,2020-10-30_21h49.01.900,swahili,2020.2.4,MacIntel,60,,,,,,,,,,-0.280691189,-0.101996528,1,0,0,0.46667,unsorted_card,8,0,8,0,1,,,,,,,,,,,,,,,,,,,,,,,,,,,,,,,,,,,,,,,,,,,,,,,
,,,,,,,,,,00001335110,2020-10-30_21h49.01.900,swahili,2020.2.4,MacIntel,60,,,,,,,,,,0.478640408,-0.013619792,1,0,0,0.981365,test_pile,9,0,9,0,1,YEAST - HAMIRA,,,,,,,,,,,,,,,,,,,,,,,,,,,,,,,,,,,,,,,,,,,,,,
,,,,,,,,,,00001335110,2020-10-30_21h49.01.900,swahili,2020.2.4,MacIntel,60,,,,,,,,,,-0.162858073,-0.026501736,1,0,0,0.56516,unsorted_card,10,0,10,0,1,,,,,,,,,,,,,,,,,,,,,,,,,,,,,,,,,,,,,,,,,,,,,,,
,,,,,,,,,,00001335110,2020-10-30_21h49.01.900,swahili,2020.2.4,MacIntel,60,,,,,,,,,,0.364577908,-0.018706597,1,0,0,0.882245,test_pile,11,0,11,0,1,BLAME - LAWAMA,,,,,,,,,,,,,,,,,,,,,,,,,,,,,,,,,,,,,,,,,,,,,,
,,,,,,,,,,00001335110,2020-10-30_21h49.01.900,swahili,2020.2.4,MacIntel,60,,,,,,,,,,-0.217686632,-0.042230903,1,0,0,0.5326,unsorted_card,12,0,12,0,1,,,,,,,,,,,,,,,,,,,,,,,,,,,,,,,,,,,,,,,,,,,,,,,
,,,,,,,,,,00001335110,2020-10-30_21h49.01.900,swahili,2020.2.4,MacIntel,60,,,,,,,,,,0.215022786,-0.064123264,1,0,0,0.548265,test_pile,13,0,13,0,1,OATH - YAMINI,,,,,,,,,,,,,,,,,,,,,,,,,,,,,,,,,,,,,,,,,,,,,,
,,,,,,,,,,00001335110,2020-10-30_21h49.01.900,swahili,2020.2.4,MacIntel,60,,,,,,,,,,-0.325965712,-0.081996528,1,0,0,0.515025,unsorted_card,14,0,14,0,1,,,,,,,,,,,,,,,,,,,,,,,,,,,,,,,,,,,,,,,,,,,,,,,
,,,,,,,,,,00001335110,2020-10-30_21h49.01.900,swahili,2020.2.4,MacIntel,60,,,,,,,,,,0.517605252,-0.075564236,1,0,0,0.432195,test_pile,15,0,15,0,1,CORN - NAFAKA,,,,,,,,,,,,,,,,,,,,,,,,,,,,,,,,,,,,,,,,,,,,,,
,,,,,,,,,,00001335110,2020-10-30_21h49.01.900,swahili,2020.2.4,MacIntel,60,,,,,,,,,,-0.289312066,-0.060164931,1,0,0,0.481545,unsorted_card,16,0,16,0,1,,,,,,,,,,,,,,,,,,,,,,,,,,,,,,,,,,,,,,,,,,,,,,,
,,,,,,,,,,00001335110,2020-10-30_21h49.01.900,swahili,2020.2.4,MacIntel,60,,,,,,,,,,0.401996528,-0.072838542,1,0,0,0.41619,test_pile,17,0,17,0,1,POEM - UTENZI,,,,,,,,,,,,,,,,,,,,,,,,,,,,,,,,,,,,,,,,,,,,,,
,,,,,,,,,,00001335110,2020-10-30_21h49.01.900,swahili,2020.2.4,MacIntel,60,,,,,,,,,,-0.195773655,-0.058463542,1,0,0,0.448075,unsorted_card,18,0,18,0,1,,,,,,,,,,,,,,,,,,,,,,,,,,,,,,,,,,,,,,,,,,,,,,,
,,,,,,,,,,00001335110,2020-10-30_21h49.01.900,swahili,2020.2.4,MacIntel,60,,,,,,,,,,0.434738498,-0.043203125,1,0,0,0.36608,test_pile,19,0,19,0,1,TAILOR - MSHONI,,,,,,,,,,,,,,,,,,,,,,,,,,,,,,,,,,,,,,,,,,,,,,
,,,,,,,,,,00001335110,2020-10-30_21h49.01.900,swahili,2020.2.4,MacIntel,60,,,,,,,,,,-0.234342448,-0.030590278,1,0,0,0.44891,unsorted_card,20,0,20,0,1,,,,,,,,,,,,,,,,,,,,,,,,,,,,,,,,,,,,,,,,,,,,,,,
,,,,,,,,,,00001335110,2020-10-30_21h49.01.900,swahili,2020.2.4,MacIntel,60,,,,,,,,,,0.520958116,0.063454861,1,0,0,0.448145,test_pile,21,0,21,0,1,CHEESE - JIBINI,,,,,,,,,,,,,,,,,,,,,,,,,,,,,,,,,,,,,,,,,,,,,,
,,,,,,,,,,00001335110,2020-10-30_21h49.01.900,swahili,2020.2.4,MacIntel,60,,,,,,,,,,-0.262147352,0.006944444,1,0,0,0.481745,unsorted_card,22,0,22,0,1,,,,,,,,,,,,,,,,,,,,,,,,,,,,,,,,,,,,,,,,,,,,,,,
,,,,,,,,,,00001335110,2020-10-30_21h49.01.900,swahili,2020.2.4,MacIntel,60,,,,,,,,,,0.355777995,0.003932292,1,0,0,0.466775,test_pile,23,0,23,0,1,GRAPES - ZABIBU,,,,,,,,,,,,,,,,,,,,,,,,,,,,,,,,,,,,,,,,,,,,,,
,,,,,,,,,,00001335110,2020-10-30_21h49.01.900,swahili,2020.2.4,MacIntel,60,,,,,,,,,,-0.222992622,0.007543403,1,0,0,0.432645,unsorted_card,24,0,24,0,1,,,,,,,,,,,,,,,,,,,,,,,,,,,,,,,,,,,,,,,,,,,,,,,
,,,,,,,,,,00001335110,2020-10-30_21h49.01.900,swahili,2020.2.4,MacIntel,60,,,,,,,,,,0.281130642,0.0125,1,0,0,0.46424,test_pile,25,0,25,0,1,GRAVE - KABURI,,,,,,,,,,,,,,,,,,,,,,,,,,,,,,,,,,,,,,,,,,,,,,
,,,,,,,,,,00001335110,2020-10-30_21h49.01.900,swahili,2020.2.4,MacIntel,60,,,,,,,,,,-0.183409288,0.012282986,1,0,0,0.39855,unsorted_card,26,0,26,0,1,,,,,,,,,,,,,,,,,,,,,,,,,,,,,,,,,,,,,,,,,,,,,,,
,,,,,,,,,,00001335110,2020-10-30_21h49.01.900,swahili,2020.2.4,MacIntel,60,,,,,,,,,,0.378624132,0.015694444,1,0,0,1.231975,test_pile,27,0,27,0,1,MANURE - SAMADI,,,,,,,,,,,,,,,,,,,,,,,,,,,,,,,,,,,,,,,,,,,,,,
,,,,,,,,,,00001335110,2020-10-30_21h49.01.900,swahili,2020.2.4,MacIntel,60,,,,,,,,,,-0.159629991,-0.015416667,1,0,0,0.949395,unsorted_card,28,0,28,0,1,,,,,,,,,,,,,,,,,,,,,,,,,,,,,,,,,,,,,,,,,,,,,,,
,,,,,,,,,,00001335110,2020-10-30_21h49.01.900,swahili,2020.2.4,MacIntel,60,,,,,,,,,,0.356939019,-0.048454861,1,0,0,0.78159,test_pile,29,0,29,0,1,AGENT - WAKILI,,,,,,,,,,,,,,,,,,,,,,,,,,,,,,,,,,,,,,,,,,,,,,
,,,,,,,,,,00001335110,2020-10-30_21h49.01.900,swahili,2020.2.4,MacIntel,60,,,,,,,,,,-0.280837674,-0.059748264,1,0,0,0.49995,unsorted_card,30,0,30,0,1,,,,,,,,,,,,,,,,,,,,,,,,,,,,,,,,,,,,,,,,,,,,,,,
,,,,,,,,,,00001335110,2020-10-30_21h49.01.900,swahili,2020.2.4,MacIntel,60,,,,,,,,,,0.343093533,-0.019227431,1,0,0,0.56481,test_pile,31,0,31,0,1,BRIBE - RUSHWA,,,,,,,,,,,,,,,,,,,,,,,,,,,,,,,,,,,,,,,,,,,,,,
,,,,,,,,,,00001335110,2020-10-30_21h49.01.900,swahili,2020.2.4,MacIntel,60,,,,,,,,,,-0.247043186,-0.012274306,1,0,0,0.38202,unsorted_card,32,0,32,0,1,,,,,,,,,,,,,,,,,,,,,,,,,,,,,,,,,,,,,,,,,,,,,,,
,,,,,,,,,,00001335110,2020-10-30_21h49.01.900,swahili,2020.2.4,MacIntel,60,,,,,,,,,,0.36936849,-0.005989583,1,0,0,0.466745,test_pile,33,0,33,0,1,ORPHAN - YATIMA,,,,,,,,,,,,,,,,,,,,,,,,,,,,,,,,,,,,,,,,,,,,,,
,,,,,,,,,,00001335110,2020-10-30_21h49.01.900,swahili,2020.2.4,MacIntel,60,,,,,,,,,,-0.198171658,-0.010425347,1,0,0,0.39802,unsorted_card,34,0,34,0,1,,,,,,,,,,,,,,,,,,,,,,,,,,,,,,,,,,,,,,,,,,,,,,,
,,,,,,,,,,00001335110,2020-10-30_21h49.01.900,swahili,2020.2.4,MacIntel,60,,,,,,,,,,0.288959418,-0.098689236,1,0,0,0.398205,test_pile,35,0,35,0,1,DIVORCE - TALAKA,,,,,,,,,,,,,,,,,,,,,,,,,,,,,,,,,,,,,,,,,,,,,,
,,,,,,,,,,00001335110,2020-10-30_21h49.01.900,swahili,2020.2.4,MacIntel,60,,,,,,,,,,-0.154421658,-0.056345486,1,0,0,0.414875,unsorted_card,36,0,36,0,1,,,,,,,,,,,,,,,,,,,,,,,,,,,,,,,,,,,,,,,,,,,,,,,
,,,,,,,,,,00001335110,2020-10-30_21h49.01.900,swahili,2020.2.4,MacIntel,60,,,,,,,,,,0.469042969,0.039574653,1,0,0,0.46496,test_pile,37,0,37,0,1,BOAT - MASHUA,,,,,,,,,,,,,,,,,,,,,,,,,,,,,,,,,,,,,,,,,,,,,,
,,,,,,,,,,00001335110,2020-10-30_21h49.01.900,swahili,2020.2.4,MacIntel,60,,,,,,,,,,-0.241438802,-0.047022569,1,0,0,0.431795,unsorted_card,38,0,38,0,1,,,,,,,,,,,,,,,,,,,,,,,,,,,,,,,,,,,,,,,,,,,,,,,
,,,,,,,,,,00001335110,2020-10-30_21h49.01.900,swahili,2020.2.4,MacIntel,60,,,,,,,,,,0.383089193,-0.024730903,1,0,0,0.582385,test_pile,39,0,39,0,1,TREASURE - DAFINA,,,,,,,,,,,,,,,,,,,,,,,,,,,,,,,,,,,,,,,,,,,,,,
,,,,,,,,,,00001335110,2020-10-30_21h49.01.900,swahili,2020.2.4,MacIntel,60,,,,,,,,,,,,,,,,,,,,,,,,,,,,,,,,,,0,0,0,0,1,,,,,,,,,,,,,,,,,,,,,,,,,,,,,,
,,,,,,,,,,00001335110,2020-10-30_21h49.01.900,swahili,2020.2.4,MacIntel,60,,,,,,,,,,,,,,,,,,,,,,,,,,,,,,,,,,,,,,,return,,,,,,,,,,,0.77829,2.56188,0.301915148,-0.163602431,1,0,0,0.583265,yes,TREASURE,DAFINA,incorrect,0,0,0,0,1,,
,,,,,,,,,,00001335110,2020-10-30_21h49.01.900,swahili,2020.2.4,MacIntel,60,,,,,,,,,,,,,,,,,,,,,,,,,,,,,,,,,,,,,,,,,,,,,,,,,,,3.963445,-0.302398003,-0.115598958,1,0,0,0.61649,no,GRAPES,ZABIBU,incorrect,1,0,1,0,1,,
,,,,,,,,,,00001335110,2020-10-30_21h49.01.900,swahili,2020.2.4,MacIntel,60,,,,,,,,,,,,,,,,,,,,,,,,,,,,,,,,,,,,,,,,,,,,,,,,,,,2.28014,-0.318386502,-0.169583333,1,0,0,0.5002,no,CORN,NAFAKA,incorrect,2,0,2,0,1,,
,,,,,,,,,,00001335110,2020-10-30_21h49.01.900,swahili,2020.2.4,MacIntel,60,,,,,,,,,,,,,,,,,,,,,,,,,,,,,,,,,,,,,,,,,,,,,,,,,,,6.159435,0.297672526,-0.012361111,1,0,0,0.699985,yes,BLAME,LAWAMA,incorrect,3,0,3,0,1,,
,,,,,,,,,,00001335110,2020-10-30_21h49.01.900,swahili,2020.2.4,MacIntel,60,,,,,,,,,,,,,,,,,,,,,,,,,,,,,,,,,,,,,,,,,,,,,,,,,,,3.88089,0.2496148,-0.112152778,1,0,0,0.667645,yes,MERCHANT,TAJIRI,incorrect,4,0,4,0,1,,
,,,,,,,,,,00001335110,2020-10-30_21h49.01.900,swahili,2020.2.4,MacIntel,60,,,,,,,,,,,,,,,,,,,,,,,,,,,,,,,,,,,,,,,,,,,,,,,,,,,4.698085,-0.312326389,-0.118541667,1,0,0,0.800065,no,TAILOR,MSHONI,incorrect,5,0,5,0,1,,
,,,,,,,,,,00001335110,2020-10-30_21h49.01.900,swahili,2020.2.4,MacIntel,60,,,,,,,,,,,,,,,,,,,,,,,,,,,,,,,,,,,,,,,,,,,,,,,,,,,3.68039,-0.311111111,-0.180407986,1,0,0,0.500415,no,ORPHAN,YATIMA,incorrect,6,0,6,0,1,,
,,,,,,,,,,00001335110,2020-10-30_21h49.01.900,swahili,2020.2.4,MacIntel,60,,,,,,,,,,,,,,,,,,,,,,,,,,,,,,,,,,,,,,,,,,,,,,,,,,,25.59519,0.322943793,-0.129756944,1,0,0,0.616655,yes,AGENT,WAKALI,incorrect,7,0,7,0,1,,
,,,,,,,,,,00001335110,2020-10-30_21h49.01.900,swahili,2020.2.4,MacIntel,60,,,,,,,,,,,,,,,,,,,,,,,,,,,,,,,,,,,,,,,,,,,,,,,,,,,4.13165,-0.256884766,-0.148263889,1,0,0,0.69948,no,BOAT,MASHUA,incorrect,8,0,8,0,1,,
,,,,,,,,,,00001335110,2020-10-30_21h49.01.900,swahili,2020.2.4,MacIntel,60,,,,,,,,,,,,,,,,,,,,,,,,,,,,,,,,,,,,,,,,,,,,,,,,,,,3.662015,0.343055556,0.036710069,1,0,0,0.71782,yes,OATH,YAMINI,incorrect,9,0,9,0,1,,
,,,,,,,,,,00001335110,2020-10-30_21h49.01.900,swahili,2020.2.4,MacIntel,60,,,,,,,,,,,,,,,,,,,,,,,,,,,,,,,,,,,,,,,,,,,,,,,,,,,2.28214,-0.326991102,-0.142690972,1,0,0,0.54962,no,CHEESE,JIBINI,incorrect,10,0,10,0,1,,
,,,,,,,,,,00001335110,2020-10-30_21h49.01.900,swahili,2020.2.4,MacIntel,60,,,,,,,,,,,,,,,,,,,,,,,,,,,,,,,,,,,,,,,,,,,,,,,,,,,4.879585,0.273459201,-0.133845486,1,0,0,0.701055,yes,YEAST,HAMIRA,incorrect,11,0,11,0,1,,
,,,,,,,,,,00001335110,2020-10-30_21h49.01.900,swahili,2020.2.4,MacIntel,60,,,,,,,,,,,,,,,,,,,,,,,,,,,,,,,,,,,,,,,,,,,,,,,,,,,2.531795,0.357904731,-0.154236111,1,0,0,0.51754,yes,BULL,FAHILI,incorrect,12,0,12,0,1,,
,,,,,,,,,,00001335110,2020-10-30_21h49.01.900,swahili,2020.2.4,MacIntel,60,,,,,,,,,,,,,,,,,,,,,,,,,,,,,,,,,,,,,,,,,,,,,,,,,,,4.2651,0.29539388,-0.157777778,1,0,0,0.565605,yes,GRAVE,KABURI,incorrect,13,0,13,0,1,,
,,,,,,,,,,00001335110,2020-10-30_21h49.01.900,swahili,2020.2.4,MacIntel,60,,,,,,,,,,,,,,,,,,,,,,,,,,,,,,,,,,,,,,,,,,,,,,,,,,,4.012765,0.295198568,-0.125104167,1,0,0,0.784875,yes,MANURE,SAMADI,incorrect,14,0,14,0,1,,
,,,,,,,,,,00001335110,2020-10-30_21h49.01.900,swahili,2020.2.4,MacIntel,60,,,,,,,,,,,,,,,,,,,,,,,,,,,,,,,,,,,,,,,,,,,,,,,,,,,4.46568,0.444417318,0.117430556,1,0,0,0.66644,yes,DIVORCE,TALAKA,incorrect,15,0,15,0,1,,
,,,,,,,,,,00001335110,2020-10-30_21h49.01.900,swahili,2020.2.4,MacIntel,60,,,,,,,,,,,,,,,,,,,,,,,,,,,,,,,,,,,,,,,,,,,,,,,,,,,2.965135,-0.265966797,-0.149505208,1,0,0,0.616885,no,POEM,UTENZI,incorrect,16,0,16,0,1,,
,,,,,,,,,,00001335110,2020-10-30_21h49.01.900,swahili,2020.2.4,MacIntel,60,,,,,,,,,,,,,,,,,,,,,,,,,,,,,,,,,,,,,,,,,,,,,,,,,,,3.946055,0.302137587,-0.189652778,1,0,0,0.64943,yes,PLATE,SAHANI,incorrect,17,0,17,0,1,,
,,,,,,,,,,00001335110,2020-10-30_21h49.01.900,swahili,2020.2.4,MacIntel,60,,,,,,,,,,,,,,,,,,,,,,,,,,,,,,,,,,,,,,,,,,,,,,,,,,,5.149135,-0.357915582,-0.146692708,1,0,0,0.548335,no,BRIBE,RUSHWA,incorrect,18,0,18,0,1,,
,,,,,,,,,,00001335110,2020-10-30_21h49.01.900,swahili,2020.2.4,MacIntel,60,,,,,,,,,,,,,,,,,,,,,,,,,,,,,,,,,,,,,,,,,,,,,,,,,,,18.36313,0.301085069,-0.109991319,1,0,0,1.299255,yes,PARROT,KASUKA,incorrect,19,0,19,0,1,,
,,,,,,,,,,00001335110,2020-10-30_21h49.01.900,swahili,2020.2.4,MacIntel,60,,,,,,,,,,,,,,,,,,,,,,,,,,,,,,,,,,,,,,,,0,0,0,0,1,,,,,,,,,,,,,,,,,,,,,,,,
,,,,,,,,,,00001335110,2020-10-30_21h49.01.900,swahili,2020.2.4,MacIntel,60,,,,,,,,,,,,,,,,,,,,,,,,,,,,,,,,,,,,,,,,1,0,1,0,1,,,,,,,,,,,,,,,,,,,,,,,,
,,,,,,,,,,00001335110,2020-10-30_21h49.01.900,swahili,2020.2.4,MacIntel,60,,,,,,,,,,,,,,,,,,,,,,,,,,,,,,,,,,,,,,,,,,,,,4,0,4,0,1,,,,,,,,,,,,,,,,,,,
,,,,,,,,,,00001335110,2020-10-30_21h49.01.900,swahili,2020.2.4,MacIntel,60,,,,,,,,,,-0.209602865,-0.152508681,1,0,0,21.598605,unsorted_card,0,0,0,0,1,,,,,,,,,,,,,,,,,,,,,,,,,,,,,,,,,,,,,,,,,,,,,,,
,,,,,,,,,,00001335110,2020-10-30_21h49.01.900,swahili,2020.2.4,MacIntel,60,,,,,,,,,,0.3949273,-0.543611111,1,0,0,1.36399,done_pile,1,0,1,0,1,MERCHANT - TAJIRI,,,,,,,,,,,,,,,,,,,,,,,,,,,,,,,,,,,,,,,,,,,,,,
,,,,,,,,,,00001335110,2020-10-30_21h49.01.900,swahili,2020.2.4,MacIntel,60,,,,,,,,,,-0.193988715,-0.192821181,1,0,0,0.66478,unsorted_card,2,0,2,0,1,,,,,,,,,,,,,,,,,,,,,,,,,,,,,,,,,,,,,,,,,,,,,,,
,,,,,,,,,,00001335110,2020-10-30_21h49.01.900,swahili,2020.2.4,MacIntel,60,,,,,,,,,,0.408924696,-0.471189236,1,0,0,15.61676,done_pile,3,0,3,0,1,PARROT - KASUKU,,,,,,,,,,,,,,,,,,,,,,,,,,,,,,,,,,,,,,,,,,,,,,
,,,,,,,,,,00001335110,2020-10-30_21h49.01.900,swahili,2020.2.4,MacIntel,60,,,,,,,,,,-0.208371311,-0.030026042,1,0,0,0.69632,unsorted_card,4,0,4,0,1,,,,,,,,,,,,,,,,,,,,,,,,,,,,,,,,,,,,,,,,,,,,,,,
,,,,,,,,,,00001335110,2020-10-30_21h49.01.900,swahili,2020.2.4,MacIntel,60,,,,,,,,,,0.354161241,-0.471432292,1,0,0,0.782045,done_pile,5,0,5,0,1,BULL - FAHILI,,,,,,,,,,,,,,,,,,,,,,,,,,,,,,,,,,,,,,,,,,,,,,
,,,,,,,,,,00001335110,2020-10-30_21h49.01.900,swahili,2020.2.4,MacIntel,60,,,,,,,,,,-0.320388455,-0.138012153,1,0,0,0.483115,unsorted_card,6,0,6,0,1,,,,,,,,,,,,,,,,,,,,,,,,,,,,,,,,,,,,,,,,,,,,,,,
,,,,,,,,,,00001335110,2020-10-30_21h49.01.900,swahili,2020.2.4,MacIntel,60,,,,,,,,,,0.400645616,-0.516276042,1,0,0,2.614305,done_pile,7,0,7,0,1,PLATE - SAHANI,,,,,,,,,,,,,,,,,,,,,,,,,,,,,,,,,,,,,,,,,,,,,,
,,,,,,,,,,00001335110,2020-10-30_21h49.01.900,swahili,2020.2.4,MacIntel,60,,,,,,,,,,-0.22561849,-0.062916667,1,0,0,0.548435,unsorted_card,8,0,8,0,1,,,,,,,,,,,,,,,,,,,,,,,,,,,,,,,,,,,,,,,,,,,,,,,
,,,,,,,,,,00001335110,2020-10-30_21h49.01.900,swahili,2020.2.4,MacIntel,60,,,,,,,,,,0.396788194,-0.508967014,1,0,0,0.78176,done_pile,9,0,9,0,1,YEAST - HAMIRA,,,,,,,,,,,,,,,,,,,,,,,,,,,,,,,,,,,,,,,,,,,,,,
,,,,,,,,,,00001335110,2020-10-30_21h49.01.900,swahili,2020.2.4,MacIntel,60,,,,,,,,,,-0.246484375,-0.112178819,1,0,0,0.516955,unsorted_card,10,0,10,0,1,,,,,,,,,,,,,,,,,,,,,,,,,,,,,,,,,,,,,,,,,,,,,,,
,,,,,,,,,,00001335110,2020-10-30_21h49.01.900,swahili,2020.2.4,MacIntel,60,,,,,,,,,,0.29928928,-0.475130208,1,0,0,0.93107,done_pile,11,0,11,0,1,BLAME - LAWAMA,,,,,,,,,,,,,,,,,,,,,,,,,,,,,,,,,,,,,,,,,,,,,,
,,,,,,,,,,00001335110,2020-10-30_21h49.01.900,swahili,2020.2.4,MacIntel,60,,,,,,,,,,-0.213872613,-0.158263889,1,0,0,0.647935,unsorted_card,12,0,12,0,1,,,,,,,,,,,,,,,,,,,,,,,,,,,,,,,,,,,,,,,,,,,,,,,
,,,,,,,,,,00001335110,2020-10-30_21h49.01.900,swahili,2020.2.4,MacIntel,60,,,,,,,,,,0.332486979,-0.462065972,1,0,0,0.74816,done_pile,13,0,13,0,1,OATH - YAMINI,,,,,,,,,,,,,,,,,,,,,,,,,,,,,,,,,,,,,,,,,,,,,,
,,,,,,,,,,00001335110,2020-10-30_21h49.01.900,swahili,2020.2.4,MacIntel,60,,,,,,,,,,-0.187109375,-0.087934028,1,0,0,0.532025,unsorted_card,14,0,14,0,1,,,,,,,,,,,,,,,,,,,,,,,,,,,,,,,,,,,,,,,,,,,,,,,
,,,,,,,,,,00001335110,2020-10-30_21h49.01.900,swahili,2020.2.4,MacIntel,60,,,,,,,,,,0.37202691,-0.460616319,1,0,0,0.83273,done_pile,15,0,15,0,1,CORN - NAFAKA,,,,,,,,,,,,,,,,,,,,,,,,,,,,,,,,,,,,,,,,,,,,,,
,,,,,,,,,,00001335110,2020-10-30_21h49.01.900,swahili,2020.2.4,MacIntel,60,,,,,,,,,,-0.166417101,-0.139991319,1,0,0,0.49882,unsorted_card,16,0,16,0,1,,,,,,,,,,,,,,,,,,,,,,,,,,,,,,,,,,,,,,,,,,,,,,,
,,,,,,,,,,00001335110,2020-10-30_21h49.01.900,swahili,2020.2.4,MacIntel,60,,,,,,,,,,0.343142361,-0.457821181,1,0,0,0.766365,done_pile,17,0,17,0,1,POEM - UTENZI,,,,,,,,,,,,,,,,,,,,,,,,,,,,,,,,,,,,,,,,,,,,,,
,,,,,,,,,,00001335110,2020-10-30_21h49.01.900,swahili,2020.2.4,MacIntel,60,,,,,,,,,,-0.241330295,-0.097456597,1,0,0,0.51652,unsorted_card,18,0,18,0,1,,,,,,,,,,,,,,,,,,,,,,,,,,,,,,,,,,,,,,,,,,,,,,,
,,,,,,,,,,00001335110,2020-10-30_21h49.01.900,swahili,2020.2.4,MacIntel,60,,,,,,,,,,0.371511502,-0.460685764,1,0,0,0.74774,done_pile,19,0,19,0,1,TAILOR - MSHONI,,,,,,,,,,,,,,,,,,,,,,,,,,,,,,,,,,,,,,,,,,,,,,
,,,,,,,,,,00001335110,2020-10-30_21h49.01.900,swahili,2020.2.4,MacIntel,60,,,,,,,,,,-0.200206163,-0.116154514,1,0,0,0.48087,unsorted_card,20,0,20,0,1,,,,,,,,,,,,,,,,,,,,,,,,,,,,,,,,,,,,,,,,,,,,,,,
,,,,,,,,,,00001335110,2020-10-30_21h49.01.900,swahili,2020.2.4,MacIntel,60,,,,,,,,,,0.346815321,-0.446996528,1,0,0,0.732535,done_pile,21,0,21,0,1,CHEESE - JIBINI,,,,,,,,,,,,,,,,,,,,,,,,,,,,,,,,,,,,,,,,,,,,,,
,,,,,,,,,,00001335110,2020-10-30_21h49.01.900,swahili,2020.2.4,MacIntel,60,,,,,,,,,,-0.20093316,-0.159418403,1,0,0,0.46544,unsorted_card,22,0,22,0,1,,,,,,,,,,,,,,,,,,,,,,,,,,,,,,,,,,,,,,,,,,,,,,,
,,,,,,,,,,00001335110,2020-10-30_21h49.01.900,swahili,2020.2.4,MacIntel,60,,,,,,,,,,0.407405599,-0.466423611,1,0,0,0.7649,done_pile,23,0,23,0,1,GRAPES - ZABIBU,,,,,,,,,,,,,,,,,,,,,,,,,,,,,,,,,,,,,,,,,,,,,,
,,,,,,,,,,00001335110,2020-10-30_21h49.01.900,swahili,2020.2.4,MacIntel,60,,,,,,,,,,-0.187255859,-0.096319444,1,0,0,0.500195,unsorted_card,24,0,24,0,1,,,,,,,,,,,,,,,,,,,,,,,,,,,,,,,,,,,,,,,,,,,,,,,
,,,,,,,,,,00001335110,2020-10-30_21h49.01.900,swahili,2020.2.4,MacIntel,60,,,,,,,,,,0.364312066,-0.501987847,1,0,0,0.914955,done_pile,25,0,25,0,1,GRAVE - KABURI,,,,,,,,,,,,,,,,,,,,,,,,,,,,,,,,,,,,,,,,,,,,,,
,,,,,,,,,,00001335110,2020-10-30_21h49.01.900,swahili,2020.2.4,MacIntel,60,,,,,,,,,,-0.165635851,-0.160425347,1,0,0,0.499335,unsorted_card,26,0,26,0,1,,,,,,,,,,,,,,,,,,,,,,,,,,,,,,,,,,,,,,,,,,,,,,,
,,,,,,,,,,00001335110,2020-10-30_21h49.01.900,swahili,2020.2.4,MacIntel,60,,,,,,,,,,0.402381727,-0.461189236,1,0,0,0.8823,done_pile,27,0,27,0,1,MANURE - SAMADI,,,,,,,,,,,,,,,,,,,,,,,,,,,,,,,,,,,,,,,,,,,,,,
,,,,,,,,,,00001335110,2020-10-30_21h49.01.900,swahili,2020.2.4,MacIntel,60,,,,,,,,,,-0.142936198,-0.100833333,1,0,0,0.59923,unsorted_card,28,0,28,0,1,,,,,,,,,,,,,,,,,,,,,,,,,,,,,,,,,,,,,,,,,,,,,,,
,,,,,,,,,,00001335110,2020-10-30_21h49.01.900,swahili,2020.2.4,MacIntel,60,,,,,,,,,,0.40328776,-0.487881944,1,0,0,2.064485,done_pile,29,0,29,0,1,AGENT - WAKILI,,,,,,,,,,,,,,,,,,,,,,,,,,,,,,,,,,,,,,,,,,,,,,
,,,,,,,,,,00001335110,2020-10-30_21h49.01.900,swahili,2020.2.4,MacIntel,60,,,,,,,,,,-0.176529948,-0.1375,1,0,0,0.750645,unsorted_card,30,0,30,0,1,,,,,,,,,,,,,,,,,,,,,,,,,,,,,,,,,,,,,,,,,,,,,,,
,,,,,,,,,,00001335110,2020-10-30_21h49.01.900,swahili,2020.2.4,MacIntel,60,,,,,,,,,,0.412000868,-0.510737847,1,0,0,0.74923,done_pile,31,0,31,0,1,BRIBE - RUSHWA,,,,,,,,,,,,,,,,,,,,,,,,,,,,,,,,,,,,,,,,,,,,,,
,,,,,,,,,,00001335110,2020-10-30_21h49.01.900,swahili,2020.2.4,MacIntel,60,,,,,,,,,,-0.243332248,-0.111310764,1,0,0,0.513295,unsorted_card,32,0,32,0,1,,,,,,,,,,,,,,,,,,,,,,,,,,,,,,,,,,,,,,,,,,,,,,,
,,,,,,,,,,00001335110,2020-10-30_21h49.01.900,swahili,2020.2.4,MacIntel,60,,,,,,,,,,0.325764974,-0.435460069,1,0,0,0.83327,done_pile,33,0,33,0,1,ORPHAN - YATIMA,,,,,,,,,,,,,,,,,,,,,,,,,,,,,,,,,,,,,,,,,,,,,,
,,,,,,,,,,00001335110,2020-10-30_21h49.01.900,swahili,2020.2.4,MacIntel,60,,,,,,,,,,-0.124565972,-0.123897569,1,0,0,0.481655,unsorted_card,34,0,34,0,1,,,,,,,,,,,,,,,,,,,,,,,,,,,,,,,,,,,,,,,,,,,,,,,
,,,,,,,,,,00001335110,2020-10-30_21h49.01.900,swahili,2020.2.4,MacIntel,60,,,,,,,,,,0.380088976,-0.487074653,1,0,0,0.815775,done_pile,35,0,35,0,1,DIVORCE - TALAKA,,,,,,,,,,,,,,,,,,,,,,,,,,,,,,,,,,,,,,,,,,,,,,
,,,,,,,,,,00001335110,2020-10-30_21h49.01.900,swahili,2020.2.4,MacIntel,60,,,,,,,,,,-0.28304579,-0.058975694,1,0,0,0.532655,unsorted_card,36,0,36,0,1,,,,,,,,,,,,,,,,,,,,,,,,,,,,,,,,,,,,,,,,,,,,,,,
,,,,,,,,,,00001335110,2020-10-30_21h49.01.900,swahili,2020.2.4,MacIntel,60,,,,,,,,,,0.337320964,-0.460512153,1,0,0,0.815515,done_pile,37,0,37,0,1,BOAT - MASHUA,,,,,,,,,,,,,,,,,,,,,,,,,,,,,,,,,,,,,,,,,,,,,,
,,,,,,,,,,00001335110,2020-10-30_21h49.01.900,swahili,2020.2.4,MacIntel,60,,,,,,,,,,-0.182476128,-0.108081597,1,0,0,0.498005,unsorted_card,38,0,38,0,1,,,,,,,,,,,,,,,,,,,,,,,,,,,,,,,,,,,,,,,,,,,,,,,
,,,,,,,,,,00001335110,2020-10-30_21h49.01.900,swahili,2020.2.4,MacIntel,60,,,,,,,,,,0.389095052,-0.458454861,1,0,0,0.75022,done_pile,39,0,39,0,1,TREASURE - DAFINA,,,,,,,,,,,,,,,,,,,,,,,,,,,,,,,,,,,,,,,,,,,,,,
,,,,,,,,,,00001335110,2020-10-30_21h49.01.900,swahili,2020.2.4,MacIntel,60,,,,,,,,,,,,,,,,,,,,,,,,,,,,,,,,,,,,,,,,0,0,0,0,1,,,,,,,,,,,,,,,,,,,,,,,,
,,,,,,,,,,00001335110,2020-10-30_21h49.01.900,swahili,2020.2.4,MacIntel,60,,,,,,,,,,,,,,,,,,,,,,,,,,,,,,,,,,,,,,,,1,0,1,0,1,,,,,,,,,,,,,,,,,,,,,,,,
,,,,,,,,,,00001335110,2020-10-30_21h49.01.900,swahili,2020.2.4,MacIntel,60,,,,,,,,,,,,,,,,,,,,,,,,,,,,,,,,,,,,,,,,,,,,,,,,,,,,,,,,,,,,,,,,,,,return,8.98808
