condition,consent_key.keys,consent_key.rt,done_with_instructions.keys,done_with_instructions.rt,instr_loop.thisRepN,instr_loop.thisTrialN,instr_loop.thisN,instr_loop.thisIndex,instr_loop.ran,Student ID #,date,expName,psychopyVersion,OS,frameRate,instr_learning_key.keys,instr_learning_key.rt,card_gen_loop.thisRepN,card_gen_loop.thisTrialN,card_gen_loop.thisN,card_gen_loop.thisIndex,card_gen_loop.ran,swa,eng,choose_pile.x,choose_pile.y,choose_pile.leftButton,choose_pile.midButton,choose_pile.rightButton,choose_pile.time,choose_pile.clicked_name,choices.thisRepN,choices.thisTrialN,choices.thisN,choices.thisIndex,choices.ran,card_to_show,mouse_pick.x,mouse_pick.y,mouse_pick.leftButton,mouse_pick.midButton,mouse_pick.rightButton,mouse_pick.time,mouse_pick.clicked_name,key_instr_study.keys,key_instr_study.rt,next_study.keys,next_study.rt,study_loop.thisRepN,study_loop.thisTrialN,study_loop.thisN,study_loop.thisIndex,study_loop.ran,key_instr_test.keys,learn_loop.thisRepN,learn_loop.thisTrialN,learn_loop.thisN,learn_loop.thisIndex,learn_loop.ran,trials.thisRepN,trials.thisTrialN,trials.thisN,trials.thisIndex,trials.ran,key_instr_test.rt,duration,yes_or_no.x,yes_or_no.y,yes_or_no.leftButton,yes_or_no.midButton,yes_or_no.rightButton,yes_or_no.time,yes_or_no.clicked_name,test_response.stim,test_response.resp,test_response.eval,test_loop.thisRepN,test_loop.thisTrialN,test_loop.thisN,test_loop.thisIndex,test_loop.ran,instr_movie_key.keys,instr_movie_key.rt,return_to_exp.keys,return_to_exp.rt,instr_assess_key.keys,instr_assess_key.rt,assess_loop.thisRepN,assess_loop.thisTrialN,assess_loop.thisN,assess_loop.thisIndex,assess_loop.ran,ans_gen_loop.thisRepN,ans_gen_loop.thisTrialN,ans_gen_loop.thisN,ans_gen_loop.thisIndex,ans_gen_loop.ran,sen,ans,instr_transfer_key.keys,instr_transfer_key.rt,transfer_response.resp,transfer_response.eval,select_word.x,select_word.y,select_word.leftButton,select_word.midButton,select_word.rightButton,select_word.time,select_word.clicked_name,transfers.thisRepN,transfers.thisTrialN,transfers.thisN,transfers.thisIndex,transfers.ran,end_experiment.keys,end_experiment.rt
2,return,1.33953,return,0.80443,0,0,0,0,1,0001479934,2020-10-12_17h40.07.462,swahili,2020.2.4,MacIntel,60,,,,,,,,,,,,,,,,,,,,,,,,,,,,,,,,,,,,,,,,,,,,,,,,,,,,,,,,,,,,,,,,,,,,,,,,,,,,,,,,,,,,,,,,,,,,,,,,,,,,,,
,,,return,9.83543,1,0,1,0,1,0001479934,2020-10-12_17h40.07.462,swahili,2020.2.4,MacIntel,60,,,,,,,,,,,,,,,,,,,,,,,,,,,,,,,,,,,,,,,,,,,,,,,,,,,,,,,,,,,,,,,,,,,,,,,,,,,,,,,,,,,,,,,,,,,,,,,,,,,,,,
,,,,,,,,,,0001479934,2020-10-12_17h40.07.462,swahili,2020.2.4,MacIntel,60,return,1.239135,0,0,0,0,1,TAJIRI,MERCHANT,,,,,,,,,,,,,,,,,,,,,,,,,,,,,,,,,,,,,,,,,,,,,,,,,,,,,,,,,,,,,,,,,,,,,,,,,,,,,,,,,,,,,,,,,,,,,
,,,,,,,,,,0001479934,2020-10-12_17h40.07.462,swahili,2020.2.4,MacIntel,60,,,0,1,1,1,1,KASUKU,PARROT,,,,,,,,,,,,,,,,,,,,,,,,,,,,,,,,,,,,,,,,,,,,,,,,,,,,,,,,,,,,,,,,,,,,,,,,,,,,,,,,,,,,,,,,,,,,,
,,,,,,,,,,0001479934,2020-10-12_17h40.07.462,swahili,2020.2.4,MacIntel,60,,,0,2,2,2,1,FAHILI,BULL,,,,,,,,,,,,,,,,,,,,,,,,,,,,,,,,,,,,,,,,,,,,,,,,,,,,,,,,,,,,,,,,,,,,,,,,,,,,,,,,,,,,,,,,,,,,,
,,,,,,,,,,0001479934,2020-10-12_17h40.07.462,swahili,2020.2.4,MacIntel,60,,,0,3,3,3,1,SAHANI,PLATE,,,,,,,,,,,,,,,,,,,,,,,,,,,,,,,,,,,,,,,,,,,,,,,,,,,,,,,,,,,,,,,,,,,,,,,,,,,,,,,,,,,,,,,,,,,,,
,,,,,,,,,,0001479934,2020-10-12_17h40.07.462,swahili,2020.2.4,MacIntel,60,,,0,4,4,4,1,HAMIRA,YEAST,,,,,,,,,,,,,,,,,,,,,,,,,,,,,,,,,,,,,,,,,,,,,,,,,,,,,,,,,,,,,,,,,,,,,,,,,,,,,,,,,,,,,,,,,,,,,
,,,,,,,,,,0001479934,2020-10-12_17h40.07.462,swahili,2020.2.4,MacIntel,60,,,0,5,5,5,1,LAWAMA,BLAME,,,,,,,,,,,,,,,,,,,,,,,,,,,,,,,,,,,,,,,,,,,,,,,,,,,,,,,,,,,,,,,,,,,,,,,,,,,,,,,,,,,,,,,,,,,,,
,,,,,,,,,,0001479934,2020-10-12_17h40.07.462,swahili,2020.2.4,MacIntel,60,,,0,6,6,6,1,YAMINI,OATH,,,,,,,,,,,,,,,,,,,,,,,,,,,,,,,,,,,,,,,,,,,,,,,,,,,,,,,,,,,,,,,,,,,,,,,,,,,,,,,,,,,,,,,,,,,,,
,,,,,,,,,,0001479934,2020-10-12_17h40.07.462,swahili,2020.2.4,MacIntel,60,,,0,7,7,7,1,NAFAKA,CORN,,,,,,,,,,,,,,,,,,,,,,,,,,,,,,,,,,,,,,,,,,,,,,,,,,,,,,,,,,,,,,,,,,,,,,,,,,,,,,,,,,,,,,,,,,,,,
,,,,,,,,,,0001479934,2020-10-12_17h40.07.462,swahili,2020.2.4,MacIntel,60,,,0,8,8,8,1,UTENZI,POEM,,,,,,,,,,,,,,,,,,,,,,,,,,,,,,,,,,,,,,,,,,,,,,,,,,,,,,,,,,,,,,,,,,,,,,,,,,,,,,,,,,,,,,,,,,,,,
,,,,,,,,,,0001479934,2020-10-12_17h40.07.462,swahili,2020.2.4,MacIntel,60,,,0,9,9,9,1,MSHONI,TAILOR,,,,,,,,,,,,,,,,,,,,,,,,,,,,,,,,,,,,,,,,,,,,,,,,,,,,,,,,,,,,,,,,,,,,,,,,,,,,,,,,,,,,,,,,,,,,,
,,,,,,,,,,0001479934,2020-10-12_17h40.07.462,swahili,2020.2.4,MacIntel,60,,,0,10,10,10,1,JIBINI,CHEESE,,,,,,,,,,,,,,,,,,,,,,,,,,,,,,,,,,,,,,,,,,,,,,,,,,,,,,,,,,,,,,,,,,,,,,,,,,,,,,,,,,,,,,,,,,,,,
,,,,,,,,,,0001479934,2020-10-12_17h40.07.462,swahili,2020.2.4,MacIntel,60,,,0,11,11,11,1,ZABIBU,GRAPES,,,,,,,,,,,,,,,,,,,,,,,,,,,,,,,,,,,,,,,,,,,,,,,,,,,,,,,,,,,,,,,,,,,,,,,,,,,,,,,,,,,,,,,,,,,,,
,,,,,,,,,,0001479934,2020-10-12_17h40.07.462,swahili,2020.2.4,MacIntel,60,,,0,12,12,12,1,KABURI,GRAVE,,,,,,,,,,,,,,,,,,,,,,,,,,,,,,,,,,,,,,,,,,,,,,,,,,,,,,,,,,,,,,,,,,,,,,,,,,,,,,,,,,,,,,,,,,,,,
,,,,,,,,,,0001479934,2020-10-12_17h40.07.462,swahili,2020.2.4,MacIntel,60,,,0,13,13,13,1,SAMADI,MANURE,,,,,,,,,,,,,,,,,,,,,,,,,,,,,,,,,,,,,,,,,,,,,,,,,,,,,,,,,,,,,,,,,,,,,,,,,,,,,,,,,,,,,,,,,,,,,
,,,,,,,,,,0001479934,2020-10-12_17h40.07.462,swahili,2020.2.4,MacIntel,60,,,0,14,14,14,1,WAKILI,AGENT,,,,,,,,,,,,,,,,,,,,,,,,,,,,,,,,,,,,,,,,,,,,,,,,,,,,,,,,,,,,,,,,,,,,,,,,,,,,,,,,,,,,,,,,,,,,,
,,,,,,,,,,0001479934,2020-10-12_17h40.07.462,swahili,2020.2.4,MacIntel,60,,,0,15,15,15,1,RUSHWA,BRIBE,,,,,,,,,,,,,,,,,,,,,,,,,,,,,,,,,,,,,,,,,,,,,,,,,,,,,,,,,,,,,,,,,,,,,,,,,,,,,,,,,,,,,,,,,,,,,
,,,,,,,,,,0001479934,2020-10-12_17h40.07.462,swahili,2020.2.4,MacIntel,60,,,0,16,16,16,1,YATIMA,ORPHAN,,,,,,,,,,,,,,,,,,,,,,,,,,,,,,,,,,,,,,,,,,,,,,,,,,,,,,,,,,,,,,,,,,,,,,,,,,,,,,,,,,,,,,,,,,,,,
,,,,,,,,,,0001479934,2020-10-12_17h40.07.462,swahili,2020.2.4,MacIntel,60,,,0,17,17,17,1,TALAKA,DIVORCE,,,,,,,,,,,,,,,,,,,,,,,,,,,,,,,,,,,,,,,,,,,,,,,,,,,,,,,,,,,,,,,,,,,,,,,,,,,,,,,,,,,,,,,,,,,,,
,,,,,,,,,,0001479934,2020-10-12_17h40.07.462,swahili,2020.2.4,MacIntel,60,,,0,18,18,18,1,MASHUA,BOAT,,,,,,,,,,,,,,,,,,,,,,,,,,,,,,,,,,,,,,,,,,,,,,,,,,,,,,,,,,,,,,,,,,,,,,,,,,,,,,,,,,,,,,,,,,,,,
,,,,,,,,,,0001479934,2020-10-12_17h40.07.462,swahili,2020.2.4,MacIntel,60,,,0,19,19,19,1,DAFINA,TREASURE,,,,,,,,,,,,,,,,,,,,,,,,,,,,,,,,,,,,,,,,,,,,,,,,,,,,,,,,,,,,,,,,,,,,,,,,,,,,,,,,,,,,,,,,,,,,,
,,,,,,,,,,0001479934,2020-10-12_17h40.07.462,swahili,2020.2.4,MacIntel,60,,,,,,,,,,-0.225995164,-0.029017857,1,0,0,8.71997,unsorted_card,0,0,0,0,1,,,,,,,,,,,,,,,,,,,,,,,,,,,,,,,,,,,,,,,,,,,,,,,,,,,,,,,,,,,,,,,,,,,,,,,,,,,,,,,,,
,,,,,,,,,,0001479934,2020-10-12_17h40.07.462,swahili,2020.2.4,MacIntel,60,,,,,,,,,,0.423232887,0.500394345,1,0,0,2.515725,study_pile,1,0,1,0,1,MERCHANT - TAJIRI,,,,,,,,,,,,,,,,,,,,,,,,,,,,,,,,,,,,,,,,,,,,,,,,,,,,,,,,,,,,,,,,,,,,,,,,,,,,,,,,
,,,,,,,,,,0001479934,2020-10-12_17h40.07.462,swahili,2020.2.4,MacIntel,60,,,,,,,,,,-0.387955729,-0.006324405,1,0,0,0.53041,unsorted_card,2,0,2,0,1,,,,,,,,,,,,,,,,,,,,,,,,,,,,,,,,,,,,,,,,,,,,,,,,,,,,,,,,,,,,,,,,,,,,,,,,,,,,,,,,,
,,,,,,,,,,0001479934,2020-10-12_17h40.07.462,swahili,2020.2.4,MacIntel,60,,,,,,,,,,0.366462054,0.43828125,1,0,0,1.51636,study_pile,3,0,3,0,1,PARROT - KASUKU,,,,,,,,,,,,,,,,,,,,,,,,,,,,,,,,,,,,,,,,,,,,,,,,,,,,,,,,,,,,,,,,,,,,,,,,,,,,,,,,
,,,,,,,,,,0001479934,2020-10-12_17h40.07.462,swahili,2020.2.4,MacIntel,60,,,,,,,,,,-0.546126302,-0.197775298,1,0,0,0.53174,unsorted_card,4,0,4,0,1,,,,,,,,,,,,,,,,,,,,,,,,,,,,,,,,,,,,,,,,,,,,,,,,,,,,,,,,,,,,,,,,,,,,,,,,,,,,,,,,,
,,,,,,,,,,0001479934,2020-10-12_17h40.07.462,swahili,2020.2.4,MacIntel,60,,,,,,,,,,0.415169271,0.411822917,1,0,0,1.431275,study_pile,5,0,5,0,1,BULL - FAHILI,,,,,,,,,,,,,,,,,,,,,,,,,,,,,,,,,,,,,,,,,,,,,,,,,,,,,,,,,,,,,,,,,,,,,,,,,,,,,,,,
,,,,,,,,,,0001479934,2020-10-12_17h40.07.462,swahili,2020.2.4,MacIntel,60,,,,,,,,,,-0.228613281,0.037291667,1,0,0,0.48148,unsorted_card,6,0,6,0,1,,,,,,,,,,,,,,,,,,,,,,,,,,,,,,,,,,,,,,,,,,,,,,,,,,,,,,,,,,,,,,,,,,,,,,,,,,,,,,,,,
,,,,,,,,,,0001479934,2020-10-12_17h40.07.462,swahili,2020.2.4,MacIntel,60,,,,,,,,,,0.360928199,0.478504464,1,0,0,2.482615,study_pile,7,0,7,0,1,PLATE - SAHANI,,,,,,,,,,,,,,,,,,,,,,,,,,,,,,,,,,,,,,,,,,,,,,,,,,,,,,,,,,,,,,,,,,,,,,,,,,,,,,,,
,,,,,,,,,,0001479934,2020-10-12_17h40.07.462,swahili,2020.2.4,MacIntel,60,,,,,,,,,,-0.288513765,-0.037447917,1,0,0,0.51535,unsorted_card,8,0,8,0,1,,,,,,,,,,,,,,,,,,,,,,,,,,,,,,,,,,,,,,,,,,,,,,,,,,,,,,,,,,,,,,,,,,,,,,,,,,,,,,,,,
,,,,,,,,,,0001479934,2020-10-12_17h40.07.462,swahili,2020.2.4,MacIntel,60,,,,,,,,,,0.380292039,0.512358631,1,0,0,1.10024,study_pile,9,0,9,0,1,YEAST - HAMIRA,,,,,,,,,,,,,,,,,,,,,,,,,,,,,,,,,,,,,,,,,,,,,,,,,,,,,,,,,,,,,,,,,,,,,,,,,,,,,,,,
,,,,,,,,,,0001479934,2020-10-12_17h40.07.462,swahili,2020.2.4,MacIntel,60,,,,,,,,,,-0.346577381,-0.071681548,1,0,0,0.49731,unsorted_card,10,0,10,0,1,,,,,,,,,,,,,,,,,,,,,,,,,,,,,,,,,,,,,,,,,,,,,,,,,,,,,,,,,,,,,,,,,,,,,,,,,,,,,,,,,
,,,,,,,,,,0001479934,2020-10-12_17h40.07.462,swahili,2020.2.4,MacIntel,60,,,,,,,,,,0.400790551,0.479412202,1,0,0,1.18193,study_pile,11,0,11,0,1,BLAME - LAWAMA,,,,,,,,,,,,,,,,,,,,,,,,,,,,,,,,,,,,,,,,,,,,,,,,,,,,,,,,,,,,,,,,,,,,,,,,,,,,,,,,
,,,,,,,,,,0001479934,2020-10-12_17h40.07.462,swahili,2020.2.4,MacIntel,60,,,,,,,,,,-0.234579613,-0.031071429,1,0,0,0.800205,unsorted_card,12,0,12,0,1,,,,,,,,,,,,,,,,,,,,,,,,,,,,,,,,,,,,,,,,,,,,,,,,,,,,,,,,,,,,,,,,,,,,,,,,,,,,,,,,,
,,,,,,,,,,0001479934,2020-10-12_17h40.07.462,swahili,2020.2.4,MacIntel,60,,,,,,,,,,0.414411272,0.532202381,1,0,0,1.01427,study_pile,13,0,13,0,1,OATH - YAMINI,,,,,,,,,,,,,,,,,,,,,,,,,,,,,,,,,,,,,,,,,,,,,,,,,,,,,,,,,,,,,,,,,,,,,,,,,,,,,,,,
,,,,,,,,,,0001479934,2020-10-12_17h40.07.462,swahili,2020.2.4,MacIntel,60,,,,,,,,,,-0.367354911,-0.089754464,1,0,0,0.565895,unsorted_card,14,0,14,0,1,,,,,,,,,,,,,,,,,,,,,,,,,,,,,,,,,,,,,,,,,,,,,,,,,,,,,,,,,,,,,,,,,,,,,,,,,,,,,,,,,
,,,,,,,,,,0001479934,2020-10-12_17h40.07.462,swahili,2020.2.4,MacIntel,60,,,,,,,,,,0.422749256,0.42422619,1,0,0,1.082995,study_pile,15,0,15,0,1,CORN - NAFAKA,,,,,,,,,,,,,,,,,,,,,,,,,,,,,,,,,,,,,,,,,,,,,,,,,,,,,,,,,,,,,,,,,,,,,,,,,,,,,,,,
,,,,,,,,,,0001479934,2020-10-12_17h40.07.462,swahili,2020.2.4,MacIntel,60,,,,,,,,,,-0.167954799,-0.023653274,1,0,0,0.481805,unsorted_card,16,0,16,0,1,,,,,,,,,,,,,,,,,,,,,,,,,,,,,,,,,,,,,,,,,,,,,,,,,,,,,,,,,,,,,,,,,,,,,,,,,,,,,,,,,
,,,,,,,,,,0001479934,2020-10-12_17h40.07.462,swahili,2020.2.4,MacIntel,60,,,,,,,,,,0.400083705,0.477581845,1,0,0,1.14914,study_pile,17,0,17,0,1,POEM - UTENZI,,,,,,,,,,,,,,,,,,,,,,,,,,,,,,,,,,,,,,,,,,,,,,,,,,,,,,,,,,,,,,,,,,,,,,,,,,,,,,,,
,,,,,,,,,,0001479934,2020-10-12_17h40.07.462,swahili,2020.2.4,MacIntel,60,,,,,,,,,,-0.281161644,-0.038563988,1,0,0,0.43117,unsorted_card,18,0,18,0,1,,,,,,,,,,,,,,,,,,,,,,,,,,,,,,,,,,,,,,,,,,,,,,,,,,,,,,,,,,,,,,,,,,,,,,,,,,,,,,,,,
,,,,,,,,,,0001479934,2020-10-12_17h40.07.462,swahili,2020.2.4,MacIntel,60,,,,,,,,,,0.32983631,0.395535714,1,0,0,1.149045,study_pile,19,0,19,0,1,TAILOR - MSHONI,,,,,,,,,,,,,,,,,,,,,,,,,,,,,,,,,,,,,,,,,,,,,,,,,,,,,,,,,,,,,,,,,,,,,,,,,,,,,,,,
,,,,,,,,,,0001479934,2020-10-12_17h40.07.462,swahili,2020.2.4,MacIntel,60,,,,,,,,,,-0.387137277,-0.16375,1,0,0,0.41586,unsorted_card,20,0,20,0,1,,,,,,,,,,,,,,,,,,,,,,,,,,,,,,,,,,,,,,,,,,,,,,,,,,,,,,,,,,,,,,,,,,,,,,,,,,,,,,,,,
,,,,,,,,,,0001479934,2020-10-12_17h40.07.462,swahili,2020.2.4,MacIntel,60,,,,,,,,,,0.390499442,0.397529762,1,0,0,0.98277,study_pile,21,0,21,0,1,CHEESE - JIBINI,,,,,,,,,,,,,,,,,,,,,,,,,,,,,,,,,,,,,,,,,,,,,,,,,,,,,,,,,,,,,,,,,,,,,,,,,,,,,,,,
,,,,,,,,,,0001479934,2020-10-12_17h40.07.462,swahili,2020.2.4,MacIntel,60,,,,,,,,,,-0.196158854,-0.013794643,1,0,0,0.497105,unsorted_card,22,0,22,0,1,,,,,,,,,,,,,,,,,,,,,,,,,,,,,,,,,,,,,,,,,,,,,,,,,,,,,,,,,,,,,,,,,,,,,,,,,,,,,,,,,
,,,,,,,,,,0001479934,2020-10-12_17h40.07.462,swahili,2020.2.4,MacIntel,60,,,,,,,,,,0.383537946,0.454077381,1,0,0,1.09909,study_pile,23,0,23,0,1,GRAPES - ZABIBU,,,,,,,,,,,,,,,,,,,,,,,,,,,,,,,,,,,,,,,,,,,,,,,,,,,,,,,,,,,,,,,,,,,,,,,,,,,,,,,,
,,,,,,,,,,0001479934,2020-10-12_17h40.07.462,swahili,2020.2.4,MacIntel,60,,,,,,,,,,-0.350595238,-0.126339286,1,0,0,0.49907,unsorted_card,24,0,24,0,1,,,,,,,,,,,,,,,,,,,,,,,,,,,,,,,,,,,,,,,,,,,,,,,,,,,,,,,,,,,,,,,,,,,,,,,,,,,,,,,,,
,,,,,,,,,,0001479934,2020-10-12_17h40.07.462,swahili,2020.2.4,MacIntel,60,,,,,,,,,,0.433872768,0.471837798,1,0,0,1.21395,study_pile,25,0,25,0,1,GRAVE - KABURI,,,,,,,,,,,,,,,,,,,,,,,,,,,,,,,,,,,,,,,,,,,,,,,,,,,,,,,,,,,,,,,,,,,,,,,,,,,,,,,,
,,,,,,,,,,0001479934,2020-10-12_17h40.07.462,swahili,2020.2.4,MacIntel,60,,,,,,,,,,-0.406752232,-0.139174107,1,0,0,0.49954,unsorted_card,26,0,26,0,1,,,,,,,,,,,,,,,,,,,,,,,,,,,,,,,,,,,,,,,,,,,,,,,,,,,,,,,,,,,,,,,,,,,,,,,,,,,,,,,,,
,,,,,,,,,,0001479934,2020-10-12_17h40.07.462,swahili,2020.2.4,MacIntel,60,,,,,,,,,,0.556608073,0.448035714,1,0,0,3.64913,study_pile,27,0,27,0,1,MANURE - SAMADI,,,,,,,,,,,,,,,,,,,,,,,,,,,,,,,,,,,,,,,,,,,,,,,,,,,,,,,,,,,,,,,,,,,,,,,,,,,,,,,,
,,,,,,,,,,0001479934,2020-10-12_17h40.07.462,swahili,2020.2.4,MacIntel,60,,,,,,,,,,-0.207370722,-0.068578869,1,0,0,0.531765,unsorted_card,28,0,28,0,1,,,,,,,,,,,,,,,,,,,,,,,,,,,,,,,,,,,,,,,,,,,,,,,,,,,,,,,,,,,,,,,,,,,,,,,,,,,,,,,,,
,,,,,,,,,,0001479934,2020-10-12_17h40.07.462,swahili,2020.2.4,MacIntel,60,,,,,,,,,,0.455812872,0.446108631,1,0,0,1.616095,study_pile,29,0,29,0,1,AGENT - WAKILI,,,,,,,,,,,,,,,,,,,,,,,,,,,,,,,,,,,,,,,,,,,,,,,,,,,,,,,,,,,,,,,,,,,,,,,,,,,,,,,,
,,,,,,,,,,0001479934,2020-10-12_17h40.07.462,swahili,2020.2.4,MacIntel,60,,,,,,,,,,-0.116671317,-0.03406994,1,0,0,0.564295,unsorted_card,30,0,30,0,1,,,,,,,,,,,,,,,,,,,,,,,,,,,,,,,,,,,,,,,,,,,,,,,,,,,,,,,,,,,,,,,,,,,,,,,,,,,,,,,,,
,,,,,,,,,,0001479934,2020-10-12_17h40.07.462,swahili,2020.2.4,MacIntel,60,,,,,,,,,,0.389457775,0.393504464,1,0,0,2.565445,study_pile,31,0,31,0,1,BRIBE - RUSHWA,,,,,,,,,,,,,,,,,,,,,,,,,,,,,,,,,,,,,,,,,,,,,,,,,,,,,,,,,,,,,,,,,,,,,,,,,,,,,,,,
,,,,,,,,,,0001479934,2020-10-12_17h40.07.462,swahili,2020.2.4,MacIntel,60,,,,,,,,,,0.019926525,-0.013764881,1,0,0,0.59839,unsorted_card,32,0,32,0,1,,,,,,,,,,,,,,,,,,,,,,,,,,,,,,,,,,,,,,,,,,,,,,,,,,,,,,,,,,,,,,,,,,,,,,,,,,,,,,,,,
,,,,,,,,,,0001479934,2020-10-12_17h40.07.462,swahili,2020.2.4,MacIntel,60,,,,,,,,,,0.391703869,0.422991071,1,0,0,1.415025,study_pile,33,0,33,0,1,ORPHAN - YATIMA,,,,,,,,,,,,,,,,,,,,,,,,,,,,,,,,,,,,,,,,,,,,,,,,,,,,,,,,,,,,,,,,,,,,,,,,,,,,,,,,
,,,,,,,,,,0001479934,2020-10-12_17h40.07.462,swahili,2020.2.4,MacIntel,60,,,,,,,,,,-0.14344308,0.026733631,1,0,0,0.532845,unsorted_card,34,0,34,0,1,,,,,,,,,,,,,,,,,,,,,,,,,,,,,,,,,,,,,,,,,,,,,,,,,,,,,,,,,,,,,,,,,,,,,,,,,,,,,,,,,
,,,,,,,,,,0001479934,2020-10-12_17h40.07.462,swahili,2020.2.4,MacIntel,60,,,,,,,,,,0.357956659,0.450364583,1,0,0,2.713465,study_pile,35,0,35,0,1,DIVORCE - TALAKA,,,,,,,,,,,,,,,,,,,,,,,,,,,,,,,,,,,,,,,,,,,,,,,,,,,,,,,,,,,,,,,,,,,,,,,,,,,,,,,,
,,,,,,,,,,0001479934,2020-10-12_17h40.07.462,swahili,2020.2.4,MacIntel,60,,,,,,,,,,-0.154627046,0.049464286,1,0,0,0.54954,unsorted_card,36,0,36,0,1,,,,,,,,,,,,,,,,,,,,,,,,,,,,,,,,,,,,,,,,,,,,,,,,,,,,,,,,,,,,,,,,,,,,,,,,,,,,,,,,,
,,,,,,,,,,0001479934,2020-10-12_17h40.07.462,swahili,2020.2.4,MacIntel,60,,,,,,,,,,0.370493862,0.46796131,1,0,0,1.28168,study_pile,37,0,37,0,1,BOAT - MASHUA,,,,,,,,,,,,,,,,,,,,,,,,,,,,,,,,,,,,,,,,,,,,,,,,,,,,,,,,,,,,,,,,,,,,,,,,,,,,,,,,
,,,,,,,,,,0001479934,2020-10-12_17h40.07.462,swahili,2020.2.4,MacIntel,60,,,,,,,,,,-0.159328497,0.087678571,1,0,0,0.548475,unsorted_card,38,0,38,0,1,,,,,,,,,,,,,,,,,,,,,,,,,,,,,,,,,,,,,,,,,,,,,,,,,,,,,,,,,,,,,,,,,,,,,,,,,,,,,,,,,
,,,,,,,,,,0001479934,2020-10-12_17h40.07.462,swahili,2020.2.4,MacIntel,60,,,,,,,,,,0.383203125,0.461770833,1,0,0,0.79942,study_pile,39,0,39,0,1,TREASURE - DAFINA,,,,,,,,,,,,,,,,,,,,,,,,,,,,,,,,,,,,,,,,,,,,,,,,,,,,,,,,,,,,,,,,,,,,,,,,,,,,,,,,
,,,,,,,,,,0001479934,2020-10-12_17h40.07.462,swahili,2020.2.4,MacIntel,60,,,,,,,,,,,,,,,,,,,,,,ORPHAN - YATIMA,,,,,,,,return,1.0581,return,5.043825,0,0,0,0,1,,,,,,,,,,,,,,,,,,,,,,,,,,,,,,,,,,,,,,,,,,,,,,,,,,,,,,,,,,,,,,,,
,,,,,,,,,,0001479934,2020-10-12_17h40.07.462,swahili,2020.2.4,MacIntel,60,,,,,,,,,,,,,,,,,,,,,,CHEESE - JIBINI,,,,,,,,,,return,2.398095,1,0,1,0,1,,,,,,,,,,,,,,,,,,,,,,,,,,,,,,,,,,,,,,,,,,,,,,,,,,,,,,,,,,,,,,,,
,,,,,,,,,,0001479934,2020-10-12_17h40.07.462,swahili,2020.2.4,MacIntel,60,,,,,,,,,,,,,,,,,,,,,,TAILOR - MSHONI,,,,,,,,,,return,5.164405,2,0,2,0,1,,,,,,,,,,,,,,,,,,,,,,,,,,,,,,,,,,,,,,,,,,,,,,,,,,,,,,,,,,,,,,,,
,,,,,,,,,,0001479934,2020-10-12_17h40.07.462,swahili,2020.2.4,MacIntel,60,,,,,,,,,,,,,,,,,,,,,,POEM - UTENZI,,,,,,,,,,return,2.481755,3,0,3,0,1,,,,,,,,,,,,,,,,,,,,,,,,,,,,,,,,,,,,,,,,,,,,,,,,,,,,,,,,,,,,,,,,
,,,,,,,,,,0001479934,2020-10-12_17h40.07.462,swahili,2020.2.4,MacIntel,60,,,,,,,,,,,,,,,,,,,,,,TREASURE - DAFINA,,,,,,,,,,return,2.05416,4,0,4,0,1,,,,,,,,,,,,,,,,,,,,,,,,,,,,,,,,,,,,,,,,,,,,,,,,,,,,,,,,,,,,,,,,
,,,,,,,,,,0001479934,2020-10-12_17h40.07.462,swahili,2020.2.4,MacIntel,60,,,,,,,,,,,,,,,,,,,,,,YEAST - HAMIRA,,,,,,,,,,return,1.64976,5,0,5,0,1,,,,,,,,,,,,,,,,,,,,,,,,,,,,,,,,,,,,,,,,,,,,,,,,,,,,,,,,,,,,,,,,
,,,,,,,,,,0001479934,2020-10-12_17h40.07.462,swahili,2020.2.4,MacIntel,60,,,,,,,,,,,,,,,,,,,,,,MANURE - SAMADI,,,,,,,,,,return,1.78446,6,0,6,0,1,,,,,,,,,,,,,,,,,,,,,,,,,,,,,,,,,,,,,,,,,,,,,,,,,,,,,,,,,,,,,,,,
,,,,,,,,,,0001479934,2020-10-12_17h40.07.462,swahili,2020.2.4,MacIntel,60,,,,,,,,,,,,,,,,,,,,,,AGENT - WAKILI,,,,,,,,,,return,1.267755,7,0,7,0,1,,,,,,,,,,,,,,,,,,,,,,,,,,,,,,,,,,,,,,,,,,,,,,,,,,,,,,,,,,,,,,,,
,,,,,,,,,,0001479934,2020-10-12_17h40.07.462,swahili,2020.2.4,MacIntel,60,,,,,,,,,,,,,,,,,,,,,,BULL - FAHILI,,,,,,,,,,return,2.38495,8,0,8,0,1,,,,,,,,,,,,,,,,,,,,,,,,,,,,,,,,,,,,,,,,,,,,,,,,,,,,,,,,,,,,,,,,
,,,,,,,,,,0001479934,2020-10-12_17h40.07.462,swahili,2020.2.4,MacIntel,60,,,,,,,,,,,,,,,,,,,,,,OATH - YAMINI,,,,,,,,,,return,1.2017,9,0,9,0,1,,,,,,,,,,,,,,,,,,,,,,,,,,,,,,,,,,,,,,,,,,,,,,,,,,,,,,,,,,,,,,,,
,,,,,,,,,,0001479934,2020-10-12_17h40.07.462,swahili,2020.2.4,MacIntel,60,,,,,,,,,,,,,,,,,,,,,,GRAPES - ZABIBU,,,,,,,,,,return,2.081825,10,0,10,0,1,,,,,,,,,,,,,,,,,,,,,,,,,,,,,,,,,,,,,,,,,,,,,,,,,,,,,,,,,,,,,,,,
,,,,,,,,,,0001479934,2020-10-12_17h40.07.462,swahili,2020.2.4,MacIntel,60,,,,,,,,,,,,,,,,,,,,,,BRIBE - RUSHWA,,,,,,,,,,return,1.79882,11,0,11,0,1,,,,,,,,,,,,,,,,,,,,,,,,,,,,,,,,,,,,,,,,,,,,,,,,,,,,,,,,,,,,,,,,
,,,,,,,,,,0001479934,2020-10-12_17h40.07.462,swahili,2020.2.4,MacIntel,60,,,,,,,,,,,,,,,,,,,,,,CORN - NAFAKA,,,,,,,,,,return,1.59829,12,0,12,0,1,,,,,,,,,,,,,,,,,,,,,,,,,,,,,,,,,,,,,,,,,,,,,,,,,,,,,,,,,,,,,,,,
,,,,,,,,,,0001479934,2020-10-12_17h40.07.462,swahili,2020.2.4,MacIntel,60,,,,,,,,,,,,,,,,,,,,,,PLATE - SAHANI,,,,,,,,,,return,1.16714,13,0,13,0,1,,,,,,,,,,,,,,,,,,,,,,,,,,,,,,,,,,,,,,,,,,,,,,,,,,,,,,,,,,,,,,,,
,,,,,,,,,,0001479934,2020-10-12_17h40.07.462,swahili,2020.2.4,MacIntel,60,,,,,,,,,,,,,,,,,,,,,,PARROT - KASUKU,,,,,,,,,,return,1.48283,14,0,14,0,1,,,,,,,,,,,,,,,,,,,,,,,,,,,,,,,,,,,,,,,,,,,,,,,,,,,,,,,,,,,,,,,,
,,,,,,,,,,0001479934,2020-10-12_17h40.07.462,swahili,2020.2.4,MacIntel,60,,,,,,,,,,,,,,,,,,,,,,BLAME - LAWAMA,,,,,,,,,,return,1.950745,15,0,15,0,1,,,,,,,,,,,,,,,,,,,,,,,,,,,,,,,,,,,,,,,,,,,,,,,,,,,,,,,,,,,,,,,,
,,,,,,,,,,0001479934,2020-10-12_17h40.07.462,swahili,2020.2.4,MacIntel,60,,,,,,,,,,,,,,,,,,,,,,MERCHANT - TAJIRI,,,,,,,,,,return,1.56801,16,0,16,0,1,,,,,,,,,,,,,,,,,,,,,,,,,,,,,,,,,,,,,,,,,,,,,,,,,,,,,,,,,,,,,,,,
,,,,,,,,,,0001479934,2020-10-12_17h40.07.462,swahili,2020.2.4,MacIntel,60,,,,,,,,,,,,,,,,,,,,,,GRAVE - KABURI,,,,,,,,,,return,1.9835,17,0,17,0,1,,,,,,,,,,,,,,,,,,,,,,,,,,,,,,,,,,,,,,,,,,,,,,,,,,,,,,,,,,,,,,,,
,,,,,,,,,,0001479934,2020-10-12_17h40.07.462,swahili,2020.2.4,MacIntel,60,,,,,,,,,,,,,,,,,,,,,,DIVORCE - TALAKA,,,,,,,,,,return,1.29917,18,0,18,0,1,,,,,,,,,,,,,,,,,,,,,,,,,,,,,,,,,,,,,,,,,,,,,,,,,,,,,,,,,,,,,,,,
,,,,,,,,,,0001479934,2020-10-12_17h40.07.462,swahili,2020.2.4,MacIntel,60,,,,,,,,,,,,,,,,,,,,,,BOAT - MASHUA,,,,,,,,,,return,1.36661,19,0,19,0,1,,,,,,,,,,,,,,,,,,,,,,,,,,,,,,,,,,,,,,,,,,,,,,,,,,,,,,,,,,,,,,,,
,,,,,,,,,,0001479934,2020-10-12_17h40.07.462,swahili,2020.2.4,MacIntel,60,,,,,,,,,,,,,,,,,,,,,,,,,,,,,,,,,,,,,,,,0,0,0,0,1,,,,,,,,,,,,,,,,,,,,,,,,,,,,,,,,,,,,,,,,,,,,,,,,,,,,,,,,,,
,,,,,,,,,,0001479934,2020-10-12_17h40.07.462,swahili,2020.2.4,MacIntel,60,,,,,,,,,,,,,,,,,,,,,,,,,,,,,,,,,,,,,,,,1,0,1,0,1,,,,,,,,,,,,,,,,,,,,,,,,,,,,,,,,,,,,,,,,,,,,,,,,,,,,,,,,,,
,,,,,,,,,,0001479934,2020-10-12_17h40.07.462,swahili,2020.2.4,MacIntel,60,,,,,,,,,,,,,,,,,,,,,,,,,,,,,,,,,,,,,,,,,,,,,0,0,0,0,1,,,,,,,,,,,,,,,,,,,,,,,,,,,,,,,,,,,,,,,,,,,,,,,,,,,,,
,,,,,,,,,,0001479934,2020-10-12_17h40.07.462,swahili,2020.2.4,MacIntel,60,,,,,,,,,,-0.16593192,0.019903274,1,0,0,5.3239,unsorted_card,0,0,0,0,1,,,,,,,,,,,,,,,,,,,,,,,,,,,,,,,,,,,,,,,,,,,,,,,,,,,,,,,,,,,,,,,,,,,,,,,,,,,,,,,,,
,,,,,,,,,,0001479934,2020-10-12_17h40.07.462,swahili,2020.2.4,MacIntel,60,,,,,,,,,,0.361765253,-0.018206845,1,0,0,3.2149,test_pile,1,0,1,0,1,MERCHANT - TAJIRI,,,,,,,,,,,,,,,,,,,,,,,,,,,,,,,,,,,,,,,,,,,,,,,,,,,,,,,,,,,,,,,,,,,,,,,,,,,,,,,,
,,,,,,,,,,0001479934,2020-10-12_17h40.07.462,swahili,2020.2.4,MacIntel,60,,,,,,,,,,-0.256036086,0.000677083,1,0,0,0.44692,unsorted_card,2,0,2,0,1,,,,,,,,,,,,,,,,,,,,,,,,,,,,,,,,,,,,,,,,,,,,,,,,,,,,,,,,,,,,,,,,,,,,,,,,,,,,,,,,,
,,,,,,,,,,0001479934,2020-10-12_17h40.07.462,swahili,2020.2.4,MacIntel,60,,,,,,,,,,0.397581845,-0.004747024,1,0,0,3.465905,test_pile,3,0,3,0,1,PARROT - KASUKU,,,,,,,,,,,,,,,,,,,,,,,,,,,,,,,,,,,,,,,,,,,,,,,,,,,,,,,,,,,,,,,,,,,,,,,,,,,,,,,,
,,,,,,,,,,0001479934,2020-10-12_17h40.07.462,swahili,2020.2.4,MacIntel,60,,,,,,,,,,-0.19734468,-0.038943452,1,0,0,0.41538,unsorted_card,4,0,4,0,1,,,,,,,,,,,,,,,,,,,,,,,,,,,,,,,,,,,,,,,,,,,,,,,,,,,,,,,,,,,,,,,,,,,,,,,,,,,,,,,,,
,,,,,,,,,,0001479934,2020-10-12_17h40.07.462,swahili,2020.2.4,MacIntel,60,,,,,,,,,,0.453641183,0.472916667,1,0,0,1.64817,study_pile,5,0,5,0,1,BULL - FAHILI,,,,,,,,,,,,,,,,,,,,,,,,,,,,,,,,,,,,,,,,,,,,,,,,,,,,,,,,,,,,,,,,,,,,,,,,,,,,,,,,
,,,,,,,,,,0001479934,2020-10-12_17h40.07.462,swahili,2020.2.4,MacIntel,60,,,,,,,,,,-0.181180246,0.03719494,1,0,0,0.54933,unsorted_card,6,0,6,0,1,,,,,,,,,,,,,,,,,,,,,,,,,,,,,,,,,,,,,,,,,,,,,,,,,,,,,,,,,,,,,,,,,,,,,,,,,,,,,,,,,
,,,,,,,,,,0001479934,2020-10-12_17h40.07.462,swahili,2020.2.4,MacIntel,60,,,,,,,,,,0.358551897,0.440126488,1,0,0,1.331335,study_pile,7,0,7,0,1,PLATE - SAHANI,,,,,,,,,,,,,,,,,,,,,,,,,,,,,,,,,,,,,,,,,,,,,,,,,,,,,,,,,,,,,,,,,,,,,,,,,,,,,,,,
,,,,,,,,,,0001479934,2020-10-12_17h40.07.462,swahili,2020.2.4,MacIntel,60,,,,,,,,,,-0.397316778,-0.021688988,1,0,0,0.398665,unsorted_card,8,0,8,0,1,,,,,,,,,,,,,,,,,,,,,,,,,,,,,,,,,,,,,,,,,,,,,,,,,,,,,,,,,,,,,,,,,,,,,,,,,,,,,,,,,
,,,,,,,,,,0001479934,2020-10-12_17h40.07.462,swahili,2020.2.4,MacIntel,60,,,,,,,,,,0.410109747,0.373980655,1,0,0,1.682885,study_pile,9,0,9,0,1,YEAST - HAMIRA,,,,,,,,,,,,,,,,,,,,,,,,,,,,,,,,,,,,,,,,,,,,,,,,,,,,,,,,,,,,,,,,,,,,,,,,,,,,,,,,
,,,,,,,,,,0001479934,2020-10-12_17h40.07.462,swahili,2020.2.4,MacIntel,60,,,,,,,,,,-0.126822917,-0.018214286,1,0,0,0.58196,unsorted_card,10,0,10,0,1,,,,,,,,,,,,,,,,,,,,,,,,,,,,,,,,,,,,,,,,,,,,,,,,,,,,,,,,,,,,,,,,,,,,,,,,,,,,,,,,,
,,,,,,,,,,0001479934,2020-10-12_17h40.07.462,swahili,2020.2.4,MacIntel,60,,,,,,,,,,0.370972842,-0.026123512,1,0,0,1.965705,test_pile,11,0,11,0,1,BLAME - LAWAMA,,,,,,,,,,,,,,,,,,,,,,,,,,,,,,,,,,,,,,,,,,,,,,,,,,,,,,,,,,,,,,,,,,,,,,,,,,,,,,,,
,,,,,,,,,,0001479934,2020-10-12_17h40.07.462,swahili,2020.2.4,MacIntel,60,,,,,,,,,,-0.33375186,0.020297619,1,0,0,0.383125,unsorted_card,12,0,12,0,1,,,,,,,,,,,,,,,,,,,,,,,,,,,,,,,,,,,,,,,,,,,,,,,,,,,,,,,,,,,,,,,,,,,,,,,,,,,,,,,,,
,,,,,,,,,,0001479934,2020-10-12_17h40.07.462,swahili,2020.2.4,MacIntel,60,,,,,,,,,,0.406222098,0.018125,1,0,0,1.248405,test_pile,13,0,13,0,1,OATH - YAMINI,,,,,,,,,,,,,,,,,,,,,,,,,,,,,,,,,,,,,,,,,,,,,,,,,,,,,,,,,,,,,,,,,,,,,,,,,,,,,,,,
,,,,,,,,,,0001479934,2020-10-12_17h40.07.462,swahili,2020.2.4,MacIntel,60,,,,,,,,,,-0.341113281,-0.098965774,1,0,0,0.431815,unsorted_card,14,0,14,0,1,,,,,,,,,,,,,,,,,,,,,,,,,,,,,,,,,,,,,,,,,,,,,,,,,,,,,,,,,,,,,,,,,,,,,,,,,,,,,,,,,
,,,,,,,,,,0001479934,2020-10-12_17h40.07.462,swahili,2020.2.4,MacIntel,60,,,,,,,,,,0.334388951,0.003690476,1,0,0,1.165815,test_pile,15,0,15,0,1,CORN - NAFAKA,,,,,,,,,,,,,,,,,,,,,,,,,,,,,,,,,,,,,,,,,,,,,,,,,,,,,,,,,,,,,,,,,,,,,,,,,,,,,,,,
,,,,,,,,,,0001479934,2020-10-12_17h40.07.462,swahili,2020.2.4,MacIntel,60,,,,,,,,,,-0.256296503,-0.018608631,1,0,0,0.432055,unsorted_card,16,0,16,0,1,,,,,,,,,,,,,,,,,,,,,,,,,,,,,,,,,,,,,,,,,,,,,,,,,,,,,,,,,,,,,,,,,,,,,,,,,,,,,,,,,
,,,,,,,,,,0001479934,2020-10-12_17h40.07.462,swahili,2020.2.4,MacIntel,60,,,,,,,,,,0.356222098,0.414293155,1,0,0,1.332195,study_pile,17,0,17,0,1,POEM - UTENZI,,,,,,,,,,,,,,,,,,,,,,,,,,,,,,,,,,,,,,,,,,,,,,,,,,,,,,,,,,,,,,,,,,,,,,,,,,,,,,,,
,,,,,,,,,,0001479934,2020-10-12_17h40.07.462,swahili,2020.2.4,MacIntel,60,,,,,,,,,,-0.255236235,-0.023973214,1,0,0,0.48238,unsorted_card,18,0,18,0,1,,,,,,,,,,,,,,,,,,,,,,,,,,,,,,,,,,,,,,,,,,,,,,,,,,,,,,,,,,,,,,,,,,,,,,,,,,,,,,,,,
,,,,,,,,,,0001479934,2020-10-12_17h40.07.462,swahili,2020.2.4,MacIntel,60,,,,,,,,,,0.331431362,0.449977679,1,0,0,1.449095,study_pile,19,0,19,0,1,TAILOR - MSHONI,,,,,,,,,,,,,,,,,,,,,,,,,,,,,,,,,,,,,,,,,,,,,,,,,,,,,,,,,,,,,,,,,,,,,,,,,,,,,,,,
,,,,,,,,,,0001479934,2020-10-12_17h40.07.462,swahili,2020.2.4,MacIntel,60,,,,,,,,,,-0.143484933,0.072589286,1,0,0,0.51596,unsorted_card,20,0,20,0,1,,,,,,,,,,,,,,,,,,,,,,,,,,,,,,,,,,,,,,,,,,,,,,,,,,,,,,,,,,,,,,,,,,,,,,,,,,,,,,,,,
,,,,,,,,,,0001479934,2020-10-12_17h40.07.462,swahili,2020.2.4,MacIntel,60,,,,,,,,,,0.471056548,0.390334821,1,0,0,1.547935,study_pile,21,0,21,0,1,CHEESE - JIBINI,,,,,,,,,,,,,,,,,,,,,,,,,,,,,,,,,,,,,,,,,,,,,,,,,,,,,,,,,,,,,,,,,,,,,,,,,,,,,,,,
,,,,,,,,,,0001479934,2020-10-12_17h40.07.462,swahili,2020.2.4,MacIntel,60,,,,,,,,,,-0.201706659,0.037581845,1,0,0,0.550605,unsorted_card,22,0,22,0,1,,,,,,,,,,,,,,,,,,,,,,,,,,,,,,,,,,,,,,,,,,,,,,,,,,,,,,,,,,,,,,,,,,,,,,,,,,,,,,,,,
,,,,,,,,,,0001479934,2020-10-12_17h40.07.462,swahili,2020.2.4,MacIntel,60,,,,,,,,,,0.370614769,-0.037581845,1,0,0,1.214695,test_pile,23,0,23,0,1,GRAPES - ZABIBU,,,,,,,,,,,,,,,,,,,,,,,,,,,,,,,,,,,,,,,,,,,,,,,,,,,,,,,,,,,,,,,,,,,,,,,,,,,,,,,,
,,,,,,,,,,0001479934,2020-10-12_17h40.07.462,swahili,2020.2.4,MacIntel,60,,,,,,,,,,-0.104478237,-0.019702381,1,0,0,0.448125,unsorted_card,24,0,24,0,1,,,,,,,,,,,,,,,,,,,,,,,,,,,,,,,,,,,,,,,,,,,,,,,,,,,,,,,,,,,,,,,,,,,,,,,,,,,,,,,,,
,,,,,,,,,,0001479934,2020-10-12_17h40.07.462,swahili,2020.2.4,MacIntel,60,,,,,,,,,,0.416150484,0.468809524,1,0,0,2.016195,study_pile,25,0,25,0,1,GRAVE - KABURI,,,,,,,,,,,,,,,,,,,,,,,,,,,,,,,,,,,,,,,,,,,,,,,,,,,,,,,,,,,,,,,,,,,,,,,,,,,,,,,,
,,,,,,,,,,0001479934,2020-10-12_17h40.07.462,swahili,2020.2.4,MacIntel,60,,,,,,,,,,-0.224358259,-0.173214286,1,0,0,0.498085,unsorted_card,26,0,26,0,1,,,,,,,,,,,,,,,,,,,,,,,,,,,,,,,,,,,,,,,,,,,,,,,,,,,,,,,,,,,,,,,,,,,,,,,,,,,,,,,,,
,,,,,,,,,,0001479934,2020-10-12_17h40.07.462,swahili,2020.2.4,MacIntel,60,,,,,,,,,,0.342833891,0.506770833,1,0,0,2.165925,study_pile,27,0,27,0,1,MANURE - SAMADI,,,,,,,,,,,,,,,,,,,,,,,,,,,,,,,,,,,,,,,,,,,,,,,,,,,,,,,,,,,,,,,,,,,,,,,,,,,,,,,,
,,,,,,,,,,0001479934,2020-10-12_17h40.07.462,swahili,2020.2.4,MacIntel,60,,,,,,,,,,-0.268164063,0.060014881,1,0,0,0.414695,unsorted_card,28,0,28,0,1,,,,,,,,,,,,,,,,,,,,,,,,,,,,,,,,,,,,,,,,,,,,,,,,,,,,,,,,,,,,,,,,,,,,,,,,,,,,,,,,,
,,,,,,,,,,0001479934,2020-10-12_17h40.07.462,swahili,2020.2.4,MacIntel,60,,,,,,,,,,0.306449963,0.014508929,1,0,0,1.46554,test_pile,29,0,29,0,1,AGENT - WAKILI,,,,,,,,,,,,,,,,,,,,,,,,,,,,,,,,,,,,,,,,,,,,,,,,,,,,,,,,,,,,,,,,,,,,,,,,,,,,,,,,
,,,,,,,,,,0001479934,2020-10-12_17h40.07.462,swahili,2020.2.4,MacIntel,60,,,,,,,,,,-0.131524368,-0.024799107,1,0,0,0.44813,unsorted_card,30,0,30,0,1,,,,,,,,,,,,,,,,,,,,,,,,,,,,,,,,,,,,,,,,,,,,,,,,,,,,,,,,,,,,,,,,,,,,,,,,,,,,,,,,,
,,,,,,,,,,0001479934,2020-10-12_17h40.07.462,swahili,2020.2.4,MacIntel,60,,,,,,,,,,0.350813802,-0.075558036,1,0,0,1.682255,test_pile,31,0,31,0,1,BRIBE - RUSHWA,,,,,,,,,,,,,,,,,,,,,,,,,,,,,,,,,,,,,,,,,,,,,,,,,,,,,,,,,,,,,,,,,,,,,,,,,,,,,,,,
,,,,,,,,,,0001479934,2020-10-12_17h40.07.462,swahili,2020.2.4,MacIntel,60,,,,,,,,,,-0.226027716,-0.024962798,1,0,0,0.38143,unsorted_card,32,0,32,0,1,,,,,,,,,,,,,,,,,,,,,,,,,,,,,,,,,,,,,,,,,,,,,,,,,,,,,,,,,,,,,,,,,,,,,,,,,,,,,,,,,
,,,,,,,,,,0001479934,2020-10-12_17h40.07.462,swahili,2020.2.4,MacIntel,60,,,,,,,,,,0.351269531,0.431041667,1,0,0,1.34969,study_pile,33,0,33,0,1,ORPHAN - YATIMA,,,,,,,,,,,,,,,,,,,,,,,,,,,,,,,,,,,,,,,,,,,,,,,,,,,,,,,,,,,,,,,,,,,,,,,,,,,,,,,,
,,,,,,,,,,0001479934,2020-10-12_17h40.07.462,swahili,2020.2.4,MacIntel,60,,,,,,,,,,-0.22639974,-0.055141369,1,0,0,0.4319,unsorted_card,34,0,34,0,1,,,,,,,,,,,,,,,,,,,,,,,,,,,,,,,,,,,,,,,,,,,,,,,,,,,,,,,,,,,,,,,,,,,,,,,,,,,,,,,,,
,,,,,,,,,,0001479934,2020-10-12_17h40.07.462,swahili,2020.2.4,MacIntel,60,,,,,,,,,,0.369489397,-0.065699405,1,0,0,1.38423,test_pile,35,0,35,0,1,DIVORCE - TALAKA,,,,,,,,,,,,,,,,,,,,,,,,,,,,,,,,,,,,,,,,,,,,,,,,,,,,,,,,,,,,,,,,,,,,,,,,,,,,,,,,
,,,,,,,,,,0001479934,2020-10-12_17h40.07.462,swahili,2020.2.4,MacIntel,60,,,,,,,,,,-0.120707775,-0.005840774,1,0,0,0.581095,unsorted_card,36,0,36,0,1,,,,,,,,,,,,,,,,,,,,,,,,,,,,,,,,,,,,,,,,,,,,,,,,,,,,,,,,,,,,,,,,,,,,,,,,,,,,,,,,,
,,,,,,,,,,0001479934,2020-10-12_17h40.07.462,swahili,2020.2.4,MacIntel,60,,,,,,,,,,0.365438988,0.383415179,1,0,0,1.865575,study_pile,37,0,37,0,1,BOAT - MASHUA,,,,,,,,,,,,,,,,,,,,,,,,,,,,,,,,,,,,,,,,,,,,,,,,,,,,,,,,,,,,,,,,,,,,,,,,,,,,,,,,
,,,,,,,,,,0001479934,2020-10-12_17h40.07.462,swahili,2020.2.4,MacIntel,60,,,,,,,,,,-0.145986793,0.026934524,1,0,0,0.449825,unsorted_card,38,0,38,0,1,,,,,,,,,,,,,,,,,,,,,,,,,,,,,,,,,,,,,,,,,,,,,,,,,,,,,,,,,,,,,,,,,,,,,,,,,,,,,,,,,
,,,,,,,,,,0001479934,2020-10-12_17h40.07.462,swahili,2020.2.4,MacIntel,60,,,,,,,,,,0.405189732,0.441919643,1,0,0,1.231905,study_pile,39,0,39,0,1,TREASURE - DAFINA,,,,,,,,,,,,,,,,,,,,,,,,,,,,,,,,,,,,,,,,,,,,,,,,,,,,,,,,,,,,,,,,,,,,,,,,,,,,,,,,
,,,,,,,,,,0001479934,2020-10-12_17h40.07.462,swahili,2020.2.4,MacIntel,60,,,,,,,,,,,,,,,,,,,,,,POEM - UTENZI,-0.379747954,-0.036175595,1,0,0,0.915505,study_first,return,4.267285,return,2.44829,0,0,0,0,1,,,,,,,,,,,,,,,,,,,,,,,,,,,,,,,,,,,,,,,,,,,,,,,,,,,,,,,,,,,,,,,,
,,,,,,,,,,0001479934,2020-10-12_17h40.07.462,swahili,2020.2.4,MacIntel,60,,,,,,,,,,,,,,,,,,,,,,BOAT - MASHUA,,,,,,,,,,return,2.364665,1,0,1,0,1,,,,,,,,,,,,,,,,,,,,,,,,,,,,,,,,,,,,,,,,,,,,,,,,,,,,,,,,,,,,,,,,
,,,,,,,,,,0001479934,2020-10-12_17h40.07.462,swahili,2020.2.4,MacIntel,60,,,,,,,,,,,,,,,,,,,,,,TREASURE - DAFINA,,,,,,,,,,return,1.666395,2,0,2,0,1,,,,,,,,,,,,,,,,,,,,,,,,,,,,,,,,,,,,,,,,,,,,,,,,,,,,,,,,,,,,,,,,
,,,,,,,,,,0001479934,2020-10-12_17h40.07.462,swahili,2020.2.4,MacIntel,60,,,,,,,,,,,,,,,,,,,,,,TAILOR - MSHONI,,,,,,,,,,return,1.46513,3,0,3,0,1,,,,,,,,,,,,,,,,,,,,,,,,,,,,,,,,,,,,,,,,,,,,,,,,,,,,,,,,,,,,,,,,
,,,,,,,,,,0001479934,2020-10-12_17h40.07.462,swahili,2020.2.4,MacIntel,60,,,,,,,,,,,,,,,,,,,,,,BULL - FAHILI,,,,,,,,,,return,0.949055,4,0,4,0,1,,,,,,,,,,,,,,,,,,,,,,,,,,,,,,,,,,,,,,,,,,,,,,,,,,,,,,,,,,,,,,,,
,,,,,,,,,,0001479934,2020-10-12_17h40.07.462,swahili,2020.2.4,MacIntel,60,,,,,,,,,,,,,,,,,,,,,,ORPHAN - YATIMA,,,,,,,,,,return,1.08319,5,0,5,0,1,,,,,,,,,,,,,,,,,,,,,,,,,,,,,,,,,,,,,,,,,,,,,,,,,,,,,,,,,,,,,,,,
,,,,,,,,,,0001479934,2020-10-12_17h40.07.462,swahili,2020.2.4,MacIntel,60,,,,,,,,,,,,,,,,,,,,,,CHEESE - JIBINI,,,,,,,,,,return,1.268385,6,0,6,0,1,,,,,,,,,,,,,,,,,,,,,,,,,,,,,,,,,,,,,,,,,,,,,,,,,,,,,,,,,,,,,,,,
,,,,,,,,,,0001479934,2020-10-12_17h40.07.462,swahili,2020.2.4,MacIntel,60,,,,,,,,,,,,,,,,,,,,,,YEAST - HAMIRA,,,,,,,,,,return,1.084165,7,0,7,0,1,,,,,,,,,,,,,,,,,,,,,,,,,,,,,,,,,,,,,,,,,,,,,,,,,,,,,,,,,,,,,,,,
,,,,,,,,,,0001479934,2020-10-12_17h40.07.462,swahili,2020.2.4,MacIntel,60,,,,,,,,,,,,,,,,,,,,,,GRAVE - KABURI,,,,,,,,,,return,0.853195,8,0,8,0,1,,,,,,,,,,,,,,,,,,,,,,,,,,,,,,,,,,,,,,,,,,,,,,,,,,,,,,,,,,,,,,,,
,,,,,,,,,,0001479934,2020-10-12_17h40.07.462,swahili,2020.2.4,MacIntel,60,,,,,,,,,,,,,,,,,,,,,,PLATE - SAHANI,,,,,,,,,,return,0.934645,9,0,9,0,1,,,,,,,,,,,,,,,,,,,,,,,,,,,,,,,,,,,,,,,,,,,,,,,,,,,,,,,,,,,,,,,,
,,,,,,,,,,0001479934,2020-10-12_17h40.07.462,swahili,2020.2.4,MacIntel,60,,,,,,,,,,,,,,,,,,,,,,MANURE - SAMADI,,,,,,,,,,return,1.034565,10,0,10,0,1,,,,,,,,,,,,,,,,,,,,,,,,,,,,,,,,,,,,,,,,,,,,,,,,,,,,,,,,,,,,,,,,
,,,,,,,,,,0001479934,2020-10-12_17h40.07.462,swahili,2020.2.4,MacIntel,60,,,,,,,,,,,,,,,,,,,,,,,,,,,,,,,,,,,,,,,,0,0,0,0,1,,,,,,,,,,,,,,,,,,,,,,,,,,,,,,,,,,,,,,,,,,,,,,,,,,,,,,,,,,
,,,,,,,,,,0001479934,2020-10-12_17h40.07.462,swahili,2020.2.4,MacIntel,60,,,,,,,,,,,,,,,,,,,,,,,,,,,,,,,,,,0,0,0,0,1,,,,,,,,,,,,,,,,,,,,,,,,,,,,,,,,,,,,,,,,,,,,,,,,,,,,,,,,,,,,,,,,
,,,,,,,,,,0001479934,2020-10-12_17h40.07.462,swahili,2020.2.4,MacIntel,60,,,,,,,,,,,,,,,,,,,,,,,,,,,,,,,,,,,,,,,return,,,,,,,,,,,0.84355,5.364515,0.848153832,0.13813244,1,0,0,0.94833,yes,PARROT,FWFW,incorrect,0,0,0,0,1,,,,,,,,,,,,,,,,,,,,,,,,,,,,,,,,,,,,
,,,,,,,,,,0001479934,2020-10-12_17h40.07.462,swahili,2020.2.4,MacIntel,60,,,,,,,,,,,,,,,,,,,,,,,,,,,,,,,,,,,,,,,,,,,,,,,,,,,4.28089,0.564034598,-0.015654762,1,0,0,1.217425,yes,MERCHANT,TAJIRI,incorrect,1,0,1,0,1,,,,,,,,,,,,,,,,,,,,,,,,,,,,,,,,,,,,
,,,,,,,,,,0001479934,2020-10-12_17h40.07.462,swahili,2020.2.4,MacIntel,60,,,,,,,,,,,,,,,,,,,,,,,,,,,,,,,,,,,,,,,,,,,,,,,,,,,4.216435,0.612490699,-0.030208333,1,0,0,0.76563,yes,BLAME,HAMINMA,incorrect,2,0,2,0,1,,,,,,,,,,,,,,,,,,,,,,,,,,,,,,,,,,,,
,,,,,,,,,,0001479934,2020-10-12_17h40.07.462,swahili,2020.2.4,MacIntel,60,,,,,,,,,,,,,,,,,,,,,,,,,,,,,,,,,,,,,,,,,,,,,,,,,,,5.648335,0.326018415,-0.106852679,1,0,0,0.801155,yes,GRAPES,JF,incorrect,3,0,3,0,1,,,,,,,,,,,,,,,,,,,,,,,,,,,,,,,,,,,,
,,,,,,,,,,0001479934,2020-10-12_17h40.07.462,swahili,2020.2.4,MacIntel,60,,,,,,,,,,,,,,,,,,,,,,,,,,,,,,,,,,,,,,,,,,,,,,,,,,,2.24773,0.485951451,-0.046696429,1,0,0,0.73262,yes,DIVORCE,TALAKA,incorrect,4,0,4,0,1,,,,,,,,,,,,,,,,,,,,,,,,,,,,,,,,,,,,
,,,,,,,,,,0001479934,2020-10-12_17h40.07.462,swahili,2020.2.4,MacIntel,60,,,,,,,,,,,,,,,,,,,,,,,,,,,,,,,,,,,,,,,,,,,,,,,,,,,4.08145,0.436737351,-0.069352679,1,0,0,0.700825,yes,AGENT,WAKILI,incorrect,5,0,5,0,1,,,,,,,,,,,,,,,,,,,,,,,,,,,,,,,,,,,,
,,,,,,,,,,0001479934,2020-10-12_17h40.07.462,swahili,2020.2.4,MacIntel,60,,,,,,,,,,,,,,,,,,,,,,,,,,,,,,,,,,,,,,,,,,,,,,,,,,,11.499105,0.688816034,0.030677083,1,0,0,0.64889,yes,BRIBE,RUSSHUA,incorrect,6,0,6,0,1,,,,,,,,,,,,,,,,,,,,,,,,,,,,,,,,,,,,
,,,,,,,,,,0001479934,2020-10-12_17h40.07.462,swahili,2020.2.4,MacIntel,60,,,,,,,,,,,,,,,,,,,,,,,,,,,,,,,,,,,,,,,,,,,,,,,,,,,5.298715,0.703218006,0.010952381,1,0,0,0.599625,yes,CORN,JF,incorrect,7,0,7,0,1,,,,,,,,,,,,,,,,,,,,,,,,,,,,,,,,,,,,
,,,,,,,,,,0001479934,2020-10-12_17h40.07.462,swahili,2020.2.4,MacIntel,60,,,,,,,,,,,,,,,,,,,,,,,,,,,,,,,,,,,,,,,,,,,,,,,,,,,4.88225,0.703194754,0.011123512,1,0,0,0.66631,yes,OATH,MIJUBI,incorrect,8,0,8,0,1,,,,,,,,,,,,,,,,,,,,,,,,,,,,,,,,,,,,
,,,,,,,,,,0001479934,2020-10-12_17h40.07.462,swahili,2020.2.4,MacIntel,60,,,,,,,,,,,,,,,,,,,,,,,,,,,,,,,,,,,,,,,,1,0,1,0,1,,,,,,,,,,,,,,,,,,,,,,,,,,,,,,,,,,,,,,,,,,,,,,,,,,,,,,,,,,
,,,,,,,,,,0001479934,2020-10-12_17h40.07.462,swahili,2020.2.4,MacIntel,60,,,,,,,,,,,,,,,,,,,,,,,,,,,,,,,,,,,,,,,,,,,,,1,0,1,0,1,,,,,,,,,,,,,,,,,,,,,,,,,,,,,,,,,,,,,,,,,,,,,,,,,,,,,
,,,,,,,,,,0001479934,2020-10-12_17h40.07.462,swahili,2020.2.4,MacIntel,60,,,,,,,,,,-0.288890439,0.001622024,1,0,0,1.773435,unsorted_card,0,0,0,0,1,,,,,,,,,,,,,,,,,,,,,,,,,,,,,,,,,,,,,,,,,,,,,,,,,,,,,,,,,,,,,,,,,,,,,,,,,,,,,,,,,
,,,,,,,,,,0001479934,2020-10-12_17h40.07.462,swahili,2020.2.4,MacIntel,60,,,,,,,,,,0.383654204,0.018608631,1,0,0,2.16486,test_pile,1,0,1,0,1,MERCHANT - TAJIRI,,,,,,,,,,,,,,,,,,,,,,,,,,,,,,,,,,,,,,,,,,,,,,,,,,,,,,,,,,,,,,,,,,,,,,,,,,,,,,,,
,,,,,,,,,,0001479934,2020-10-12_17h40.07.462,swahili,2020.2.4,MacIntel,60,,,,,,,,,,-0.194201079,-0.001123512,1,0,0,0.3994,unsorted_card,2,0,2,0,1,,,,,,,,,,,,,,,,,,,,,,,,,,,,,,,,,,,,,,,,,,,,,,,,,,,,,,,,,,,,,,,,,,,,,,,,,,,,,,,,,
,,,,,,,,,,0001479934,2020-10-12_17h40.07.462,swahili,2020.2.4,MacIntel,60,,,,,,,,,,0.383649554,-0.043616071,1,0,0,1.532465,test_pile,3,0,3,0,1,PARROT - KASUKU,,,,,,,,,,,,,,,,,,,,,,,,,,,,,,,,,,,,,,,,,,,,,,,,,,,,,,,,,,,,,,,,,,,,,,,,,,,,,,,,
,,,,,,,,,,0001479934,2020-10-12_17h40.07.462,swahili,2020.2.4,MacIntel,60,,,,,,,,,,-0.159016927,-0.037953869,1,0,0,0.448875,unsorted_card,4,0,4,0,1,,,,,,,,,,,,,,,,,,,,,,,,,,,,,,,,,,,,,,,,,,,,,,,,,,,,,,,,,,,,,,,,,,,,,,,,,,,,,,,,,
,,,,,,,,,,0001479934,2020-10-12_17h40.07.462,swahili,2020.2.4,MacIntel,60,,,,,,,,,,0.35968192,-0.023824405,1,0,0,2.833195,test_pile,5,0,5,0,1,BULL - FAHILI,,,,,,,,,,,,,,,,,,,,,,,,,,,,,,,,,,,,,,,,,,,,,,,,,,,,,,,,,,,,,,,,,,,,,,,,,,,,,,,,
,,,,,,,,,,0001479934,2020-10-12_17h40.07.462,swahili,2020.2.4,MacIntel,60,,,,,,,,,,-0.339081101,-0.010602679,1,0,0,0.398385,unsorted_card,6,0,6,0,1,,,,,,,,,,,,,,,,,,,,,,,,,,,,,,,,,,,,,,,,,,,,,,,,,,,,,,,,,,,,,,,,,,,,,,,,,,,,,,,,,
,,,,,,,,,,0001479934,2020-10-12_17h40.07.462,swahili,2020.2.4,MacIntel,60,,,,,,,,,,0.370121838,-0.040669643,1,0,0,1.247795,test_pile,7,0,7,0,1,PLATE - SAHANI,,,,,,,,,,,,,,,,,,,,,,,,,,,,,,,,,,,,,,,,,,,,,,,,,,,,,,,,,,,,,,,,,,,,,,,,,,,,,,,,
,,,,,,,,,,0001479934,2020-10-12_17h40.07.462,swahili,2020.2.4,MacIntel,60,,,,,,,,,,-0.143838356,-0.027209821,1,0,0,0.44903,unsorted_card,8,0,8,0,1,,,,,,,,,,,,,,,,,,,,,,,,,,,,,,,,,,,,,,,,,,,,,,,,,,,,,,,,,,,,,,,,,,,,,,,,,,,,,,,,,
,,,,,,,,,,0001479934,2020-10-12_17h40.07.462,swahili,2020.2.4,MacIntel,60,,,,,,,,,,0.372242374,-0.030327381,1,0,0,1.282665,test_pile,9,0,9,0,1,YEAST - HAMIRA,,,,,,,,,,,,,,,,,,,,,,,,,,,,,,,,,,,,,,,,,,,,,,,,,,,,,,,,,,,,,,,,,,,,,,,,,,,,,,,,
,,,,,,,,,,0001479934,2020-10-12_17h40.07.462,swahili,2020.2.4,MacIntel,60,,,,,,,,,,-0.173981585,-0.032574405,1,0,0,0.382425,unsorted_card,10,0,10,0,1,,,,,,,,,,,,,,,,,,,,,,,,,,,,,,,,,,,,,,,,,,,,,,,,,,,,,,,,,,,,,,,,,,,,,,,,,,,,,,,,,
,,,,,,,,,,0001479934,2020-10-12_17h40.07.462,swahili,2020.2.4,MacIntel,60,,,,,,,,,,0.412165179,-0.023214286,1,0,0,0.89918,test_pile,11,0,11,0,1,BLAME - LAWAMA,,,,,,,,,,,,,,,,,,,,,,,,,,,,,,,,,,,,,,,,,,,,,,,,,,,,,,,,,,,,,,,,,,,,,,,,,,,,,,,,
,,,,,,,,,,0001479934,2020-10-12_17h40.07.462,swahili,2020.2.4,MacIntel,60,,,,,,,,,,-0.140090216,-0.020811012,1,0,0,0.632205,unsorted_card,12,0,12,0,1,,,,,,,,,,,,,,,,,,,,,,,,,,,,,,,,,,,,,,,,,,,,,,,,,,,,,,,,,,,,,,,,,,,,,,,,,,,,,,,,,
,,,,,,,,,,0001479934,2020-10-12_17h40.07.462,swahili,2020.2.4,MacIntel,60,,,,,,,,,,0.390555246,-0.04188244,1,0,0,1.0976,test_pile,13,0,13,0,1,OATH - YAMINI,,,,,,,,,,,,,,,,,,,,,,,,,,,,,,,,,,,,,,,,,,,,,,,,,,,,,,,,,,,,,,,,,,,,,,,,,,,,,,,,
,,,,,,,,,,0001479934,2020-10-12_17h40.07.462,swahili,2020.2.4,MacIntel,60,,,,,,,,,,-0.060858445,-0.044330357,1,0,0,0.39892,unsorted_card,14,0,14,0,1,,,,,,,,,,,,,,,,,,,,,,,,,,,,,,,,,,,,,,,,,,,,,,,,,,,,,,,,,,,,,,,,,,,,,,,,,,,,,,,,,
,,,,,,,,,,0001479934,2020-10-12_17h40.07.462,swahili,2020.2.4,MacIntel,60,,,,,,,,,,0.368968564,-0.016316964,1,0,0,0.965955,test_pile,15,0,15,0,1,CORN - NAFAKA,,,,,,,,,,,,,,,,,,,,,,,,,,,,,,,,,,,,,,,,,,,,,,,,,,,,,,,,,,,,,,,,,,,,,,,,,,,,,,,,
,,,,,,,,,,0001479934,2020-10-12_17h40.07.462,swahili,2020.2.4,MacIntel,60,,,,,,,,,,-0.279966518,-0.012700893,1,0,0,0.415305,unsorted_card,16,0,16,0,1,,,,,,,,,,,,,,,,,,,,,,,,,,,,,,,,,,,,,,,,,,,,,,,,,,,,,,,,,,,,,,,,,,,,,,,,,,,,,,,,,
,,,,,,,,,,0001479934,2020-10-12_17h40.07.462,swahili,2020.2.4,MacIntel,60,,,,,,,,,,0.34296875,-0.046622024,1,0,0,0.83218,test_pile,17,0,17,0,1,POEM - UTENZI,,,,,,,,,,,,,,,,,,,,,,,,,,,,,,,,,,,,,,,,,,,,,,,,,,,,,,,,,,,,,,,,,,,,,,,,,,,,,,,,
,,,,,,,,,,0001479934,2020-10-12_17h40.07.462,swahili,2020.2.4,MacIntel,60,,,,,,,,,,-0.230836124,-0.053385417,1,0,0,0.415955,unsorted_card,18,0,18,0,1,,,,,,,,,,,,,,,,,,,,,,,,,,,,,,,,,,,,,,,,,,,,,,,,,,,,,,,,,,,,,,,,,,,,,,,,,,,,,,,,,
,,,,,,,,,,0001479934,2020-10-12_17h40.07.462,swahili,2020.2.4,MacIntel,60,,,,,,,,,,0.4,-0.017693452,1,0,0,1.3488,test_pile,19,0,19,0,1,TAILOR - MSHONI,,,,,,,,,,,,,,,,,,,,,,,,,,,,,,,,,,,,,,,,,,,,,,,,,,,,,,,,,,,,,,,,,,,,,,,,,,,,,,,,
,,,,,,,,,,0001479934,2020-10-12_17h40.07.462,swahili,2020.2.4,MacIntel,60,,,,,,,,,,-0.166327195,-0.033936012,1,0,0,0.43199,unsorted_card,20,0,20,0,1,,,,,,,,,,,,,,,,,,,,,,,,,,,,,,,,,,,,,,,,,,,,,,,,,,,,,,,,,,,,,,,,,,,,,,,,,,,,,,,,,
,,,,,,,,,,0001479934,2020-10-12_17h40.07.462,swahili,2020.2.4,MacIntel,60,,,,,,,,,,0.391434152,-0.029248512,1,0,0,0.80002,test_pile,21,0,21,0,1,CHEESE - JIBINI,,,,,,,,,,,,,,,,,,,,,,,,,,,,,,,,,,,,,,,,,,,,,,,,,,,,,,,,,,,,,,,,,,,,,,,,,,,,,,,,
,,,,,,,,,,0001479934,2020-10-12_17h40.07.462,swahili,2020.2.4,MacIntel,60,,,,,,,,,,-0.245754278,-0.050186012,1,0,0,0.382035,unsorted_card,22,0,22,0,1,,,,,,,,,,,,,,,,,,,,,,,,,,,,,,,,,,,,,,,,,,,,,,,,,,,,,,,,,,,,,,,,,,,,,,,,,,,,,,,,,
,,,,,,,,,,0001479934,2020-10-12_17h40.07.462,swahili,2020.2.4,MacIntel,60,,,,,,,,,,0.355691964,-0.031034226,1,0,0,0.96603,test_pile,23,0,23,0,1,GRAPES - ZABIBU,,,,,,,,,,,,,,,,,,,,,,,,,,,,,,,,,,,,,,,,,,,,,,,,,,,,,,,,,,,,,,,,,,,,,,,,,,,,,,,,
,,,,,,,,,,0001479934,2020-10-12_17h40.07.462,swahili,2020.2.4,MacIntel,60,,,,,,,,,,-0.247767857,-0.040141369,1,0,0,0.415455,unsorted_card,24,0,24,0,1,,,,,,,,,,,,,,,,,,,,,,,,,,,,,,,,,,,,,,,,,,,,,,,,,,,,,,,,,,,,,,,,,,,,,,,,,,,,,,,,,
,,,,,,,,,,0001479934,2020-10-12_17h40.07.462,swahili,2020.2.4,MacIntel,60,,,,,,,,,,0.393647693,-0.035558036,1,0,0,1.015965,test_pile,25,0,25,0,1,GRAVE - KABURI,,,,,,,,,,,,,,,,,,,,,,,,,,,,,,,,,,,,,,,,,,,,,,,,,,,,,,,,,,,,,,,,,,,,,,,,,,,,,,,,
,,,,,,,,,,0001479934,2020-10-12_17h40.07.462,swahili,2020.2.4,MacIntel,60,,,,,,,,,,-0.1648484,-0.043363095,1,0,0,0.415605,unsorted_card,26,0,26,0,1,,,,,,,,,,,,,,,,,,,,,,,,,,,,,,,,,,,,,,,,,,,,,,,,,,,,,,,,,,,,,,,,,,,,,,,,,,,,,,,,,
,,,,,,,,,,0001479934,2020-10-12_17h40.07.462,swahili,2020.2.4,MacIntel,60,,,,,,,,,,0.340801711,-0.053526786,1,0,0,1.365565,test_pile,27,0,27,0,1,MANURE - SAMADI,,,,,,,,,,,,,,,,,,,,,,,,,,,,,,,,,,,,,,,,,,,,,,,,,,,,,,,,,,,,,,,,,,,,,,,,,,,,,,,,
,,,,,,,,,,0001479934,2020-10-12_17h40.07.462,swahili,2020.2.4,MacIntel,60,,,,,,,,,,-0.11546224,-0.047150298,1,0,0,0.549075,unsorted_card,28,0,28,0,1,,,,,,,,,,,,,,,,,,,,,,,,,,,,,,,,,,,,,,,,,,,,,,,,,,,,,,,,,,,,,,,,,,,,,,,,,,,,,,,,,
,,,,,,,,,,0001479934,2020-10-12_17h40.07.462,swahili,2020.2.4,MacIntel,60,,,,,,,,,,0.397135417,-0.025052083,1,0,0,0.81518,test_pile,29,0,29,0,1,AGENT - WAKILI,,,,,,,,,,,,,,,,,,,,,,,,,,,,,,,,,,,,,,,,,,,,,,,,,,,,,,,,,,,,,,,,,,,,,,,,,,,,,,,,
,,,,,,,,,,0001479934,2020-10-12_17h40.07.462,swahili,2020.2.4,MacIntel,60,,,,,,,,,,-0.09859561,-0.077611607,1,0,0,0.432955,unsorted_card,30,0,30,0,1,,,,,,,,,,,,,,,,,,,,,,,,,,,,,,,,,,,,,,,,,,,,,,,,,,,,,,,,,,,,,,,,,,,,,,,,,,,,,,,,,
,,,,,,,,,,0001479934,2020-10-12_17h40.07.462,swahili,2020.2.4,MacIntel,60,,,,,,,,,,0.370140439,-0.021019345,1,0,0,1.083085,test_pile,31,0,31,0,1,BRIBE - RUSHWA,,,,,,,,,,,,,,,,,,,,,,,,,,,,,,,,,,,,,,,,,,,,,,,,,,,,,,,,,,,,,,,,,,,,,,,,,,,,,,,,
,,,,,,,,,,0001479934,2020-10-12_17h40.07.462,swahili,2020.2.4,MacIntel,60,,,,,,,,,,-0.179027158,-0.032470238,1,0,0,0.64839,unsorted_card,32,0,32,0,1,,,,,,,,,,,,,,,,,,,,,,,,,,,,,,,,,,,,,,,,,,,,,,,,,,,,,,,,,,,,,,,,,,,,,,,,,,,,,,,,,
,,,,,,,,,,0001479934,2020-10-12_17h40.07.462,swahili,2020.2.4,MacIntel,60,,,,,,,,,,0.38264974,-0.0315625,1,0,0,1.01605,test_pile,33,0,33,0,1,ORPHAN - YATIMA,,,,,,,,,,,,,,,,,,,,,,,,,,,,,,,,,,,,,,,,,,,,,,,,,,,,,,,,,,,,,,,,,,,,,,,,,,,,,,,,
,,,,,,,,,,0001479934,2020-10-12_17h40.07.462,swahili,2020.2.4,MacIntel,60,,,,,,,,,,-0.193182664,-0.01953869,1,0,0,0.38099,unsorted_card,34,0,34,0,1,,,,,,,,,,,,,,,,,,,,,,,,,,,,,,,,,,,,,,,,,,,,,,,,,,,,,,,,,,,,,,,,,,,,,,,,,,,,,,,,,
,,,,,,,,,,0001479934,2020-10-12_17h40.07.462,swahili,2020.2.4,MacIntel,60,,,,,,,,,,0.355691964,-0.057462798,1,0,0,0.93378,test_pile,35,0,35,0,1,DIVORCE - TALAKA,,,,,,,,,,,,,,,,,,,,,,,,,,,,,,,,,,,,,,,,,,,,,,,,,,,,,,,,,,,,,,,,,,,,,,,,,,,,,,,,
,,,,,,,,,,0001479934,2020-10-12_17h40.07.462,swahili,2020.2.4,MacIntel,60,,,,,,,,,,-0.240239025,-0.052581845,1,0,0,0.381225,unsorted_card,36,0,36,0,1,,,,,,,,,,,,,,,,,,,,,,,,,,,,,,,,,,,,,,,,,,,,,,,,,,,,,,,,,,,,,,,,,,,,,,,,,,,,,,,,,
,,,,,,,,,,0001479934,2020-10-12_17h40.07.462,swahili,2020.2.4,MacIntel,60,,,,,,,,,,0.388332403,-0.0478125,1,0,0,1.06465,test_pile,37,0,37,0,1,BOAT - MASHUA,,,,,,,,,,,,,,,,,,,,,,,,,,,,,,,,,,,,,,,,,,,,,,,,,,,,,,,,,,,,,,,,,,,,,,,,,,,,,,,,
,,,,,,,,,,0001479934,2020-10-12_17h40.07.462,swahili,2020.2.4,MacIntel,60,,,,,,,,,,-0.140983073,-0.019375,1,0,0,0.432275,unsorted_card,38,0,38,0,1,,,,,,,,,,,,,,,,,,,,,,,,,,,,,,,,,,,,,,,,,,,,,,,,,,,,,,,,,,,,,,,,,,,,,,,,,,,,,,,,,
,,,,,,,,,,0001479934,2020-10-12_17h40.07.462,swahili,2020.2.4,MacIntel,60,,,,,,,,,,0.398005022,-0.051197917,1,0,0,1.11716,test_pile,39,0,39,0,1,TREASURE - DAFINA,,,,,,,,,,,,,,,,,,,,,,,,,,,,,,,,,,,,,,,,,,,,,,,,,,,,,,,,,,,,,,,,,,,,,,,,,,,,,,,,
,,,,,,,,,,0001479934,2020-10-12_17h40.07.462,swahili,2020.2.4,MacIntel,60,,,,,,,,,,,,,,,,,,,,,,,,,,,,,,,,,,0,0,0,0,1,,,,,,,,,,,,,,,,,,,,,,,,,,,,,,,,,,,,,,,,,,,,,,,,,,,,,,,,,,,,,,,,
,,,,,,,,,,0001479934,2020-10-12_17h40.07.462,swahili,2020.2.4,MacIntel,60,,,,,,,,,,,,,,,,,,,,,,,,,,,,,,,,,,,,,,,return,,,,,,,,,,,1.361305,7.297025,0.331640625,-0.181800595,1,0,0,0.73368,yes,GRAPES,ZIBIBU,incorrect,0,0,0,0,1,,,,,,,,,,,,,,,,,,,,,,,,,,,,,,,,,,,,
,,,,,,,,,,0001479934,2020-10-12_17h40.07.462,swahili,2020.2.4,MacIntel,60,,,,,,,,,,,,,,,,,,,,,,,,,,,,,,,,,,,,,,,,,,,,,,,,,,,2.214545,0.443452381,-0.094285714,1,0,0,0.70061,yes,DIVORCE,TALAKA,incorrect,1,0,1,0,1,,,,,,,,,,,,,,,,,,,,,,,,,,,,,,,,,,,,
,,,,,,,,,,0001479934,2020-10-12_17h40.07.462,swahili,2020.2.4,MacIntel,60,,,,,,,,,,,,,,,,,,,,,,,,,,,,,,,,,,,,,,,,,,,,,,,,,,,4.365105,0.441327195,-0.102016369,1,0,0,0.499865,yes,CORN,NASAKA,incorrect,2,0,2,0,1,,,,,,,,,,,,,,,,,,,,,,,,,,,,,,,,,,,,
,,,,,,,,,,0001479934,2020-10-12_17h40.07.462,swahili,2020.2.4,MacIntel,60,,,,,,,,,,,,,,,,,,,,,,,,,,,,,,,,,,,,,,,,,,,,,,,,,,,2.681295,0.441327195,-0.102016369,1,0,0,0.48271,yes,BULL,JF,incorrect,3,0,3,0,1,,,,,,,,,,,,,,,,,,,,,,,,,,,,,,,,,,,,
,,,,,,,,,,0001479934,2020-10-12_17h40.07.462,swahili,2020.2.4,MacIntel,60,,,,,,,,,,,,,,,,,,,,,,,,,,,,,,,,,,,,,,,,,,,,,,,,,,,5.36382,0.441006324,-0.103325893,1,0,0,0.566945,yes,GRAVE,S,incorrect,4,0,4,0,1,,,,,,,,,,,,,,,,,,,,,,,,,,,,,,,,,,,,
,,,,,,,,,,0001479934,2020-10-12_17h40.07.462,swahili,2020.2.4,MacIntel,60,,,,,,,,,,,,,,,,,,,,,,,,,,,,,,,,,,,,,,,,,,,,,,,,,,,3.397815,0.441006324,-0.103489583,1,0,0,0.56637,yes,YEAST,TAHILI,incorrect,5,0,5,0,1,,,,,,,,,,,,,,,,,,,,,,,,,,,,,,,,,,,,
,,,,,,,,,,0001479934,2020-10-12_17h40.07.462,swahili,2020.2.4,MacIntel,60,,,,,,,,,,,,,,,,,,,,,,,,,,,,,,,,,,,,,,,,,,,,,,,,,,,2.631295,0.441006324,-0.103489583,1,0,0,0.666975,yes,MERCHANT,TAJIRI,incorrect,6,0,6,0,1,,,,,,,,,,,,,,,,,,,,,,,,,,,,,,,,,,,,
,,,,,,,,,,0001479934,2020-10-12_17h40.07.462,swahili,2020.2.4,MacIntel,60,,,,,,,,,,,,,,,,,,,,,,,,,,,,,,,,,,,,,,,,,,,,,,,,,,,2.93158,0.441108631,-0.103318452,1,0,0,0.46688,yes,MANURE,SA,incorrect,7,0,7,0,1,,,,,,,,,,,,,,,,,,,,,,,,,,,,,,,,,,,,
,,,,,,,,,,0001479934,2020-10-12_17h40.07.462,swahili,2020.2.4,MacIntel,60,,,,,,,,,,,,,,,,,,,,,,,,,,,,,,,,,,,,,,,,,,,,,,,,,,,1.61481,0.441108631,-0.103318452,1,0,0,0.56628,yes,PLATE,JF,incorrect,8,0,8,0,1,,,,,,,,,,,,,,,,,,,,,,,,,,,,,,,,,,,,
,,,,,,,,,,0001479934,2020-10-12_17h40.07.462,swahili,2020.2.4,MacIntel,60,,,,,,,,,,,,,,,,,,,,,,,,,,,,,,,,,,,,,,,,,,,,,,,,,,,2.416365,0.441108631,-0.103318452,1,0,0,0.998825,yes,AGENT,WAKILI,incorrect,9,0,9,0,1,,,,,,,,,,,,,,,,,,,,,,,,,,,,,,,,,,,,
,,,,,,,,,,0001479934,2020-10-12_17h40.07.462,swahili,2020.2.4,MacIntel,60,,,,,,,,,,,,,,,,,,,,,,,,,,,,,,,,,,,,,,,,,,,,,,,,,,,2.99912,0.433240327,-0.0246875,1,0,0,0.46639,yes,BLAME,JF,incorrect,10,0,10,0,1,,,,,,,,,,,,,,,,,,,,,,,,,,,,,,,,,,,,
,,,,,,,,,,0001479934,2020-10-12_17h40.07.462,swahili,2020.2.4,MacIntel,60,,,,,,,,,,,,,,,,,,,,,,,,,,,,,,,,,,,,,,,,,,,,,,,,,,,1.49849,0.433240327,-0.0246875,1,0,0,0.566685,yes,TREASURE,JF,incorrect,11,0,11,0,1,,,,,,,,,,,,,,,,,,,,,,,,,,,,,,,,,,,,
,,,,,,,,,,0001479934,2020-10-12_17h40.07.462,swahili,2020.2.4,MacIntel,60,,,,,,,,,,,,,,,,,,,,,,,,,,,,,,,,,,,,,,,,,,,,,,,,,,,6.24782,0.421349516,-0.026138393,1,0,0,0.5168,yes,TAILOR,MIHONI,incorrect,12,0,12,0,1,,,,,,,,,,,,,,,,,,,,,,,,,,,,,,,,,,,,
,,,,,,,,,,0001479934,2020-10-12_17h40.07.462,swahili,2020.2.4,MacIntel,60,,,,,,,,,,,,,,,,,,,,,,,,,,,,,,,,,,,,,,,,,,,,,,,,,,,5.431565,0.421554129,-0.026138393,1,0,0,0.44938,yes,OATH,F,incorrect,13,0,13,0,1,,,,,,,,,,,,,,,,,,,,,,,,,,,,,,,,,,,,
,,,,,,,,,,0001479934,2020-10-12_17h40.07.462,swahili,2020.2.4,MacIntel,60,,,,,,,,,,,,,,,,,,,,,,,,,,,,,,,,,,,,,,,,,,,,,,,,,,,3.432255,0.393489583,-0.024724702,1,0,0,0.483385,yes,ORPHAN,YATIMA,incorrect,14,0,14,0,1,,,,,,,,,,,,,,,,,,,,,,,,,,,,,,,,,,,,
,,,,,,,,,,0001479934,2020-10-12_17h40.07.462,swahili,2020.2.4,MacIntel,60,,,,,,,,,,,,,,,,,,,,,,,,,,,,,,,,,,,,,,,,,,,,,,,,,,,4.33157,0.399911644,-0.023110119,1,0,0,0.46659,yes,BRIBE,RUSHWA,incorrect,15,0,15,0,1,,,,,,,,,,,,,,,,,,,,,,,,,,,,,,,,,,,,
,,,,,,,,,,0001479934,2020-10-12_17h40.07.462,swahili,2020.2.4,MacIntel,60,,,,,,,,,,,,,,,,,,,,,,,,,,,,,,,,,,,,,,,,,,,,,,,,,,,1.99779,0.395205543,-0.024605655,1,0,0,0.483255,yes,BOAT,JF,incorrect,16,0,16,0,1,,,,,,,,,,,,,,,,,,,,,,,,,,,,,,,,,,,,
,,,,,,,,,,0001479934,2020-10-12_17h40.07.462,swahili,2020.2.4,MacIntel,60,,,,,,,,,,,,,,,,,,,,,,,,,,,,,,,,,,,,,,,,,,,,,,,,,,,4.348475,0.395205543,-0.024605655,1,0,0,0.416885,yes,PARROT,K,incorrect,17,0,17,0,1,,,,,,,,,,,,,,,,,,,,,,,,,,,,,,,,,,,,
,,,,,,,,,,0001479934,2020-10-12_17h40.07.462,swahili,2020.2.4,MacIntel,60,,,,,,,,,,,,,,,,,,,,,,,,,,,,,,,,,,,,,,,,,,,,,,,,,,,3.81644,0.395512463,-0.024270833,1,0,0,0.483185,yes,CHEESE,FF,incorrect,18,0,18,0,1,,,,,,,,,,,,,,,,,,,,,,,,,,,,,,,,,,,,
,,,,,,,,,,0001479934,2020-10-12_17h40.07.462,swahili,2020.2.4,MacIntel,60,,,,,,,,,,,,,,,,,,,,,,,,,,,,,,,,,,,,,,,,,,,,,,,,,,,2.448825,0.400813802,-0.023214286,1,0,0,0.51704,yes,POEM,UTENZI,incorrect,19,0,19,0,1,,,,,,,,,,,,,,,,,,,,,,,,,,,,,,,,,,,,
,,,,,,,,,,0001479934,2020-10-12_17h40.07.462,swahili,2020.2.4,MacIntel,60,,,,,,,,,,,,,,,,,,,,,,,,,,,,,,,,,,,,,,,,0,0,0,0,1,,,,,,,,,,,,,,,,,,,,,,,,,,,,,,,,,,,,,,,,,,,,,,,,,,,,,,,,,,
,,,,,,,,,,0001479934,2020-10-12_17h40.07.462,swahili,2020.2.4,MacIntel,60,,,,,,,,,,,,,,,,,,,,,,,,,,,,,,,,,,,,,,,,1,0,1,0,1,,,,,,,,,,,,,,,,,,,,,,,,,,,,,,,,,,,,,,,,,,,,,,,,,,,,,,,,,,
,,,,,,,,,,0001479934,2020-10-12_17h40.07.462,swahili,2020.2.4,MacIntel,60,,,,,,,,,,,,,,,,,,,,,,,,,,,,,,,,,,,,,,,,,,,,,2,0,2,0,1,,,,,,,,,,,,,,,,,,,,,,,,,,,,,,,,,,,,,,,,,,,,,,,,,,,,,
,,,,,,,,,,0001479934,2020-10-12_17h40.07.462,swahili,2020.2.4,MacIntel,60,,,,,,,,,,-0.262123326,0.034657738,1,0,0,1.57308,unsorted_card,0,0,0,0,1,,,,,,,,,,,,,,,,,,,,,,,,,,,,,,,,,,,,,,,,,,,,,,,,,,,,,,,,,,,,,,,,,,,,,,,,,,,,,,,,,
,,,,,,,,,,0001479934,2020-10-12_17h40.07.462,swahili,2020.2.4,MacIntel,60,,,,,,,,,,0.503520275,0.44765625,1,0,0,2.966075,study_pile,1,0,1,0,1,MERCHANT - TAJIRI,,,,,,,,,,,,,,,,,,,,,,,,,,,,,,,,,,,,,,,,,,,,,,,,,,,,,,,,,,,,,,,,,,,,,,,,,,,,,,,,
,,,,,,,,,,0001479934,2020-10-12_17h40.07.462,swahili,2020.2.4,MacIntel,60,,,,,,,,,,-0.387141927,0.02109375,1,0,0,0.58207,unsorted_card,2,0,2,0,1,,,,,,,,,,,,,,,,,,,,,,,,,,,,,,,,,,,,,,,,,,,,,,,,,,,,,,,,,,,,,,,,,,,,,,,,,,,,,,,,,
,,,,,,,,,,0001479934,2020-10-12_17h40.07.462,swahili,2020.2.4,MacIntel,60,,,,,,,,,,0.384235491,0.048943452,1,0,0,3.616955,test_pile,3,0,3,0,1,PARROT - KASUKU,,,,,,,,,,,,,,,,,,,,,,,,,,,,,,,,,,,,,,,,,,,,,,,,,,,,,,,,,,,,,,,,,,,,,,,,,,,,,,,,
,,,,,,,,,,0001479934,2020-10-12_17h40.07.462,swahili,2020.2.4,MacIntel,60,,,,,,,,,,-0.218447731,-0.0503125,1,0,0,0.38193,unsorted_card,4,0,4,0,1,,,,,,,,,,,,,,,,,,,,,,,,,,,,,,,,,,,,,,,,,,,,,,,,,,,,,,,,,,,,,,,,,,,,,,,,,,,,,,,,,
,,,,,,,,,,0001479934,2020-10-12_17h40.07.462,swahili,2020.2.4,MacIntel,60,,,,,,,,,,0.368019903,0.0196875,1,0,0,1.831885,test_pile,5,0,5,0,1,BULL - FAHILI,,,,,,,,,,,,,,,,,,,,,,,,,,,,,,,,,,,,,,,,,,,,,,,,,,,,,,,,,,,,,,,,,,,,,,,,,,,,,,,,
,,,,,,,,,,0001479934,2020-10-12_17h40.07.462,swahili,2020.2.4,MacIntel,60,,,,,,,,,,-0.343922061,-0.046160714,1,0,0,0.365495,unsorted_card,6,0,6,0,1,,,,,,,,,,,,,,,,,,,,,,,,,,,,,,,,,,,,,,,,,,,,,,,,,,,,,,,,,,,,,,,,,,,,,,,,,,,,,,,,,
,,,,,,,,,,0001479934,2020-10-12_17h40.07.462,swahili,2020.2.4,MacIntel,60,,,,,,,,,,0.415392485,0.001078869,1,0,0,1.149095,test_pile,7,0,7,0,1,PLATE - SAHANI,,,,,,,,,,,,,,,,,,,,,,,,,,,,,,,,,,,,,,,,,,,,,,,,,,,,,,,,,,,,,,,,,,,,,,,,,,,,,,,,
,,,,,,,,,,0001479934,2020-10-12_17h40.07.462,swahili,2020.2.4,MacIntel,60,,,,,,,,,,-0.227511161,-0.003407738,1,0,0,0.399065,unsorted_card,8,0,8,0,1,,,,,,,,,,,,,,,,,,,,,,,,,,,,,,,,,,,,,,,,,,,,,,,,,,,,,,,,,,,,,,,,,,,,,,,,,,,,,,,,,
,,,,,,,,,,0001479934,2020-10-12_17h40.07.462,swahili,2020.2.4,MacIntel,60,,,,,,,,,,0.394024368,0.053787202,1,0,0,1.19962,test_pile,9,0,9,0,1,YEAST - HAMIRA,,,,,,,,,,,,,,,,,,,,,,,,,,,,,,,,,,,,,,,,,,,,,,,,,,,,,,,,,,,,,,,,,,,,,,,,,,,,,,,,
,,,,,,,,,,0001479934,2020-10-12_17h40.07.462,swahili,2020.2.4,MacIntel,60,,,,,,,,,,-0.176381138,-0.039739583,1,0,0,0.365175,unsorted_card,10,0,10,0,1,,,,,,,,,,,,,,,,,,,,,,,,,,,,,,,,,,,,,,,,,,,,,,,,,,,,,,,,,,,,,,,,,,,,,,,,,,,,,,,,,
,,,,,,,,,,0001479934,2020-10-12_17h40.07.462,swahili,2020.2.4,MacIntel,60,,,,,,,,,,0.363583519,0.09766369,1,0,0,1.14855,test_pile,11,0,11,0,1,BLAME - LAWAMA,,,,,,,,,,,,,,,,,,,,,,,,,,,,,,,,,,,,,,,,,,,,,,,,,,,,,,,,,,,,,,,,,,,,,,,,,,,,,,,,
,,,,,,,,,,0001479934,2020-10-12_17h40.07.462,swahili,2020.2.4,MacIntel,60,,,,,,,,,,-0.278934152,-0.029494048,1,0,0,0.383015,unsorted_card,12,0,12,0,1,,,,,,,,,,,,,,,,,,,,,,,,,,,,,,,,,,,,,,,,,,,,,,,,,,,,,,,,,,,,,,,,,,,,,,,,,,,,,,,,,
,,,,,,,,,,0001479934,2020-10-12_17h40.07.462,swahili,2020.2.4,MacIntel,60,,,,,,,,,,0.336379278,0.014389881,1,0,0,1.082855,test_pile,13,0,13,0,1,OATH - YAMINI,,,,,,,,,,,,,,,,,,,,,,,,,,,,,,,,,,,,,,,,,,,,,,,,,,,,,,,,,,,,,,,,,,,,,,,,,,,,,,,,
,,,,,,,,,,0001479934,2020-10-12_17h40.07.462,swahili,2020.2.4,MacIntel,60,,,,,,,,,,-0.134119234,-0.037068452,1,0,0,0.34869,unsorted_card,14,0,14,0,1,,,,,,,,,,,,,,,,,,,,,,,,,,,,,,,,,,,,,,,,,,,,,,,,,,,,,,,,,,,,,,,,,,,,,,,,,,,,,,,,,
,,,,,,,,,,0001479934,2020-10-12_17h40.07.462,swahili,2020.2.4,MacIntel,60,,,,,,,,,,0.344470796,0.044516369,1,0,0,1.448555,test_pile,15,0,15,0,1,CORN - NAFAKA,,,,,,,,,,,,,,,,,,,,,,,,,,,,,,,,,,,,,,,,,,,,,,,,,,,,,,,,,,,,,,,,,,,,,,,,,,,,,,,,
,,,,,,,,,,0001479934,2020-10-12_17h40.07.462,swahili,2020.2.4,MacIntel,60,,,,,,,,,,-0.167424665,0.001264881,1,0,0,0.516415,unsorted_card,16,0,16,0,1,,,,,,,,,,,,,,,,,,,,,,,,,,,,,,,,,,,,,,,,,,,,,,,,,,,,,,,,,,,,,,,,,,,,,,,,,,,,,,,,,
,,,,,,,,,,0001479934,2020-10-12_17h40.07.462,swahili,2020.2.4,MacIntel,60,,,,,,,,,,0.365020461,0.389918155,1,0,0,1.23244,study_pile,17,0,17,0,1,POEM - UTENZI,,,,,,,,,,,,,,,,,,,,,,,,,,,,,,,,,,,,,,,,,,,,,,,,,,,,,,,,,,,,,,,,,,,,,,,,,,,,,,,,
,,,,,,,,,,0001479934,2020-10-12_17h40.07.462,swahili,2020.2.4,MacIntel,60,,,,,,,,,,-0.355264137,-0.091741071,1,0,0,0.415375,unsorted_card,18,0,18,0,1,,,,,,,,,,,,,,,,,,,,,,,,,,,,,,,,,,,,,,,,,,,,,,,,,,,,,,,,,,,,,,,,,,,,,,,,,,,,,,,,,
,,,,,,,,,,0001479934,2020-10-12_17h40.07.462,swahili,2020.2.4,MacIntel,60,,,,,,,,,,0.324772135,0.060379464,1,0,0,1.549435,test_pile,19,0,19,0,1,TAILOR - MSHONI,,,,,,,,,,,,,,,,,,,,,,,,,,,,,,,,,,,,,,,,,,,,,,,,,,,,,,,,,,,,,,,,,,,,,,,,,,,,,,,,
,,,,,,,,,,0001479934,2020-10-12_17h40.07.462,swahili,2020.2.4,MacIntel,60,,,,,,,,,,-0.175037202,-0.063303571,1,0,0,0.399365,unsorted_card,20,0,20,0,1,,,,,,,,,,,,,,,,,,,,,,,,,,,,,,,,,,,,,,,,,,,,,,,,,,,,,,,,,,,,,,,,,,,,,,,,,,,,,,,,,
,,,,,,,,,,0001479934,2020-10-12_17h40.07.462,swahili,2020.2.4,MacIntel,60,,,,,,,,,,0.403045945,-0.001808036,1,0,0,1.13152,test_pile,21,0,21,0,1,CHEESE - JIBINI,,,,,,,,,,,,,,,,,,,,,,,,,,,,,,,,,,,,,,,,,,,,,,,,,,,,,,,,,,,,,,,,,,,,,,,,,,,,,,,,
,,,,,,,,,,0001479934,2020-10-12_17h40.07.462,swahili,2020.2.4,MacIntel,60,,,,,,,,,,-0.17156808,0.020349702,1,0,0,0.38237,unsorted_card,22,0,22,0,1,,,,,,,,,,,,,,,,,,,,,,,,,,,,,,,,,,,,,,,,,,,,,,,,,,,,,,,,,,,,,,,,,,,,,,,,,,,,,,,,,
,,,,,,,,,,0001479934,2020-10-12_17h40.07.462,swahili,2020.2.4,MacIntel,60,,,,,,,,,,0.416959635,0.453839286,1,0,0,1.76499,study_pile,23,0,23,0,1,GRAPES - ZABIBU,,,,,,,,,,,,,,,,,,,,,,,,,,,,,,,,,,,,,,,,,,,,,,,,,,,,,,,,,,,,,,,,,,,,,,,,,,,,,,,,
,,,,,,,,,,0001479934,2020-10-12_17h40.07.462,swahili,2020.2.4,MacIntel,60,,,,,,,,,,-0.160918899,-0.06343006,1,0,0,0.482495,unsorted_card,24,0,24,0,1,,,,,,,,,,,,,,,,,,,,,,,,,,,,,,,,,,,,,,,,,,,,,,,,,,,,,,,,,,,,,,,,,,,,,,,,,,,,,,,,,
,,,,,,,,,,0001479934,2020-10-12_17h40.07.462,swahili,2020.2.4,MacIntel,60,,,,,,,,,,0.339541481,0.087395833,1,0,0,1.98265,test_pile,25,0,25,0,1,GRAVE - KABURI,,,,,,,,,,,,,,,,,,,,,,,,,,,,,,,,,,,,,,,,,,,,,,,,,,,,,,,,,,,,,,,,,,,,,,,,,,,,,,,,
,,,,,,,,,,0001479934,2020-10-12_17h40.07.462,swahili,2020.2.4,MacIntel,60,,,,,,,,,,-0.161523438,-0.013296131,1,0,0,0.31511,unsorted_card,26,0,26,0,1,,,,,,,,,,,,,,,,,,,,,,,,,,,,,,,,,,,,,,,,,,,,,,,,,,,,,,,,,,,,,,,,,,,,,,,,,,,,,,,,,
,,,,,,,,,,0001479934,2020-10-12_17h40.07.462,swahili,2020.2.4,MacIntel,60,,,,,,,,,,0.430064174,-0.00203125,1,0,0,2.316975,test_pile,27,0,27,0,1,MANURE - SAMADI,,,,,,,,,,,,,,,,,,,,,,,,,,,,,,,,,,,,,,,,,,,,,,,,,,,,,,,,,,,,,,,,,,,,,,,,,,,,,,,,
,,,,,,,,,,0001479934,2020-10-12_17h40.07.462,swahili,2020.2.4,MacIntel,60,,,,,,,,,,-0.132063802,0.04735119,1,0,0,0.365665,unsorted_card,28,0,28,0,1,,,,,,,,,,,,,,,,,,,,,,,,,,,,,,,,,,,,,,,,,,,,,,,,,,,,,,,,,,,,,,,,,,,,,,,,,,,,,,,,,
,,,,,,,,,,0001479934,2020-10-12_17h40.07.462,swahili,2020.2.4,MacIntel,60,,,,,,,,,,0.328580729,0.400647321,1,0,0,1.03212,study_pile,29,0,29,0,1,AGENT - WAKILI,,,,,,,,,,,,,,,,,,,,,,,,,,,,,,,,,,,,,,,,,,,,,,,,,,,,,,,,,,,,,,,,,,,,,,,,,,,,,,,,
,,,,,,,,,,0001479934,2020-10-12_17h40.07.462,swahili,2020.2.4,MacIntel,60,,,,,,,,,,-0.267294457,-0.009352679,1,0,0,0.3656,unsorted_card,30,0,30,0,1,,,,,,,,,,,,,,,,,,,,,,,,,,,,,,,,,,,,,,,,,,,,,,,,,,,,,,,,,,,,,,,,,,,,,,,,,,,,,,,,,
,,,,,,,,,,0001479934,2020-10-12_17h40.07.462,swahili,2020.2.4,MacIntel,60,,,,,,,,,,0.369480097,0.368534226,1,0,0,1.083295,study_pile,31,0,31,0,1,BRIBE - RUSHWA,,,,,,,,,,,,,,,,,,,,,,,,,,,,,,,,,,,,,,,,,,,,,,,,,,,,,,,,,,,,,,,,,,,,,,,,,,,,,,,,
,,,,,,,,,,0001479934,2020-10-12_17h40.07.462,swahili,2020.2.4,MacIntel,60,,,,,,,,,,-0.246028646,-0.106183036,1,0,0,0.43084,unsorted_card,32,0,32,0,1,,,,,,,,,,,,,,,,,,,,,,,,,,,,,,,,,,,,,,,,,,,,,,,,,,,,,,,,,,,,,,,,,,,,,,,,,,,,,,,,,
,,,,,,,,,,0001479934,2020-10-12_17h40.07.462,swahili,2020.2.4,MacIntel,60,,,,,,,,,,0.293703497,0.016607143,1,0,0,1.13212,test_pile,33,0,33,0,1,ORPHAN - YATIMA,,,,,,,,,,,,,,,,,,,,,,,,,,,,,,,,,,,,,,,,,,,,,,,,,,,,,,,,,,,,,,,,,,,,,,,,,,,,,,,,
,,,,,,,,,,0001479934,2020-10-12_17h40.07.462,swahili,2020.2.4,MacIntel,60,,,,,,,,,,-0.133105469,0.010275298,1,0,0,0.38189,unsorted_card,34,0,34,0,1,,,,,,,,,,,,,,,,,,,,,,,,,,,,,,,,,,,,,,,,,,,,,,,,,,,,,,,,,,,,,,,,,,,,,,,,,,,,,,,,,
,,,,,,,,,,0001479934,2020-10-12_17h40.07.462,swahili,2020.2.4,MacIntel,60,,,,,,,,,,0.392629278,0.39578125,1,0,0,1.500595,study_pile,35,0,35,0,1,DIVORCE - TALAKA,,,,,,,,,,,,,,,,,,,,,,,,,,,,,,,,,,,,,,,,,,,,,,,,,,,,,,,,,,,,,,,,,,,,,,,,,,,,,,,,
,,,,,,,,,,0001479934,2020-10-12_17h40.07.462,swahili,2020.2.4,MacIntel,60,,,,,,,,,,-0.098558408,-0.014300595,1,0,0,2.131225,unsorted_card,36,0,36,0,1,,,,,,,,,,,,,,,,,,,,,,,,,,,,,,,,,,,,,,,,,,,,,,,,,,,,,,,,,,,,,,,,,,,,,,,,,,,,,,,,,
,,,,,,,,,,0001479934,2020-10-12_17h40.07.462,swahili,2020.2.4,MacIntel,60,,,,,,,,,,0.43234747,0.00624256,1,0,0,2.483605,test_pile,37,0,37,0,1,BOAT - MASHUA,,,,,,,,,,,,,,,,,,,,,,,,,,,,,,,,,,,,,,,,,,,,,,,,,,,,,,,,,,,,,,,,,,,,,,,,,,,,,,,,
,,,,,,,,,,0001479934,2020-10-12_17h40.07.462,swahili,2020.2.4,MacIntel,60,,,,,,,,,,-0.243047805,-0.059419643,1,0,0,0.448605,unsorted_card,38,0,38,0,1,,,,,,,,,,,,,,,,,,,,,,,,,,,,,,,,,,,,,,,,,,,,,,,,,,,,,,,,,,,,,,,,,,,,,,,,,,,,,,,,,
,,,,,,,,,,0001479934,2020-10-12_17h40.07.462,swahili,2020.2.4,MacIntel,60,,,,,,,,,,0.384816778,0.006778274,1,0,0,1.13222,test_pile,39,0,39,0,1,TREASURE - DAFINA,,,,,,,,,,,,,,,,,,,,,,,,,,,,,,,,,,,,,,,,,,,,,,,,,,,,,,,,,,,,,,,,,,,,,,,,,,,,,,,,
,,,,,,,,,,0001479934,2020-10-12_17h40.07.462,swahili,2020.2.4,MacIntel,60,,,,,,,,,,,,,,,,,,,,,,MERCHANT - TAJIRI,-0.334388951,-0.050736607,1,0,0,1.181855,study_first,return,1.14967,return,1.383395,0,0,0,0,1,,,,,,,,,,,,,,,,,,,,,,,,,,,,,,,,,,,,,,,,,,,,,,,,,,,,,,,,,,,,,,,,
,,,,,,,,,,0001479934,2020-10-12_17h40.07.462,swahili,2020.2.4,MacIntel,60,,,,,,,,,,,,,,,,,,,,,,DIVORCE - TALAKA,,,,,,,,,,return,1.06674,1,0,1,0,1,,,,,,,,,,,,,,,,,,,,,,,,,,,,,,,,,,,,,,,,,,,,,,,,,,,,,,,,,,,,,,,,
,,,,,,,,,,0001479934,2020-10-12_17h40.07.462,swahili,2020.2.4,MacIntel,60,,,,,,,,,,,,,,,,,,,,,,GRAPES - ZABIBU,,,,,,,,,,return,0.849295,2,0,2,0,1,,,,,,,,,,,,,,,,,,,,,,,,,,,,,,,,,,,,,,,,,,,,,,,,,,,,,,,,,,,,,,,,
,,,,,,,,,,0001479934,2020-10-12_17h40.07.462,swahili,2020.2.4,MacIntel,60,,,,,,,,,,,,,,,,,,,,,,BRIBE - RUSHWA,,,,,,,,,,return,1.051195,3,0,3,0,1,,,,,,,,,,,,,,,,,,,,,,,,,,,,,,,,,,,,,,,,,,,,,,,,,,,,,,,,,,,,,,,,
,,,,,,,,,,0001479934,2020-10-12_17h40.07.462,swahili,2020.2.4,MacIntel,60,,,,,,,,,,,,,,,,,,,,,,POEM - UTENZI,,,,,,,,,,return,0.864795,4,0,4,0,1,,,,,,,,,,,,,,,,,,,,,,,,,,,,,,,,,,,,,,,,,,,,,,,,,,,,,,,,,,,,,,,,
,,,,,,,,,,0001479934,2020-10-12_17h40.07.462,swahili,2020.2.4,MacIntel,60,,,,,,,,,,,,,,,,,,,,,,AGENT - WAKILI,,,,,,,,,,return,0.866715,5,0,5,0,1,,,,,,,,,,,,,,,,,,,,,,,,,,,,,,,,,,,,,,,,,,,,,,,,,,,,,,,,,,,,,,,,
,,,,,,,,,,0001479934,2020-10-12_17h40.07.462,swahili,2020.2.4,MacIntel,60,,,,,,,,,,,,,,,,,,,,,,,,,,,,,,,,,,,,,,,,0,0,0,0,1,,,,,,,,,,,,,,,,,,,,,,,,,,,,,,,,,,,,,,,,,,,,,,,,,,,,,,,,,,
,,,,,,,,,,0001479934,2020-10-12_17h40.07.462,swahili,2020.2.4,MacIntel,60,,,,,,,,,,,,,,,,,,,,,,,,,,,,,,,,,,0,0,0,0,1,,,,,,,,,,,,,,,,,,,,,,,,,,,,,,,,,,,,,,,,,,,,,,,,,,,,,,,,,,,,,,,,
,,,,,,,,,,0001479934,2020-10-12_17h40.07.462,swahili,2020.2.4,MacIntel,60,,,,,,,,,,,,,,,,,,,,,,,,,,,,,,,,,,,,,,,return,,,,,,,,,,,0.63085,2.548485,0.403208705,-0.083080357,1,0,0,0.69896,yes,BLAME,JF,incorrect,0,0,0,0,1,,,,,,,,,,,,,,,,,,,,,,,,,,,,,,,,,,,,
,,,,,,,,,,0001479934,2020-10-12_17h40.07.462,swahili,2020.2.4,MacIntel,60,,,,,,,,,,,,,,,,,,,,,,,,,,,,,,,,,,,,,,,,,,,,,,,,,,,5.198385,0.396219308,-0.090796131,1,0,0,0.465575,yes,TAILOR,MISHONI,incorrect,1,0,1,0,1,,,,,,,,,,,,,,,,,,,,,,,,,,,,,,,,,,,,
,,,,,,,,,,0001479934,2020-10-12_17h40.07.462,swahili,2020.2.4,MacIntel,60,,,,,,,,,,,,,,,,,,,,,,,,,,,,,,,,,,,,,,,,,,,,,,,,,,,4.099485,0.40140904,-0.080580357,1,0,0,0.448765,yes,YEAST,HARIMI,incorrect,2,0,2,0,1,,,,,,,,,,,,,,,,,,,,,,,,,,,,,,,,,,,,
,,,,,,,,,,0001479934,2020-10-12_17h40.07.462,swahili,2020.2.4,MacIntel,60,,,,,,,,,,,,,,,,,,,,,,,,,,,,,,,,,,,,,,,,,,,,,,,,,,,6.965315,0.402915737,-0.081458333,1,0,0,0.416195,yes,OATH,TAMIRA,incorrect,3,0,3,0,1,,,,,,,,,,,,,,,,,,,,,,,,,,,,,,,,,,,,
,,,,,,,,,,0001479934,2020-10-12_17h40.07.462,swahili,2020.2.4,MacIntel,60,,,,,,,,,,,,,,,,,,,,,,,,,,,,,,,,,,,,,,,,,,,,,,,,,,,1.596525,0.403018043,-0.081458333,1,0,0,0.666265,yes,MANURE,S,incorrect,4,0,4,0,1,,,,,,,,,,,,,,,,,,,,,,,,,,,,,,,,,,,,
,,,,,,,,,,0001479934,2020-10-12_17h40.07.462,swahili,2020.2.4,MacIntel,60,,,,,,,,,,,,,,,,,,,,,,,,,,,,,,,,,,,,,,,,,,,,,,,,,,,4.56471,0.403952753,-0.080498512,1,0,0,0.500405,yes,BOAT,MISHUA,incorrect,5,0,5,0,1,,,,,,,,,,,,,,,,,,,,,,,,,,,,,,,,,,,,
,,,,,,,,,,0001479934,2020-10-12_17h40.07.462,swahili,2020.2.4,MacIntel,60,,,,,,,,,,,,,,,,,,,,,,,,,,,,,,,,,,,,,,,,,,,,,,,,,,,1.766155,0.403952753,-0.080498512,1,0,0,0.91657,yes,PLATE,SA,incorrect,6,0,6,0,1,,,,,,,,,,,,,,,,,,,,,,,,,,,,,,,,,,,,
,,,,,,,,,,0001479934,2020-10-12_17h40.07.462,swahili,2020.2.4,MacIntel,60,,,,,,,,,,,,,,,,,,,,,,,,,,,,,,,,,,,,,,,,,,,,,,,,,,,7.98199,0.419810268,-0.078735119,1,0,0,0.54938,yes,PARROT,KUSUBO,incorrect,7,0,7,0,1,,,,,,,,,,,,,,,,,,,,,,,,,,,,,,,,,,,,
,,,,,,,,,,0001479934,2020-10-12_17h40.07.462,swahili,2020.2.4,MacIntel,60,,,,,,,,,,,,,,,,,,,,,,,,,,,,,,,,,,,,,,,,,,,,,,,,,,,3.197625,0.419810268,-0.078735119,1,0,0,0.43293,yes,CORN,NAKALA,incorrect,8,0,8,0,1,,,,,,,,,,,,,,,,,,,,,,,,,,,,,,,,,,,,
,,,,,,,,,,0001479934,2020-10-12_17h40.07.462,swahili,2020.2.4,MacIntel,60,,,,,,,,,,,,,,,,,,,,,,,,,,,,,,,,,,,,,,,,,,,,,,,,,,,1.481775,0.419810268,-0.078735119,1,0,0,0.667865,yes,BULL,JF,incorrect,9,0,9,0,1,,,,,,,,,,,,,,,,,,,,,,,,,,,,,,,,,,,,
,,,,,,,,,,0001479934,2020-10-12_17h40.07.462,swahili,2020.2.4,MacIntel,60,,,,,,,,,,,,,,,,,,,,,,,,,,,,,,,,,,,,,,,,,,,,,,,,,,,6.514825,0.420112537,-0.07953869,1,0,0,0.833525,yes,GRAVE,KADURI,incorrect,10,0,10,0,1,,,,,,,,,,,,,,,,,,,,,,,,,,,,,,,,,,,,
,,,,,,,,,,0001479934,2020-10-12_17h40.07.462,swahili,2020.2.4,MacIntel,60,,,,,,,,,,,,,,,,,,,,,,,,,,,,,,,,,,,,,,,,,,,,,,,,,,,4.081625,0.41968471,-0.082834821,1,0,0,0.733055,yes,CHEESE,HATILI,incorrect,11,0,11,0,1,,,,,,,,,,,,,,,,,,,,,,,,,,,,,,,,,,,,
,,,,,,,,,,0001479934,2020-10-12_17h40.07.462,swahili,2020.2.4,MacIntel,60,,,,,,,,,,,,,,,,,,,,,,,,,,,,,,,,,,,,,,,,,,,,,,,,,,,3.081725,0.41968471,-0.082834821,1,0,0,0.766175,yes,ORPHAN,YATIMA,incorrect,12,0,12,0,1,,,,,,,,,,,,,,,,,,,,,,,,,,,,,,,,,,,,
,,,,,,,,,,0001479934,2020-10-12_17h40.07.462,swahili,2020.2.4,MacIntel,60,,,,,,,,,,,,,,,,,,,,,,,,,,,,,,,,,,,,,,,,,,,,,,,,,,,1.713805,0.41968471,-0.082834821,1,0,0,0.467785,yes,TREASURE,JF,incorrect,13,0,13,0,1,,,,,,,,,,,,,,,,,,,,,,,,,,,,,,,,,,,,
,,,,,,,,,,0001479934,2020-10-12_17h40.07.462,swahili,2020.2.4,MacIntel,60,,,,,,,,,,,,,,,,,,,,,,,,,,,,,,,,,,,,,,,,1,0,1,0,1,,,,,,,,,,,,,,,,,,,,,,,,,,,,,,,,,,,,,,,,,,,,,,,,,,,,,,,,,,
,,,,,,,,,,0001479934,2020-10-12_17h40.07.462,swahili,2020.2.4,MacIntel,60,,,,,,,,,,,,,,,,,,,,,,,,,,,,,,,,,,,,,,,,,,,,,3,0,3,0,1,,,,,,,,,,,,,,,,,,,,,,,,,,,,,,,,,,,,,,,,,,,,,,,,,,,,,
,,,,,,,,,,0001479934,2020-10-12_17h40.07.462,swahili,2020.2.4,MacIntel,60,,,,,,,,,,-0.469712612,-0.115483631,1,0,0,1.35775,unsorted_card,0,0,0,0,1,,,,,,,,,,,,,,,,,,,,,,,,,,,,,,,,,,,,,,,,,,,,,,,,,,,,,,,,,,,,,,,,,,,,,,,,,,,,,,,,,
,,,,,,,,,,0001479934,2020-10-12_17h40.07.462,swahili,2020.2.4,MacIntel,60,,,,,,,,,,0.364304315,0.448630952,1,0,0,1.38061,study_pile,1,0,1,0,1,MERCHANT - TAJIRI,,,,,,,,,,,,,,,,,,,,,,,,,,,,,,,,,,,,,,,,,,,,,,,,,,,,,,,,,,,,,,,,,,,,,,,,,,,,,,,,
,,,,,,,,,,0001479934,2020-10-12_17h40.07.462,swahili,2020.2.4,MacIntel,60,,,,,,,,,,-0.301678757,-0.049122024,1,0,0,0.4157,unsorted_card,2,0,2,0,1,,,,,,,,,,,,,,,,,,,,,,,,,,,,,,,,,,,,,,,,,,,,,,,,,,,,,,,,,,,,,,,,,,,,,,,,,,,,,,,,,
,,,,,,,,,,0001479934,2020-10-12_17h40.07.462,swahili,2020.2.4,MacIntel,60,,,,,,,,,,0.389443824,-0.00078125,1,0,0,1.11675,test_pile,3,0,3,0,1,PARROT - KASUKU,,,,,,,,,,,,,,,,,,,,,,,,,,,,,,,,,,,,,,,,,,,,,,,,,,,,,,,,,,,,,,,,,,,,,,,,,,,,,,,,
,,,,,,,,,,0001479934,2020-10-12_17h40.07.462,swahili,2020.2.4,MacIntel,60,,,,,,,,,,-0.173265439,-0.007098214,1,0,0,0.36513,unsorted_card,4,0,4,0,1,,,,,,,,,,,,,,,,,,,,,,,,,,,,,,,,,,,,,,,,,,,,,,,,,,,,,,,,,,,,,,,,,,,,,,,,,,,,,,,,,
,,,,,,,,,,0001479934,2020-10-12_17h40.07.462,swahili,2020.2.4,MacIntel,60,,,,,,,,,,0.34859561,-0.009985119,1,0,0,0.8661,test_pile,5,0,5,0,1,BULL - FAHILI,,,,,,,,,,,,,,,,,,,,,,,,,,,,,,,,,,,,,,,,,,,,,,,,,,,,,,,,,,,,,,,,,,,,,,,,,,,,,,,,
,,,,,,,,,,0001479934,2020-10-12_17h40.07.462,swahili,2020.2.4,MacIntel,60,,,,,,,,,,-0.286225818,0.084419643,1,0,0,0.34917,unsorted_card,6,0,6,0,1,,,,,,,,,,,,,,,,,,,,,,,,,,,,,,,,,,,,,,,,,,,,,,,,,,,,,,,,,,,,,,,,,,,,,,,,,,,,,,,,,
,,,,,,,,,,0001479934,2020-10-12_17h40.07.462,swahili,2020.2.4,MacIntel,60,,,,,,,,,,0.353292411,-0.02734375,1,0,0,0.96455,test_pile,7,0,7,0,1,PLATE - SAHANI,,,,,,,,,,,,,,,,,,,,,,,,,,,,,,,,,,,,,,,,,,,,,,,,,,,,,,,,,,,,,,,,,,,,,,,,,,,,,,,,
,,,,,,,,,,0001479934,2020-10-12_17h40.07.462,swahili,2020.2.4,MacIntel,60,,,,,,,,,,-0.234570312,0.01358631,1,0,0,0.282415,unsorted_card,8,0,8,0,1,,,,,,,,,,,,,,,,,,,,,,,,,,,,,,,,,,,,,,,,,,,,,,,,,,,,,,,,,,,,,,,,,,,,,,,,,,,,,,,,,
,,,,,,,,,,0001479934,2020-10-12_17h40.07.462,swahili,2020.2.4,MacIntel,60,,,,,,,,,,0.386644345,0.027008929,1,0,0,0.91604,test_pile,9,0,9,0,1,YEAST - HAMIRA,,,,,,,,,,,,,,,,,,,,,,,,,,,,,,,,,,,,,,,,,,,,,,,,,,,,,,,,,,,,,,,,,,,,,,,,,,,,,,,,
,,,,,,,,,,0001479934,2020-10-12_17h40.07.462,swahili,2020.2.4,MacIntel,60,,,,,,,,,,-0.205403646,0.02593006,1,0,0,0.31596,unsorted_card,10,0,10,0,1,,,,,,,,,,,,,,,,,,,,,,,,,,,,,,,,,,,,,,,,,,,,,,,,,,,,,,,,,,,,,,,,,,,,,,,,,,,,,,,,,
,,,,,,,,,,0001479934,2020-10-12_17h40.07.462,swahili,2020.2.4,MacIntel,60,,,,,,,,,,0.38219401,-0.002998512,1,0,0,1.1164,test_pile,11,0,11,0,1,BLAME - LAWAMA,,,,,,,,,,,,,,,,,,,,,,,,,,,,,,,,,,,,,,,,,,,,,,,,,,,,,,,,,,,,,,,,,,,,,,,,,,,,,,,,
,,,,,,,,,,0001479934,2020-10-12_17h40.07.462,swahili,2020.2.4,MacIntel,60,,,,,,,,,,-0.353706287,0.054441964,1,0,0,0.26561,unsorted_card,12,0,12,0,1,,,,,,,,,,,,,,,,,,,,,,,,,,,,,,,,,,,,,,,,,,,,,,,,,,,,,,,,,,,,,,,,,,,,,,,,,,,,,,,,,
,,,,,,,,,,0001479934,2020-10-12_17h40.07.462,swahili,2020.2.4,MacIntel,60,,,,,,,,,,0.348958333,-0.040260417,1,0,0,1.28273,test_pile,13,0,13,0,1,OATH - YAMINI,,,,,,,,,,,,,,,,,,,,,,,,,,,,,,,,,,,,,,,,,,,,,,,,,,,,,,,,,,,,,,,,,,,,,,,,,,,,,,,,
,,,,,,,,,,0001479934,2020-10-12_17h40.07.462,swahili,2020.2.4,MacIntel,60,,,,,,,,,,-0.119759115,0.010602679,1,0,0,0.315985,unsorted_card,14,0,14,0,1,,,,,,,,,,,,,,,,,,,,,,,,,,,,,,,,,,,,,,,,,,,,,,,,,,,,,,,,,,,,,,,,,,,,,,,,,,,,,,,,,
,,,,,,,,,,0001479934,2020-10-12_17h40.07.462,swahili,2020.2.4,MacIntel,60,,,,,,,,,,0.382426525,0.399196429,1,0,0,1.331175,study_pile,15,0,15,0,1,CORN - NAFAKA,,,,,,,,,,,,,,,,,,,,,,,,,,,,,,,,,,,,,,,,,,,,,,,,,,,,,,,,,,,,,,,,,,,,,,,,,,,,,,,,
,,,,,,,,,,0001479934,2020-10-12_17h40.07.462,swahili,2020.2.4,MacIntel,60,,,,,,,,,,-0.136709449,-0.031220238,1,0,0,0.43354,unsorted_card,16,0,16,0,1,,,,,,,,,,,,,,,,,,,,,,,,,,,,,,,,,,,,,,,,,,,,,,,,,,,,,,,,,,,,,,,,,,,,,,,,,,,,,,,,,
,,,,,,,,,,0001479934,2020-10-12_17h40.07.462,swahili,2020.2.4,MacIntel,60,,,,,,,,,,0.403864397,0.42203869,1,0,0,0.81513,study_pile,17,0,17,0,1,POEM - UTENZI,,,,,,,,,,,,,,,,,,,,,,,,,,,,,,,,,,,,,,,,,,,,,,,,,,,,,,,,,,,,,,,,,,,,,,,,,,,,,,,,
,,,,,,,,,,0001479934,2020-10-12_17h40.07.462,swahili,2020.2.4,MacIntel,60,,,,,,,,,,-0.190578497,-0.000327381,1,0,0,0.348765,unsorted_card,18,0,18,0,1,,,,,,,,,,,,,,,,,,,,,,,,,,,,,,,,,,,,,,,,,,,,,,,,,,,,,,,,,,,,,,,,,,,,,,,,,,,,,,,,,
,,,,,,,,,,0001479934,2020-10-12_17h40.07.462,swahili,2020.2.4,MacIntel,60,,,,,,,,,,0.397409784,-0.004806548,1,0,0,2.01673,test_pile,19,0,19,0,1,TAILOR - MSHONI,,,,,,,,,,,,,,,,,,,,,,,,,,,,,,,,,,,,,,,,,,,,,,,,,,,,,,,,,,,,,,,,,,,,,,,,,,,,,,,,
,,,,,,,,,,0001479934,2020-10-12_17h40.07.462,swahili,2020.2.4,MacIntel,60,,,,,,,,,,-0.179622396,-0.023199405,1,0,0,0.33244,unsorted_card,20,0,20,0,1,,,,,,,,,,,,,,,,,,,,,,,,,,,,,,,,,,,,,,,,,,,,,,,,,,,,,,,,,,,,,,,,,,,,,,,,,,,,,,,,,
,,,,,,,,,,0001479934,2020-10-12_17h40.07.462,swahili,2020.2.4,MacIntel,60,,,,,,,,,,0.41124907,0.022269345,1,0,0,0.94915,test_pile,21,0,21,0,1,CHEESE - JIBINI,,,,,,,,,,,,,,,,,,,,,,,,,,,,,,,,,,,,,,,,,,,,,,,,,,,,,,,,,,,,,,,,,,,,,,,,,,,,,,,,
,,,,,,,,,,0001479934,2020-10-12_17h40.07.462,swahili,2020.2.4,MacIntel,60,,,,,,,,,,-0.228231957,-0.013950893,1,0,0,0.415755,unsorted_card,22,0,22,0,1,,,,,,,,,,,,,,,,,,,,,,,,,,,,,,,,,,,,,,,,,,,,,,,,,,,,,,,,,,,,,,,,,,,,,,,,,,,,,,,,,
,,,,,,,,,,0001479934,2020-10-12_17h40.07.462,swahili,2020.2.4,MacIntel,60,,,,,,,,,,0.402046131,0.402321429,1,0,0,1.38183,study_pile,23,0,23,0,1,GRAPES - ZABIBU,,,,,,,,,,,,,,,,,,,,,,,,,,,,,,,,,,,,,,,,,,,,,,,,,,,,,,,,,,,,,,,,,,,,,,,,,,,,,,,,
,,,,,,,,,,0001479934,2020-10-12_17h40.07.462,swahili,2020.2.4,MacIntel,60,,,,,,,,,,-0.126046317,-0.034419643,1,0,0,0.399315,unsorted_card,24,0,24,0,1,,,,,,,,,,,,,,,,,,,,,,,,,,,,,,,,,,,,,,,,,,,,,,,,,,,,,,,,,,,,,,,,,,,,,,,,,,,,,,,,,
,,,,,,,,,,0001479934,2020-10-12_17h40.07.462,swahili,2020.2.4,MacIntel,60,,,,,,,,,,0.361621094,0.452909226,1,0,0,1.04881,study_pile,25,0,25,0,1,GRAVE - KABURI,,,,,,,,,,,,,,,,,,,,,,,,,,,,,,,,,,,,,,,,,,,,,,,,,,,,,,,,,,,,,,,,,,,,,,,,,,,,,,,,
,,,,,,,,,,0001479934,2020-10-12_17h40.07.462,swahili,2020.2.4,MacIntel,60,,,,,,,,,,-0.168698847,0.043244048,1,0,0,0.348665,unsorted_card,26,0,26,0,1,,,,,,,,,,,,,,,,,,,,,,,,,,,,,,,,,,,,,,,,,,,,,,,,,,,,,,,,,,,,,,,,,,,,,,,,,,,,,,,,,
,,,,,,,,,,0001479934,2020-10-12_17h40.07.462,swahili,2020.2.4,MacIntel,60,,,,,,,,,,0.325637091,-0.039747024,1,0,0,1.18255,test_pile,27,0,27,0,1,MANURE - SAMADI,,,,,,,,,,,,,,,,,,,,,,,,,,,,,,,,,,,,,,,,,,,,,,,,,,,,,,,,,,,,,,,,,,,,,,,,,,,,,,,,
,,,,,,,,,,0001479934,2020-10-12_17h40.07.462,swahili,2020.2.4,MacIntel,60,,,,,,,,,,-0.230101376,0.033467262,1,0,0,0.33248,unsorted_card,28,0,28,0,1,,,,,,,,,,,,,,,,,,,,,,,,,,,,,,,,,,,,,,,,,,,,,,,,,,,,,,,,,,,,,,,,,,,,,,,,,,,,,,,,,
,,,,,,,,,,0001479934,2020-10-12_17h40.07.462,swahili,2020.2.4,MacIntel,60,,,,,,,,,,0.394401042,0.387485119,1,0,0,0.99945,study_pile,29,0,29,0,1,AGENT - WAKILI,,,,,,,,,,,,,,,,,,,,,,,,,,,,,,,,,,,,,,,,,,,,,,,,,,,,,,,,,,,,,,,,,,,,,,,,,,,,,,,,
,,,,,,,,,,0001479934,2020-10-12_17h40.07.462,swahili,2020.2.4,MacIntel,60,,,,,,,,,,-0.094308036,-0.092589286,1,0,0,0.41685,unsorted_card,30,0,30,0,1,,,,,,,,,,,,,,,,,,,,,,,,,,,,,,,,,,,,,,,,,,,,,,,,,,,,,,,,,,,,,,,,,,,,,,,,,,,,,,,,,
,,,,,,,,,,0001479934,2020-10-12_17h40.07.462,swahili,2020.2.4,MacIntel,60,,,,,,,,,,0.436179315,0.430639881,1,0,0,1.849945,study_pile,31,0,31,0,1,BRIBE - RUSHWA,,,,,,,,,,,,,,,,,,,,,,,,,,,,,,,,,,,,,,,,,,,,,,,,,,,,,,,,,,,,,,,,,,,,,,,,,,,,,,,,
,,,,,,,,,,0001479934,2020-10-12_17h40.07.462,swahili,2020.2.4,MacIntel,60,,,,,,,,,,-0.201143973,0.090989583,1,0,0,0.365555,unsorted_card,32,0,32,0,1,,,,,,,,,,,,,,,,,,,,,,,,,,,,,,,,,,,,,,,,,,,,,,,,,,,,,,,,,,,,,,,,,,,,,,,,,,,,,,,,,
,,,,,,,,,,0001479934,2020-10-12_17h40.07.462,swahili,2020.2.4,MacIntel,60,,,,,,,,,,0.374804688,-0.060997024,1,0,0,1.51496,test_pile,33,0,33,0,1,ORPHAN - YATIMA,,,,,,,,,,,,,,,,,,,,,,,,,,,,,,,,,,,,,,,,,,,,,,,,,,,,,,,,,,,,,,,,,,,,,,,,,,,,,,,,
,,,,,,,,,,0001479934,2020-10-12_17h40.07.462,swahili,2020.2.4,MacIntel,60,,,,,,,,,,-0.183398438,0.007157738,1,0,0,0.34933,unsorted_card,34,0,34,0,1,,,,,,,,,,,,,,,,,,,,,,,,,,,,,,,,,,,,,,,,,,,,,,,,,,,,,,,,,,,,,,,,,,,,,,,,,,,,,,,,,
,,,,,,,,,,0001479934,2020-10-12_17h40.07.462,swahili,2020.2.4,MacIntel,60,,,,,,,,,,0.367852493,0.407425595,1,0,0,1.06596,study_pile,35,0,35,0,1,DIVORCE - TALAKA,,,,,,,,,,,,,,,,,,,,,,,,,,,,,,,,,,,,,,,,,,,,,,,,,,,,,,,,,,,,,,,,,,,,,,,,,,,,,,,,
,,,,,,,,,,0001479934,2020-10-12_17h40.07.462,swahili,2020.2.4,MacIntel,60,,,,,,,,,,-0.161421131,0.071450893,1,0,0,0.349065,unsorted_card,36,0,36,0,1,,,,,,,,,,,,,,,,,,,,,,,,,,,,,,,,,,,,,,,,,,,,,,,,,,,,,,,,,,,,,,,,,,,,,,,,,,,,,,,,,
,,,,,,,,,,0001479934,2020-10-12_17h40.07.462,swahili,2020.2.4,MacIntel,60,,,,,,,,,,0.33094308,0.382738095,1,0,0,1.282785,study_pile,37,0,37,0,1,BOAT - MASHUA,,,,,,,,,,,,,,,,,,,,,,,,,,,,,,,,,,,,,,,,,,,,,,,,,,,,,,,,,,,,,,,,,,,,,,,,,,,,,,,,
,,,,,,,,,,0001479934,2020-10-12_17h40.07.462,swahili,2020.2.4,MacIntel,60,,,,,,,,,,-0.250088356,-0.056688988,1,0,0,0.365135,unsorted_card,38,0,38,0,1,,,,,,,,,,,,,,,,,,,,,,,,,,,,,,,,,,,,,,,,,,,,,,,,,,,,,,,,,,,,,,,,,,,,,,,,,,,,,,,,,
,,,,,,,,,,0001479934,2020-10-12_17h40.07.462,swahili,2020.2.4,MacIntel,60,,,,,,,,,,0.35281808,0.050677083,1,0,0,1.1324,test_pile,39,0,39,0,1,TREASURE - DAFINA,,,,,,,,,,,,,,,,,,,,,,,,,,,,,,,,,,,,,,,,,,,,,,,,,,,,,,,,,,,,,,,,,,,,,,,,,,,,,,,,
,,,,,,,,,,0001479934,2020-10-12_17h40.07.462,swahili,2020.2.4,MacIntel,60,,,,,,,,,,,,,,,,,,,,,,,0.495493862,-0.092924107,1,0,0,1.2323,test_first,,,,,0,0,0,0,1,,,,,,,,,,,,,,,,,,,,,,,,,,,,,,,,,,,,,,,,,,,,,,,,,,,,,,,,,,,,,,,,
,,,,,,,,,,0001479934,2020-10-12_17h40.07.462,swahili,2020.2.4,MacIntel,60,,,,,,,,,,,,,,,,,,,,,,,,,,,,,,,,,,,,,,,return,,,,,,,,,,,1.01671,2.04748,0.497888765,-0.092269345,1,0,0,0.467195,yes,TREASURE,F,incorrect,0,0,0,0,1,,,,,,,,,,,,,,,,,,,,,,,,,,,,,,,,,,,,
,,,,,,,,,,0001479934,2020-10-12_17h40.07.462,swahili,2020.2.4,MacIntel,60,,,,,,,,,,,,,,,,,,,,,,,,,,,,,,,,,,,,,,,,,,,,,,,,,,,4.866445,0.488811384,-0.090223214,0,0,1,0.635105,yes,CHEESE,TIHINI,incorrect,1,0,1,0,1,,,,,,,,,,,,,,,,,,,,,,,,,,,,,,,,,,,,
,,,,,,,,,,0001479934,2020-10-12_17h40.07.462,swahili,2020.2.4,MacIntel,60,,,,,,,,,,,,,,,,,,,,,,,,,,,,,,,,,,,,,,,,,,,,,,,,,,,3.214425,0.536276972,0.05344494,1,0,1,0.466765,yes,PLATE,SABURA,incorrect,2,0,2,0,1,,,,,,,,,,,,,,,,,,,,,,,,,,,,,,,,,,,,
,,,,,,,,,,0001479934,2020-10-12_17h40.07.462,swahili,2020.2.4,MacIntel,60,,,,,,,,,,,,,,,,,,,,,,,,,,,,,,,,,,,,,,,,,,,,,,,,,,,3.666245,0.536276972,0.05344494,1,0,1,0.76674,yes,TAILOR,MISUBI,incorrect,3,0,3,0,1,,,,,,,,,,,,,,,,,,,,,,,,,,,,,,,,,,,,
,,,,,,,,,,0001479934,2020-10-12_17h40.07.462,swahili,2020.2.4,MacIntel,60,,,,,,,,,,,,,,,,,,,,,,,,,,,,,,,,,,,,,,,,,,,,,,,,,,,2.13218,0.536170015,0.052462798,1,0,1,0.53251,yes,MANURE,JF,incorrect,4,0,4,0,1,,,,,,,,,,,,,,,,,,,,,,,,,,,,,,,,,,,,
,,,,,,,,,,0001479934,2020-10-12_17h40.07.462,swahili,2020.2.4,MacIntel,60,,,,,,,,,,,,,,,,,,,,,,,,,,,,,,,,,,,,,,,,,,,,,,,,,,,2.248445,0.556547619,0.051056548,1,0,1,0.566555,yes,BLAME,J,incorrect,5,0,5,0,1,,,,,,,,,,,,,,,,,,,,,,,,,,,,,,,,,,,,
,,,,,,,,,,0001479934,2020-10-12_17h40.07.462,swahili,2020.2.4,MacIntel,60,,,,,,,,,,,,,,,,,,,,,,,,,,,,,,,,,,,,,,,,,,,,,,,,,,,3.81574,0.559026228,0.051264881,1,0,1,0.83222,yes,BULL,J,incorrect,6,0,6,0,1,,,,,,,,,,,,,,,,,,,,,,,,,,,,,,,,,,,,
,,,,,,,,,,0001479934,2020-10-12_17h40.07.462,swahili,2020.2.4,MacIntel,60,,,,,,,,,,,,,,,,,,,,,,,,,,,,,,,,,,,,,,,,,,,,,,,,,,,1.632105,0.469252232,0.034895833,1,0,1,1.165395,yes,PARROT,H,incorrect,7,0,7,0,1,,,,,,,,,,,,,,,,,,,,,,,,,,,,,,,,,,,,
,,,,,,,,,,0001479934,2020-10-12_17h40.07.462,swahili,2020.2.4,MacIntel,60,,,,,,,,,,,,,,,,,,,,,,,,,,,,,,,,,,,,,,,,,,,,,,,,,,,3.464625,0.43796503,0.024025298,1,0,1,0.467835,yes,YEAST,YAMIRI,incorrect,8,0,8,0,1,,,,,,,,,,,,,,,,,,,,,,,,,,,,,,,,,,,,
,,,,,,,,,,0001479934,2020-10-12_17h40.07.462,swahili,2020.2.4,MacIntel,60,,,,,,,,,,,,,,,,,,,,,,,,,,,,,,,,,,,,,,,,,,,,,,,,,,,3.4801,0.38327753,0.211845238,1,0,1,0.46588,yes,ORPHAN,YAMIRA,incorrect,9,0,9,0,1,,,,,,,,,,,,,,,,,,,,,,,,,,,,,,,,,,,,
,,,,,,,,,,0001479934,2020-10-12_17h40.07.462,swahili,2020.2.4,MacIntel,60,,,,,,,,,,,,,,,,,,,,,,,,,,,,,,,,,,,,,,,,,,,,,,,,,,,5.38112,0.388313802,0.012790179,1,0,1,0.450495,yes,OATH,FF,incorrect,10,0,10,0,1,,,,,,,,,,,,,,,,,,,,,,,,,,,,,,,,,,,,
,,,,,,,,,,0001479934,2020-10-12_17h40.07.462,swahili,2020.2.4,MacIntel,60,,,,,,,,,,,,,,,,,,,,,,,,,,,,,,,,,,,,,,,,0,0,0,0,1,,,,,,,,,,,,,,,,,,,,,,,,,,,,,,,,,,,,,,,,,,,,,,,,,,,,,,,,,,
,,,,,,,,,,0001479934,2020-10-12_17h40.07.462,swahili,2020.2.4,MacIntel,60,,,,,,,,,,,,,,,,,,,,,,DIVORCE - TALAKA,,,,,,,,return,0.834165,return,2.15054,0,0,0,0,1,,,,,,,,,,,,,,,,,,,,,,,,,,,,,,,,,,,,,,,,,,,,,,,,,,,,,,,,,,,,,,,,
,,,,,,,,,,0001479934,2020-10-12_17h40.07.462,swahili,2020.2.4,MacIntel,60,,,,,,,,,,,,,,,,,,,,,,BRIBE - RUSHWA,,,,,,,,,,return,1.01801,1,0,1,0,1,,,,,,,,,,,,,,,,,,,,,,,,,,,,,,,,,,,,,,,,,,,,,,,,,,,,,,,,,,,,,,,,
,,,,,,,,,,0001479934,2020-10-12_17h40.07.462,swahili,2020.2.4,MacIntel,60,,,,,,,,,,,,,,,,,,,,,,GRAVE - KABURI,,,,,,,,,,return,0.700115,2,0,2,0,1,,,,,,,,,,,,,,,,,,,,,,,,,,,,,,,,,,,,,,,,,,,,,,,,,,,,,,,,,,,,,,,,
,,,,,,,,,,0001479934,2020-10-12_17h40.07.462,swahili,2020.2.4,MacIntel,60,,,,,,,,,,,,,,,,,,,,,,GRAPES - ZABIBU,,,,,,,,,,return,0.599755,3,0,3,0,1,,,,,,,,,,,,,,,,,,,,,,,,,,,,,,,,,,,,,,,,,,,,,,,,,,,,,,,,,,,,,,,,
,,,,,,,,,,0001479934,2020-10-12_17h40.07.462,swahili,2020.2.4,MacIntel,60,,,,,,,,,,,,,,,,,,,,,,BOAT - MASHUA,,,,,,,,,,return,0.481065,4,0,4,0,1,,,,,,,,,,,,,,,,,,,,,,,,,,,,,,,,,,,,,,,,,,,,,,,,,,,,,,,,,,,,,,,,
,,,,,,,,,,0001479934,2020-10-12_17h40.07.462,swahili,2020.2.4,MacIntel,60,,,,,,,,,,,,,,,,,,,,,,MERCHANT - TAJIRI,,,,,,,,,,return,0.48435,5,0,5,0,1,,,,,,,,,,,,,,,,,,,,,,,,,,,,,,,,,,,,,,,,,,,,,,,,,,,,,,,,,,,,,,,,
,,,,,,,,,,0001479934,2020-10-12_17h40.07.462,swahili,2020.2.4,MacIntel,60,,,,,,,,,,,,,,,,,,,,,,CORN - NAFAKA,,,,,,,,,,return,0.61611,6,0,6,0,1,,,,,,,,,,,,,,,,,,,,,,,,,,,,,,,,,,,,,,,,,,,,,,,,,,,,,,,,,,,,,,,,
,,,,,,,,,,0001479934,2020-10-12_17h40.07.462,swahili,2020.2.4,MacIntel,60,,,,,,,,,,,,,,,,,,,,,,POEM - UTENZI,,,,,,,,,,return,0.88359,7,0,7,0,1,,,,,,,,,,,,,,,,,,,,,,,,,,,,,,,,,,,,,,,,,,,,,,,,,,,,,,,,,,,,,,,,
,,,,,,,,,,0001479934,2020-10-12_17h40.07.462,swahili,2020.2.4,MacIntel,60,,,,,,,,,,,,,,,,,,,,,,AGENT - WAKILI,,,,,,,,,,return,0.78277,8,0,8,0,1,,,,,,,,,,,,,,,,,,,,,,,,,,,,,,,,,,,,,,,,,,,,,,,,,,,,,,,,,,,,,,,,
,,,,,,,,,,0001479934,2020-10-12_17h40.07.462,swahili,2020.2.4,MacIntel,60,,,,,,,,,,,,,,,,,,,,,,,,,,,,,,,,,,,,,,,,1,0,1,0,1,,,,,,,,,,,,,,,,,,,,,,,,,,,,,,,,,,,,,,,,,,,,,,,,,,,,,,,,,,
,,,,,,,,,,0001479934,2020-10-12_17h40.07.462,swahili,2020.2.4,MacIntel,60,,,,,,,,,,,,,,,,,,,,,,,,,,,,,,,,,,,,,,,,,,,,,4,0,4,0,1,,,,,,,,,,,,,,,,,,,,,,,,,,,,,,,,,,,,,,,,,,,,,,,,,,,,,
,,,,,,,,,,0001479934,2020-10-12_17h40.07.462,swahili,2020.2.4,MacIntel,60,,,,,,,,,,-0.233677455,0.060104167,1,0,1,1.69343,unsorted_card,0,0,0,0,1,,,,,,,,,,,,,,,,,,,,,,,,,,,,,,,,,,,,,,,,,,,,,,,,,,,,,,,,,,,,,,,,,,,,,,,,,,,,,,,,,
,,,,,,,,,,0001479934,2020-10-12_17h40.07.462,swahili,2020.2.4,MacIntel,60,,,,,,,,,,-0.233165923,0.059449405,0,0,1,0.09885,unsorted_card,1,0,1,0,1,MERCHANT - TAJIRI,,,,,,,,,,,,,,,,,,,,,,,,,,,,,,,,,,,,,,,,,,,,,,,,,,,,,,,,,,,,,,,,,,,,,,,,,,,,,,,,
,,,,,,,,,,0001479934,2020-10-12_17h40.07.462,swahili,2020.2.4,MacIntel,60,,,,,,,,,,0.402720424,-0.015729167,1,0,1,2.63152,test_pile,2,0,2,0,1,MERCHANT - TAJIRI,,,,,,,,,,,,,,,,,,,,,,,,,,,,,,,,,,,,,,,,,,,,,,,,,,,,,,,,,,,,,,,,,,,,,,,,,,,,,,,,
,,,,,,,,,,0001479934,2020-10-12_17h40.07.462,swahili,2020.2.4,MacIntel,60,,,,,,,,,,0.399893043,-0.015729167,0,0,1,0.083555,test_pile,3,0,3,0,1,,,,,,,,,,,,,,,,,,,,,,,,,,,,,,,,,,,,,,,,,,,,,,,,,,,,,,,,,,,,,,,,,,,,,,,,,,,,,,,,,
,,,,,,,,,,0001479934,2020-10-12_17h40.07.462,swahili,2020.2.4,MacIntel,60,,,,,,,,,,-0.191271391,0.02797619,1,0,1,0.38141,unsorted_card,4,0,4,0,1,,,,,,,,,,,,,,,,,,,,,,,,,,,,,,,,,,,,,,,,,,,,,,,,,,,,,,,,,,,,,,,,,,,,,,,,,,,,,,,,,
,,,,,,,,,,0001479934,2020-10-12_17h40.07.462,swahili,2020.2.4,MacIntel,60,,,,,,,,,,-0.191169085,0.02797619,0,0,1,0.0841,unsorted_card,5,0,5,0,1,PARROT - KASUKU,,,,,,,,,,,,,,,,,,,,,,,,,,,,,,,,,,,,,,,,,,,,,,,,,,,,,,,,,,,,,,,,,,,,,,,,,,,,,,,,
,,,,,,,,,,0001479934,2020-10-12_17h40.07.462,swahili,2020.2.4,MacIntel,60,,,,,,,,,,0.369828869,0.015431548,1,0,1,0.89901,test_pile,6,0,6,0,1,PARROT - KASUKU,,,,,,,,,,,,,,,,,,,,,,,,,,,,,,,,,,,,,,,,,,,,,,,,,,,,,,,,,,,,,,,,,,,,,,,,,,,,,,,,
,,,,,,,,,,0001479934,2020-10-12_17h40.07.462,swahili,2020.2.4,MacIntel,60,,,,,,,,,,0.352273996,0.012752976,0,0,1,0.065665,test_pile,7,0,7,0,1,,,,,,,,,,,,,,,,,,,,,,,,,,,,,,,,,,,,,,,,,,,,,,,,,,,,,,,,,,,,,,,,,,,,,,,,,,,,,,,,,
,,,,,,,,,,0001479934,2020-10-12_17h40.07.462,swahili,2020.2.4,MacIntel,60,,,,,,,,,,-0.262899926,0.01344494,1,0,1,0.299765,unsorted_card,8,0,8,0,1,,,,,,,,,,,,,,,,,,,,,,,,,,,,,,,,,,,,,,,,,,,,,,,,,,,,,,,,,,,,,,,,,,,,,,,,,,,,,,,,,
,,,,,,,,,,0001479934,2020-10-12_17h40.07.462,swahili,2020.2.4,MacIntel,60,,,,,,,,,,-0.179208519,0.00140625,0,0,1,0.082595,unsorted_card,9,0,9,0,1,BULL - FAHILI,,,,,,,,,,,,,,,,,,,,,,,,,,,,,,,,,,,,,,,,,,,,,,,,,,,,,,,,,,,,,,,,,,,,,,,,,,,,,,,,
,,,,,,,,,,0001479934,2020-10-12_17h40.07.462,swahili,2020.2.4,MacIntel,60,,,,,,,,,,0.371233259,-0.029769345,1,0,1,0.315205,test_pile,10,0,10,0,1,BULL - FAHILI,,,,,,,,,,,,,,,,,,,,,,,,,,,,,,,,,,,,,,,,,,,,,,,,,,,,,,,,,,,,,,,,,,,,,,,,,,,,,,,,
,,,,,,,,,,0001479934,2020-10-12_17h40.07.462,swahili,2020.2.4,MacIntel,60,,,,,,,,,,0.362248884,-0.030357143,0,0,1,0.09843,test_pile,11,0,11,0,1,,,,,,,,,,,,,,,,,,,,,,,,,,,,,,,,,,,,,,,,,,,,,,,,,,,,,,,,,,,,,,,,,,,,,,,,,,,,,,,,,
,,,,,,,,,,0001479934,2020-10-12_17h40.07.462,swahili,2020.2.4,MacIntel,60,,,,,,,,,,-0.339462426,-0.014032738,1,0,1,0.266675,unsorted_card,12,0,12,0,1,,,,,,,,,,,,,,,,,,,,,,,,,,,,,,,,,,,,,,,,,,,,,,,,,,,,,,,,,,,,,,,,,,,,,,,,,,,,,,,,,
,,,,,,,,,,0001479934,2020-10-12_17h40.07.462,swahili,2020.2.4,MacIntel,60,,,,,,,,,,-0.283026414,-0.02250744,0,0,1,0.08115,unsorted_card,13,0,13,0,1,PLATE - SAHANI,,,,,,,,,,,,,,,,,,,,,,,,,,,,,,,,,,,,,,,,,,,,,,,,,,,,,,,,,,,,,,,,,,,,,,,,,,,,,,,,
,,,,,,,,,,0001479934,2020-10-12_17h40.07.462,swahili,2020.2.4,MacIntel,60,,,,,,,,,,0.419470796,-0.054345238,1,0,1,0.3341,test_pile,14,0,14,0,1,PLATE - SAHANI,,,,,,,,,,,,,,,,,,,,,,,,,,,,,,,,,,,,,,,,,,,,,,,,,,,,,,,,,,,,,,,,,,,,,,,,,,,,,,,,
,,,,,,,,,,0001479934,2020-10-12_17h40.07.462,swahili,2020.2.4,MacIntel,60,,,,,,,,,,0.372860863,-0.059255952,0,0,1,0.08274,test_pile,15,0,15,0,1,,,,,,,,,,,,,,,,,,,,,,,,,,,,,,,,,,,,,,,,,,,,,,,,,,,,,,,,,,,,,,,,,,,,,,,,,,,,,,,,,
,,,,,,,,,,0001479934,2020-10-12_17h40.07.462,swahili,2020.2.4,MacIntel,60,,,,,,,,,,-0.257845052,-0.008816964,1,0,1,0.264895,unsorted_card,16,0,16,0,1,,,,,,,,,,,,,,,,,,,,,,,,,,,,,,,,,,,,,,,,,,,,,,,,,,,,,,,,,,,,,,,,,,,,,,,,,,,,,,,,,
,,,,,,,,,,0001479934,2020-10-12_17h40.07.462,swahili,2020.2.4,MacIntel,60,,,,,,,,,,-0.180189732,-0.021614583,0,0,1,0.099365,unsorted_card,17,0,17,0,1,YEAST - HAMIRA,,,,,,,,,,,,,,,,,,,,,,,,,,,,,,,,,,,,,,,,,,,,,,,,,,,,,,,,,,,,,,,,,,,,,,,,,,,,,,,,
,,,,,,,,,,0001479934,2020-10-12_17h40.07.462,swahili,2020.2.4,MacIntel,60,,,,,,,,,,0.523883929,-0.086733631,1,0,1,0.2831,test_pile,18,0,18,0,1,YEAST - HAMIRA,,,,,,,,,,,,,,,,,,,,,,,,,,,,,,,,,,,,,,,,,,,,,,,,,,,,,,,,,,,,,,,,,,,,,,,,,,,,,,,,
,,,,,,,,,,0001479934,2020-10-12_17h40.07.462,swahili,2020.2.4,MacIntel,60,,,,,,,,,,0.449158296,-0.078950893,0,0,1,0.065955,test_pile,19,0,19,0,1,,,,,,,,,,,,,,,,,,,,,,,,,,,,,,,,,,,,,,,,,,,,,,,,,,,,,,,,,,,,,,,,,,,,,,,,,,,,,,,,,
,,,,,,,,,,0001479934,2020-10-12_17h40.07.462,swahili,2020.2.4,MacIntel,60,,,,,,,,,,-0.432207961,0.023303571,1,0,1,0.266625,unsorted_card,20,0,20,0,1,,,,,,,,,,,,,,,,,,,,,,,,,,,,,,,,,,,,,,,,,,,,,,,,,,,,,,,,,,,,,,,,,,,,,,,,,,,,,,,,,
,,,,,,,,,,0001479934,2020-10-12_17h40.07.462,swahili,2020.2.4,MacIntel,60,,,,,,,,,,-0.282235863,0.004479167,0,0,1,0.081385,unsorted_card,21,0,21,0,1,BLAME - LAWAMA,,,,,,,,,,,,,,,,,,,,,,,,,,,,,,,,,,,,,,,,,,,,,,,,,,,,,,,,,,,,,,,,,,,,,,,,,,,,,,,,
,,,,,,,,,,0001479934,2020-10-12_17h40.07.462,swahili,2020.2.4,MacIntel,60,,,,,,,,,,0.367564174,-0.006808036,1,0,1,0.249605,test_pile,22,0,22,0,1,BLAME - LAWAMA,,,,,,,,,,,,,,,,,,,,,,,,,,,,,,,,,,,,,,,,,,,,,,,,,,,,,,,,,,,,,,,,,,,,,,,,,,,,,,,,
,,,,,,,,,,0001479934,2020-10-12_17h40.07.462,swahili,2020.2.4,MacIntel,60,,,,,,,,,,0.379162016,-0.014709821,0,0,1,0.082315,test_pile,23,0,23,0,1,,,,,,,,,,,,,,,,,,,,,,,,,,,,,,,,,,,,,,,,,,,,,,,,,,,,,,,,,,,,,,,,,,,,,,,,,,,,,,,,,
,,,,,,,,,,0001479934,2020-10-12_17h40.07.462,swahili,2020.2.4,MacIntel,60,,,,,,,,,,-0.307724144,0.008883929,1,0,1,0.36571,unsorted_card,24,0,24,0,1,,,,,,,,,,,,,,,,,,,,,,,,,,,,,,,,,,,,,,,,,,,,,,,,,,,,,,,,,,,,,,,,,,,,,,,,,,,,,,,,,
,,,,,,,,,,0001479934,2020-10-12_17h40.07.462,swahili,2020.2.4,MacIntel,60,,,,,,,,,,-0.230254836,-0.004717262,0,0,1,0.065615,unsorted_card,25,0,25,0,1,OATH - YAMINI,,,,,,,,,,,,,,,,,,,,,,,,,,,,,,,,,,,,,,,,,,,,,,,,,,,,,,,,,,,,,,,,,,,,,,,,,,,,,,,,
,,,,,,,,,,0001479934,2020-10-12_17h40.07.462,swahili,2020.2.4,MacIntel,60,,,,,,,,,,0.427627418,-0.024441964,1,0,1,0.316925,test_pile,26,0,26,0,1,OATH - YAMINI,,,,,,,,,,,,,,,,,,,,,,,,,,,,,,,,,,,,,,,,,,,,,,,,,,,,,,,,,,,,,,,,,,,,,,,,,,,,,,,,
,,,,,,,,,,0001479934,2020-10-12_17h40.07.462,swahili,2020.2.4,MacIntel,60,,,,,,,,,,0.405515253,-0.030706845,0,0,1,0.064165,test_pile,27,0,27,0,1,,,,,,,,,,,,,,,,,,,,,,,,,,,,,,,,,,,,,,,,,,,,,,,,,,,,,,,,,,,,,,,,,,,,,,,,,,,,,,,,,
,,,,,,,,,,0001479934,2020-10-12_17h40.07.462,swahili,2020.2.4,MacIntel,60,,,,,,,,,,-0.124125744,-0.016540179,1,0,1,0.23292,unsorted_card,28,0,28,0,1,,,,,,,,,,,,,,,,,,,,,,,,,,,,,,,,,,,,,,,,,,,,,,,,,,,,,,,,,,,,,,,,,,,,,,,,,,,,,,,,,
,,,,,,,,,,0001479934,2020-10-12_17h40.07.462,swahili,2020.2.4,MacIntel,60,,,,,,,,,,-0.112453497,-0.018050595,0,0,1,0.08384,unsorted_card,29,0,29,0,1,CORN - NAFAKA,,,,,,,,,,,,,,,,,,,,,,,,,,,,,,,,,,,,,,,,,,,,,,,,,,,,,,,,,,,,,,,,,,,,,,,,,,,,,,,,
,,,,,,,,,,0001479934,2020-10-12_17h40.07.462,swahili,2020.2.4,MacIntel,60,,,,,,,,,,0.37312593,-0.030141369,1,0,1,0.331365,test_pile,30,0,30,0,1,CORN - NAFAKA,,,,,,,,,,,,,,,,,,,,,,,,,,,,,,,,,,,,,,,,,,,,,,,,,,,,,,,,,,,,,,,,,,,,,,,,,,,,,,,,
,,,,,,,,,,0001479934,2020-10-12_17h40.07.462,swahili,2020.2.4,MacIntel,60,,,,,,,,,,0.363811384,-0.034174107,0,0,1,0.06622,test_pile,31,0,31,0,1,,,,,,,,,,,,,,,,,,,,,,,,,,,,,,,,,,,,,,,,,,,,,,,,,,,,,,,,,,,,,,,,,,,,,,,,,,,,,,,,,
,,,,,,,,,,0001479934,2020-10-12_17h40.07.462,swahili,2020.2.4,MacIntel,60,,,,,,,,,,-0.218233817,0.037083333,1,0,1,0.299215,unsorted_card,32,0,32,0,1,,,,,,,,,,,,,,,,,,,,,,,,,,,,,,,,,,,,,,,,,,,,,,,,,,,,,,,,,,,,,,,,,,,,,,,,,,,,,,,,,
,,,,,,,,,,0001479934,2020-10-12_17h40.07.462,swahili,2020.2.4,MacIntel,60,,,,,,,,,,-0.161490885,0.032916667,0,0,1,0.067215,unsorted_card,33,0,33,0,1,POEM - UTENZI,,,,,,,,,,,,,,,,,,,,,,,,,,,,,,,,,,,,,,,,,,,,,,,,,,,,,,,,,,,,,,,,,,,,,,,,,,,,,,,,
,,,,,,,,,,0001479934,2020-10-12_17h40.07.462,swahili,2020.2.4,MacIntel,60,,,,,,,,,,0.581505766,-0.017373512,1,0,1,0.298585,test_pile,34,0,34,0,1,POEM - UTENZI,,,,,,,,,,,,,,,,,,,,,,,,,,,,,,,,,,,,,,,,,,,,,,,,,,,,,,,,,,,,,,,,,,,,,,,,,,,,,,,,
,,,,,,,,,,0001479934,2020-10-12_17h40.07.462,swahili,2020.2.4,MacIntel,60,,,,,,,,,,0.532798549,-0.022886905,0,0,1,0.065715,test_pile,35,0,35,0,1,,,,,,,,,,,,,,,,,,,,,,,,,,,,,,,,,,,,,,,,,,,,,,,,,,,,,,,,,,,,,,,,,,,,,,,,,,,,,,,,,
,,,,,,,,,,0001479934,2020-10-12_17h40.07.462,swahili,2020.2.4,MacIntel,60,,,,,,,,,,-0.252078683,-0.002537202,1,0,1,0.283095,unsorted_card,36,0,36,0,1,,,,,,,,,,,,,,,,,,,,,,,,,,,,,,,,,,,,,,,,,,,,,,,,,,,,,,,,,,,,,,,,,,,,,,,,,,,,,,,,,
,,,,,,,,,,0001479934,2020-10-12_17h40.07.462,swahili,2020.2.4,MacIntel,60,,,,,,,,,,-0.198079427,-0.009136905,0,0,1,0.06547,unsorted_card,37,0,37,0,1,TAILOR - MSHONI,,,,,,,,,,,,,,,,,,,,,,,,,,,,,,,,,,,,,,,,,,,,,,,,,,,,,,,,,,,,,,,,,,,,,,,,,,,,,,,,
,,,,,,,,,,0001479934,2020-10-12_17h40.07.462,swahili,2020.2.4,MacIntel,60,,,,,,,,,,0.41046782,-0.056421131,1,0,1,0.34927,test_pile,38,0,38,0,1,TAILOR - MSHONI,,,,,,,,,,,,,,,,,,,,,,,,,,,,,,,,,,,,,,,,,,,,,,,,,,,,,,,,,,,,,,,,,,,,,,,,,,,,,,,,
,,,,,,,,,,0001479934,2020-10-12_17h40.07.462,swahili,2020.2.4,MacIntel,60,,,,,,,,,,0.361230469,-0.058489583,0,0,1,0.115745,test_pile,39,0,39,0,1,,,,,,,,,,,,,,,,,,,,,,,,,,,,,,,,,,,,,,,,,,,,,,,,,,,,,,,,,,,,,,,,,,,,,,,,,,,,,,,,,
,,,,,,,,,,0001479934,2020-10-12_17h40.07.462,swahili,2020.2.4,MacIntel,60,,,,,,,,,,-0.301074219,0.00735119,1,0,1,0.24926,unsorted_card,40,0,40,0,1,,,,,,,,,,,,,,,,,,,,,,,,,,,,,,,,,,,,,,,,,,,,,,,,,,,,,,,,,,,,,,,,,,,,,,,,,,,,,,,,,
,,,,,,,,,,0001479934,2020-10-12_17h40.07.462,swahili,2020.2.4,MacIntel,60,,,,,,,,,,-0.271828497,0.003697917,0,0,1,0.03286,unsorted_card,41,0,41,0,1,CHEESE - JIBINI,,,,,,,,,,,,,,,,,,,,,,,,,,,,,,,,,,,,,,,,,,,,,,,,,,,,,,,,,,,,,,,,,,,,,,,,,,,,,,,,
,,,,,,,,,,0001479934,2020-10-12_17h40.07.462,swahili,2020.2.4,MacIntel,60,,,,,,,,,,0.427087984,0.000558036,1,0,1,0.299725,test_pile,42,0,42,0,1,CHEESE - JIBINI,,,,,,,,,,,,,,,,,,,,,,,,,,,,,,,,,,,,,,,,,,,,,,,,,,,,,,,,,,,,,,,,,,,,,,,,,,,,,,,,
,,,,,,,,,,0001479934,2020-10-12_17h40.07.462,swahili,2020.2.4,MacIntel,60,,,,,,,,,,0.410811942,-0.005714286,0,0,1,0.081295,test_pile,43,0,43,0,1,,,,,,,,,,,,,,,,,,,,,,,,,,,,,,,,,,,,,,,,,,,,,,,,,,,,,,,,,,,,,,,,,,,,,,,,,,,,,,,,,
,,,,,,,,,,0001479934,2020-10-12_17h40.07.462,swahili,2020.2.4,MacIntel,60,,,,,,,,,,-0.247563244,0.029188988,1,0,1,0.250515,unsorted_card,44,0,44,0,1,,,,,,,,,,,,,,,,,,,,,,,,,,,,,,,,,,,,,,,,,,,,,,,,,,,,,,,,,,,,,,,,,,,,,,,,,,,,,,,,,
,,,,,,,,,,0001479934,2020-10-12_17h40.07.462,swahili,2020.2.4,MacIntel,60,,,,,,,,,,-0.218247768,0.02578125,0,0,1,0.08191,unsorted_card,45,0,45,0,1,GRAPES - ZABIBU,,,,,,,,,,,,,,,,,,,,,,,,,,,,,,,,,,,,,,,,,,,,,,,,,,,,,,,,,,,,,,,,,,,,,,,,,,,,,,,,
,,,,,,,,,,0001479934,2020-10-12_17h40.07.462,swahili,2020.2.4,MacIntel,60,,,,,,,,,,0.291071429,0.030505952,1,0,1,0.30002,test_pile,46,0,46,0,1,GRAPES - ZABIBU,,,,,,,,,,,,,,,,,,,,,,,,,,,,,,,,,,,,,,,,,,,,,,,,,,,,,,,,,,,,,,,,,,,,,,,,,,,,,,,,
,,,,,,,,,,0001479934,2020-10-12_17h40.07.462,swahili,2020.2.4,MacIntel,60,,,,,,,,,,0.466606213,-0.027879464,0,0,1,0.06585,test_pile,47,0,47,0,1,,,,,,,,,,,,,,,,,,,,,,,,,,,,,,,,,,,,,,,,,,,,,,,,,,,,,,,,,,,,,,,,,,,,,,,,,,,,,,,,,
,,,,,,,,,,0001479934,2020-10-12_17h40.07.462,swahili,2020.2.4,MacIntel,60,,,,,,,,,,-0.298088728,0.02655506,1,0,1,0.23423,unsorted_card,48,0,48,0,1,,,,,,,,,,,,,,,,,,,,,,,,,,,,,,,,,,,,,,,,,,,,,,,,,,,,,,,,,,,,,,,,,,,,,,,,,,,,,,,,,
,,,,,,,,,,0001479934,2020-10-12_17h40.07.462,swahili,2020.2.4,MacIntel,60,,,,,,,,,,-0.250265067,0.017254464,0,0,1,0.081725,unsorted_card,49,0,49,0,1,GRAVE - KABURI,,,,,,,,,,,,,,,,,,,,,,,,,,,,,,,,,,,,,,,,,,,,,,,,,,,,,,,,,,,,,,,,,,,,,,,,,,,,,,,,
,,,,,,,,,,0001479934,2020-10-12_17h40.07.462,swahili,2020.2.4,MacIntel,60,,,,,,,,,,0.46219308,0.013266369,1,0,1,0.4482,test_pile,50,0,50,0,1,GRAVE - KABURI,,,,,,,,,,,,,,,,,,,,,,,,,,,,,,,,,,,,,,,,,,,,,,,,,,,,,,,,,,,,,,,,,,,,,,,,,,,,,,,,
,,,,,,,,,,0001479934,2020-10-12_17h40.07.462,swahili,2020.2.4,MacIntel,60,,,,,,,,,,0.435481771,0.010840774,0,0,1,0.08329,test_pile,51,0,51,0,1,,,,,,,,,,,,,,,,,,,,,,,,,,,,,,,,,,,,,,,,,,,,,,,,,,,,,,,,,,,,,,,,,,,,,,,,,,,,,,,,,
,,,,,,,,,,0001479934,2020-10-12_17h40.07.462,swahili,2020.2.4,MacIntel,60,,,,,,,,,,-0.152167039,0.036800595,1,0,1,0.249,unsorted_card,52,0,52,0,1,,,,,,,,,,,,,,,,,,,,,,,,,,,,,,,,,,,,,,,,,,,,,,,,,,,,,,,,,,,,,,,,,,,,,,,,,,,,,,,,,
,,,,,,,,,,0001479934,2020-10-12_17h40.07.462,swahili,2020.2.4,MacIntel,60,,,,,,,,,,-0.132696243,0.038139881,0,0,1,0.09927,unsorted_card,53,0,53,0,1,MANURE - SAMADI,,,,,,,,,,,,,,,,,,,,,,,,,,,,,,,,,,,,,,,,,,,,,,,,,,,,,,,,,,,,,,,,,,,,,,,,,,,,,,,,
,,,,,,,,,,0001479934,2020-10-12_17h40.07.462,swahili,2020.2.4,MacIntel,60,,,,,,,,,,0.567247954,-0.004977679,1,0,1,0.31586,test_pile,54,0,54,0,1,MANURE - SAMADI,,,,,,,,,,,,,,,,,,,,,,,,,,,,,,,,,,,,,,,,,,,,,,,,,,,,,,,,,,,,,,,,,,,,,,,,,,,,,,,,
,,,,,,,,,,0001479934,2020-10-12_17h40.07.462,swahili,2020.2.4,MacIntel,60,,,,,,,,,,0.539020647,-0.008005952,0,0,1,0.04995,test_pile,55,0,55,0,1,,,,,,,,,,,,,,,,,,,,,,,,,,,,,,,,,,,,,,,,,,,,,,,,,,,,,,,,,,,,,,,,,,,,,,,,,,,,,,,,,
,,,,,,,,,,0001479934,2020-10-12_17h40.07.462,swahili,2020.2.4,MacIntel,60,,,,,,,,,,-0.215578497,0.044940476,1,0,1,0.298625,unsorted_card,56,0,56,0,1,,,,,,,,,,,,,,,,,,,,,,,,,,,,,,,,,,,,,,,,,,,,,,,,,,,,,,,,,,,,,,,,,,,,,,,,,,,,,,,,,
,,,,,,,,,,0001479934,2020-10-12_17h40.07.462,swahili,2020.2.4,MacIntel,60,,,,,,,,,,-0.202055432,0.044739583,0,0,1,0.082255,unsorted_card,57,0,57,0,1,AGENT - WAKILI,,,,,,,,,,,,,,,,,,,,,,,,,,,,,,,,,,,,,,,,,,,,,,,,,,,,,,,,,,,,,,,,,,,,,,,,,,,,,,,,
,,,,,,,,,,0001479934,2020-10-12_17h40.07.462,swahili,2020.2.4,MacIntel,60,,,,,,,,,,0.342926897,0.020215774,1,0,1,0.300425,test_pile,58,0,58,0,1,AGENT - WAKILI,,,,,,,,,,,,,,,,,,,,,,,,,,,,,,,,,,,,,,,,,,,,,,,,,,,,,,,,,,,,,,,,,,,,,,,,,,,,,,,,
,,,,,,,,,,0001479934,2020-10-12_17h40.07.462,swahili,2020.2.4,MacIntel,60,,,,,,,,,,0.335886347,0.01733631,0,0,1,0.09881,test_pile,59,0,59,0,1,,,,,,,,,,,,,,,,,,,,,,,,,,,,,,,,,,,,,,,,,,,,,,,,,,,,,,,,,,,,,,,,,,,,,,,,,,,,,,,,,
,,,,,,,,,,0001479934,2020-10-12_17h40.07.462,swahili,2020.2.4,MacIntel,60,,,,,,,,,,-0.243977865,0.089188988,1,0,1,0.26515,unsorted_card,60,0,60,0,1,,,,,,,,,,,,,,,,,,,,,,,,,,,,,,,,,,,,,,,,,,,,,,,,,,,,,,,,,,,,,,,,,,,,,,,,,,,,,,,,,
,,,,,,,,,,0001479934,2020-10-12_17h40.07.462,swahili,2020.2.4,MacIntel,60,,,,,,,,,,-0.181612723,0.072388393,0,0,1,0.09938,unsorted_card,61,0,61,0,1,BRIBE - RUSHWA,,,,,,,,,,,,,,,,,,,,,,,,,,,,,,,,,,,,,,,,,,,,,,,,,,,,,,,,,,,,,,,,,,,,,,,,,,,,,,,,
,,,,,,,,,,0001479934,2020-10-12_17h40.07.462,swahili,2020.2.4,MacIntel,60,,,,,,,,,,0.434598214,0.040647321,1,0,1,0.26588,test_pile,62,0,62,0,1,BRIBE - RUSHWA,,,,,,,,,,,,,,,,,,,,,,,,,,,,,,,,,,,,,,,,,,,,,,,,,,,,,,,,,,,,,,,,,,,,,,,,,,,,,,,,
,,,,,,,,,,0001479934,2020-10-12_17h40.07.462,swahili,2020.2.4,MacIntel,60,,,,,,,,,,0.418247768,0.036674107,0,0,1,0.099955,test_pile,63,0,63,0,1,,,,,,,,,,,,,,,,,,,,,,,,,,,,,,,,,,,,,,,,,,,,,,,,,,,,,,,,,,,,,,,,,,,,,,,,,,,,,,,,,
,,,,,,,,,,0001479934,2020-10-12_17h40.07.462,swahili,2020.2.4,MacIntel,60,,,,,,,,,,-0.27562779,0.046116071,1,0,1,0.266155,unsorted_card,64,0,64,0,1,,,,,,,,,,,,,,,,,,,,,,,,,,,,,,,,,,,,,,,,,,,,,,,,,,,,,,,,,,,,,,,,,,,,,,,,,,,,,,,,,
,,,,,,,,,,0001479934,2020-10-12_17h40.07.462,swahili,2020.2.4,MacIntel,60,,,,,,,,,,-0.225478981,0.044144345,0,0,1,0.09851,unsorted_card,65,0,65,0,1,ORPHAN - YATIMA,,,,,,,,,,,,,,,,,,,,,,,,,,,,,,,,,,,,,,,,,,,,,,,,,,,,,,,,,,,,,,,,,,,,,,,,,,,,,,,,
,,,,,,,,,,0001479934,2020-10-12_17h40.07.462,swahili,2020.2.4,MacIntel,60,,,,,,,,,,0.458965774,0.037782738,1,0,1,0.28387,test_pile,66,0,66,0,1,ORPHAN - YATIMA,,,,,,,,,,,,,,,,,,,,,,,,,,,,,,,,,,,,,,,,,,,,,,,,,,,,,,,,,,,,,,,,,,,,,,,,,,,,,,,,
,,,,,,,,,,0001479934,2020-10-12_17h40.07.462,swahili,2020.2.4,MacIntel,60,,,,,,,,,,0.451943824,0.034077381,0,0,1,0.08094,test_pile,67,0,67,0,1,,,,,,,,,,,,,,,,,,,,,,,,,,,,,,,,,,,,,,,,,,,,,,,,,,,,,,,,,,,,,,,,,,,,,,,,,,,,,,,,,
,,,,,,,,,,0001479934,2020-10-12_17h40.07.462,swahili,2020.2.4,MacIntel,60,,,,,,,,,,-0.137467448,0.069419643,1,0,1,0.317415,unsorted_card,68,0,68,0,1,,,,,,,,,,,,,,,,,,,,,,,,,,,,,,,,,,,,,,,,,,,,,,,,,,,,,,,,,,,,,,,,,,,,,,,,,,,,,,,,,
,,,,,,,,,,0001479934,2020-10-12_17h40.07.462,swahili,2020.2.4,MacIntel,60,,,,,,,,,,-0.136848958,0.069419643,0,0,1,0.08053,unsorted_card,69,0,69,0,1,DIVORCE - TALAKA,,,,,,,,,,,,,,,,,,,,,,,,,,,,,,,,,,,,,,,,,,,,,,,,,,,,,,,,,,,,,,,,,,,,,,,,,,,,,,,,
,,,,,,,,,,0001479934,2020-10-12_17h40.07.462,swahili,2020.2.4,MacIntel,60,,,,,,,,,,0.454408482,0.044159226,1,0,1,0.316115,test_pile,70,0,70,0,1,DIVORCE - TALAKA,,,,,,,,,,,,,,,,,,,,,,,,,,,,,,,,,,,,,,,,,,,,,,,,,,,,,,,,,,,,,,,,,,,,,,,,,,,,,,,,
,,,,,,,,,,0001479934,2020-10-12_17h40.07.462,swahili,2020.2.4,MacIntel,60,,,,,,,,,,0.436197917,0.037730655,0,0,1,0.098635,test_pile,71,0,71,0,1,,,,,,,,,,,,,,,,,,,,,,,,,,,,,,,,,,,,,,,,,,,,,,,,,,,,,,,,,,,,,,,,,,,,,,,,,,,,,,,,,
,,,,,,,,,,0001479934,2020-10-12_17h40.07.462,swahili,2020.2.4,MacIntel,60,,,,,,,,,,-0.256552269,0.07390625,1,0,1,0.28242,unsorted_card,72,0,72,0,1,,,,,,,,,,,,,,,,,,,,,,,,,,,,,,,,,,,,,,,,,,,,,,,,,,,,,,,,,,,,,,,,,,,,,,,,,,,,,,,,,
,,,,,,,,,,0001479934,2020-10-12_17h40.07.462,swahili,2020.2.4,MacIntel,60,,,,,,,,,,-0.226781064,0.070863095,0,0,1,0.10021,unsorted_card,73,0,73,0,1,BOAT - MASHUA,,,,,,,,,,,,,,,,,,,,,,,,,,,,,,,,,,,,,,,,,,,,,,,,,,,,,,,,,,,,,,,,,,,,,,,,,,,,,,,,
,,,,,,,,,,0001479934,2020-10-12_17h40.07.462,swahili,2020.2.4,MacIntel,60,,,,,,,,,,0.475706845,0.047388393,1,0,1,0.298675,test_pile,74,0,74,0,1,BOAT - MASHUA,,,,,,,,,,,,,,,,,,,,,,,,,,,,,,,,,,,,,,,,,,,,,,,,,,,,,,,,,,,,,,,,,,,,,,,,,,,,,,,,
,,,,,,,,,,0001479934,2020-10-12_17h40.07.462,swahili,2020.2.4,MacIntel,60,,,,,,,,,,0.444624256,0.040230655,0,0,1,0.099035,test_pile,75,0,75,0,1,,,,,,,,,,,,,,,,,,,,,,,,,,,,,,,,,,,,,,,,,,,,,,,,,,,,,,,,,,,,,,,,,,,,,,,,,,,,,,,,,
,,,,,,,,,,0001479934,2020-10-12_17h40.07.462,swahili,2020.2.4,MacIntel,60,,,,,,,,,,-0.167001488,0.04968006,1,0,1,0.28381,unsorted_card,76,0,76,0,1,,,,,,,,,,,,,,,,,,,,,,,,,,,,,,,,,,,,,,,,,,,,,,,,,,,,,,,,,,,,,,,,,,,,,,,,,,,,,,,,,
,,,,,,,,,,0001479934,2020-10-12_17h40.07.462,swahili,2020.2.4,MacIntel,60,,,,,,,,,,-0.129640997,0.048363095,0,0,1,0.097915,unsorted_card,77,0,77,0,1,TREASURE - DAFINA,,,,,,,,,,,,,,,,,,,,,,,,,,,,,,,,,,,,,,,,,,,,,,,,,,,,,,,,,,,,,,,,,,,,,,,,,,,,,,,,
,,,,,,,,,,0001479934,2020-10-12_17h40.07.462,swahili,2020.2.4,MacIntel,60,,,,,,,,,,0.419424293,0.052723214,1,0,1,0.416335,test_pile,78,0,78,0,1,TREASURE - DAFINA,,,,,,,,,,,,,,,,,,,,,,,,,,,,,,,,,,,,,,,,,,,,,,,,,,,,,,,,,,,,,,,,,,,,,,,,,,,,,,,,
,,,,,,,,,,0001479934,2020-10-12_17h40.07.462,swahili,2020.2.4,MacIntel,60,,,,,,,,,,,,,,,,,,,,,,,,,,,,,,,,,,0,0,0,0,1,,,,,,,,,,,,,,,,,,,,,,,,,,,,,,,,,,,,,,,,,,,,,,,,,,,,,,,,,,,,,,,,
,,,,,,,,,,0001479934,2020-10-12_17h40.07.462,swahili,2020.2.4,MacIntel,60,,,,,,,,,,,,,,,,,,,,,,,,,,,,,,,,,,,,,,,return,,,,,,,,,,,1.08484,1.979345,0.369540551,0.022433036,1,0,1,0.68393,yes,YEAST,YAMIRA,incorrect,0,0,0,0,1,,,,,,,,,,,,,,,,,,,,,,,,,,,,,,,,,,,,
,,,,,,,,,,0001479934,2020-10-12_17h40.07.462,swahili,2020.2.4,MacIntel,60,,,,,,,,,,,,,,,,,,,,,,,,,,,,,,,,,,,,,,,,,,,,,,,,,,,2.331195,0.370270647,0.022849702,1,0,1,0.515935,yes,AGENT,WAKILI,incorrect,1,0,1,0,1,,,,,,,,,,,,,,,,,,,,,,,,,,,,,,,,,,,,
,,,,,,,,,,0001479934,2020-10-12_17h40.07.462,swahili,2020.2.4,MacIntel,60,,,,,,,,,,,,,,,,,,,,,,,,,,,,,,,,,,,,,,,,,,,,,,,,,,,3.733195,0.371507626,0.021584821,1,0,1,0.547245,yes,TAILOR,MSHONI,incorrect,2,0,2,0,1,,,,,,,,,,,,,,,,,,,,,,,,,,,,,,,,,,,,
,,,,,,,,,,0001479934,2020-10-12_17h40.07.462,swahili,2020.2.4,MacIntel,60,,,,,,,,,,,,,,,,,,,,,,,,,,,,,,,,,,,,,,,,,,,,,,,,,,,5.53174,0.371507626,0.021584821,1,0,1,0.63331,yes,MERCHANT,MISHUBI,incorrect,3,0,3,0,1,,,,,,,,,,,,,,,,,,,,,,,,,,,,,,,,,,,,
,,,,,,,,,,0001479934,2020-10-12_17h40.07.462,swahili,2020.2.4,MacIntel,60,,,,,,,,,,,,,,,,,,,,,,,,,,,,,,,,,,,,,,,,,,,,,,,,,,,3.44752,0.371507626,0.021584821,1,0,1,0.50105,yes,CORN,NAFAKA,incorrect,4,0,4,0,1,,,,,,,,,,,,,,,,,,,,,,,,,,,,,,,,,,,,
,,,,,,,,,,0001479934,2020-10-12_17h40.07.462,swahili,2020.2.4,MacIntel,60,,,,,,,,,,,,,,,,,,,,,,,,,,,,,,,,,,,,,,,,,,,,,,,,,,,2.56542,0.37140067,0.021584821,1,0,1,0.48363,yes,ORPHAN,YAMIRA,incorrect,5,0,5,0,1,,,,,,,,,,,,,,,,,,,,,,,,,,,,,,,,,,,,
