condition,consent_key.keys,consent_key.rt,done_with_instructions.keys,done_with_instructions.rt,instr_loop.thisRepN,instr_loop.thisTrialN,instr_loop.thisN,instr_loop.thisIndex,instr_loop.ran,Student ID #,date,expName,psychopyVersion,OS,frameRate,instr_learning_key.keys,instr_learning_key.rt,card_gen_loop.thisRepN,card_gen_loop.thisTrialN,card_gen_loop.thisN,card_gen_loop.thisIndex,card_gen_loop.ran,swa,eng,choose_pile.x,choose_pile.y,choose_pile.leftButton,choose_pile.midButton,choose_pile.rightButton,choose_pile.time,choose_pile.clicked_name,choices.thisRepN,choices.thisTrialN,choices.thisN,choices.thisIndex,choices.ran,card_to_show,mouse_pick.x,mouse_pick.y,mouse_pick.leftButton,mouse_pick.midButton,mouse_pick.rightButton,mouse_pick.time,mouse_pick.clicked_name,key_instr_study.keys,key_instr_study.rt,next_study.keys,next_study.rt,study_loop.thisRepN,study_loop.thisTrialN,study_loop.thisN,study_loop.thisIndex,study_loop.ran,key_instr_test.keys,learn_loop.thisRepN,learn_loop.thisTrialN,learn_loop.thisN,learn_loop.thisIndex,learn_loop.ran,trials.thisRepN,trials.thisTrialN,trials.thisN,trials.thisIndex,trials.ran,key_instr_test.rt,duration,yes_or_no.x,yes_or_no.y,yes_or_no.leftButton,yes_or_no.midButton,yes_or_no.rightButton,yes_or_no.time,yes_or_no.clicked_name,test_response.stim,test_response.resp,test_response.eval,test_loop.thisRepN,test_loop.thisTrialN,test_loop.thisN,test_loop.thisIndex,test_loop.ran,instr_movie_key.keys,instr_movie_key.rt,return_to_exp.keys,return_to_exp.rt,instr_assess_key.keys,instr_assess_key.rt,assess_loop.thisRepN,assess_loop.thisTrialN,assess_loop.thisN,assess_loop.thisIndex,assess_loop.ran,ans_gen_loop.thisRepN,ans_gen_loop.thisTrialN,ans_gen_loop.thisN,ans_gen_loop.thisIndex,ans_gen_loop.ran,sen,ans,instr_transfer_key.keys,instr_transfer_key.rt,transfer_response.resp,transfer_response.eval,select_word.x,select_word.y,select_word.leftButton,select_word.midButton,select_word.rightButton,select_word.time,select_word.clicked_name,transfers.thisRepN,transfers.thisTrialN,transfers.thisN,transfers.thisIndex,transfers.ran,end_experiment.keys,end_experiment.rt
1,return,44.62851,return,14.352395,0,0,0,0,1,00001555279,2020-10-23_18h08.15.607,swahili,2020.2.4,Win32,60,,,,,,,,,,,,,,,,,,,,,,,,,,,,,,,,,,,,,,,,,,,,,,,,,,,,,,,,,,,,,,,,,,,,,,,,,,,,,,,,,,,,,,,,,,,,,,,,,,,,,,
,,,,,,,,,,00001555279,2020-10-23_18h08.15.607,swahili,2020.2.4,Win32,60,return,18.909935,0,0,0,0,1,TAJIRI,MERCHANT,,,,,,,,,,,,,,,,,,,,,,,,,,,,,,,,,,,,,,,,,,,,,,,,,,,,,,,,,,,,,,,,,,,,,,,,,,,,,,,,,,,,,,,,,,,,,
,,,,,,,,,,00001555279,2020-10-23_18h08.15.607,swahili,2020.2.4,Win32,60,,,0,1,1,1,1,KASUKU,PARROT,,,,,,,,,,,,,,,,,,,,,,,,,,,,,,,,,,,,,,,,,,,,,,,,,,,,,,,,,,,,,,,,,,,,,,,,,,,,,,,,,,,,,,,,,,,,,
,,,,,,,,,,00001555279,2020-10-23_18h08.15.607,swahili,2020.2.4,Win32,60,,,0,2,2,2,1,FAHILI,BULL,,,,,,,,,,,,,,,,,,,,,,,,,,,,,,,,,,,,,,,,,,,,,,,,,,,,,,,,,,,,,,,,,,,,,,,,,,,,,,,,,,,,,,,,,,,,,
,,,,,,,,,,00001555279,2020-10-23_18h08.15.607,swahili,2020.2.4,Win32,60,,,0,3,3,3,1,SAHANI,PLATE,,,,,,,,,,,,,,,,,,,,,,,,,,,,,,,,,,,,,,,,,,,,,,,,,,,,,,,,,,,,,,,,,,,,,,,,,,,,,,,,,,,,,,,,,,,,,
,,,,,,,,,,00001555279,2020-10-23_18h08.15.607,swahili,2020.2.4,Win32,60,,,0,4,4,4,1,HAMIRA,YEAST,,,,,,,,,,,,,,,,,,,,,,,,,,,,,,,,,,,,,,,,,,,,,,,,,,,,,,,,,,,,,,,,,,,,,,,,,,,,,,,,,,,,,,,,,,,,,
,,,,,,,,,,00001555279,2020-10-23_18h08.15.607,swahili,2020.2.4,Win32,60,,,0,5,5,5,1,LAWAMA,BLAME,,,,,,,,,,,,,,,,,,,,,,,,,,,,,,,,,,,,,,,,,,,,,,,,,,,,,,,,,,,,,,,,,,,,,,,,,,,,,,,,,,,,,,,,,,,,,
,,,,,,,,,,00001555279,2020-10-23_18h08.15.607,swahili,2020.2.4,Win32,60,,,0,6,6,6,1,YAMINI,OATH,,,,,,,,,,,,,,,,,,,,,,,,,,,,,,,,,,,,,,,,,,,,,,,,,,,,,,,,,,,,,,,,,,,,,,,,,,,,,,,,,,,,,,,,,,,,,
,,,,,,,,,,00001555279,2020-10-23_18h08.15.607,swahili,2020.2.4,Win32,60,,,0,7,7,7,1,NAFAKA,CORN,,,,,,,,,,,,,,,,,,,,,,,,,,,,,,,,,,,,,,,,,,,,,,,,,,,,,,,,,,,,,,,,,,,,,,,,,,,,,,,,,,,,,,,,,,,,,
,,,,,,,,,,00001555279,2020-10-23_18h08.15.607,swahili,2020.2.4,Win32,60,,,0,8,8,8,1,UTENZI,POEM,,,,,,,,,,,,,,,,,,,,,,,,,,,,,,,,,,,,,,,,,,,,,,,,,,,,,,,,,,,,,,,,,,,,,,,,,,,,,,,,,,,,,,,,,,,,,
,,,,,,,,,,00001555279,2020-10-23_18h08.15.607,swahili,2020.2.4,Win32,60,,,0,9,9,9,1,MSHONI,TAILOR,,,,,,,,,,,,,,,,,,,,,,,,,,,,,,,,,,,,,,,,,,,,,,,,,,,,,,,,,,,,,,,,,,,,,,,,,,,,,,,,,,,,,,,,,,,,,
,,,,,,,,,,00001555279,2020-10-23_18h08.15.607,swahili,2020.2.4,Win32,60,,,0,10,10,10,1,JIBINI,CHEESE,,,,,,,,,,,,,,,,,,,,,,,,,,,,,,,,,,,,,,,,,,,,,,,,,,,,,,,,,,,,,,,,,,,,,,,,,,,,,,,,,,,,,,,,,,,,,
,,,,,,,,,,00001555279,2020-10-23_18h08.15.607,swahili,2020.2.4,Win32,60,,,0,11,11,11,1,ZABIBU,GRAPES,,,,,,,,,,,,,,,,,,,,,,,,,,,,,,,,,,,,,,,,,,,,,,,,,,,,,,,,,,,,,,,,,,,,,,,,,,,,,,,,,,,,,,,,,,,,,
,,,,,,,,,,00001555279,2020-10-23_18h08.15.607,swahili,2020.2.4,Win32,60,,,0,12,12,12,1,KABURI,GRAVE,,,,,,,,,,,,,,,,,,,,,,,,,,,,,,,,,,,,,,,,,,,,,,,,,,,,,,,,,,,,,,,,,,,,,,,,,,,,,,,,,,,,,,,,,,,,,
,,,,,,,,,,00001555279,2020-10-23_18h08.15.607,swahili,2020.2.4,Win32,60,,,0,13,13,13,1,SAMADI,MANURE,,,,,,,,,,,,,,,,,,,,,,,,,,,,,,,,,,,,,,,,,,,,,,,,,,,,,,,,,,,,,,,,,,,,,,,,,,,,,,,,,,,,,,,,,,,,,
,,,,,,,,,,00001555279,2020-10-23_18h08.15.607,swahili,2020.2.4,Win32,60,,,0,14,14,14,1,WAKILI,AGENT,,,,,,,,,,,,,,,,,,,,,,,,,,,,,,,,,,,,,,,,,,,,,,,,,,,,,,,,,,,,,,,,,,,,,,,,,,,,,,,,,,,,,,,,,,,,,
,,,,,,,,,,00001555279,2020-10-23_18h08.15.607,swahili,2020.2.4,Win32,60,,,0,15,15,15,1,RUSHWA,BRIBE,,,,,,,,,,,,,,,,,,,,,,,,,,,,,,,,,,,,,,,,,,,,,,,,,,,,,,,,,,,,,,,,,,,,,,,,,,,,,,,,,,,,,,,,,,,,,
,,,,,,,,,,00001555279,2020-10-23_18h08.15.607,swahili,2020.2.4,Win32,60,,,0,16,16,16,1,YATIMA,ORPHAN,,,,,,,,,,,,,,,,,,,,,,,,,,,,,,,,,,,,,,,,,,,,,,,,,,,,,,,,,,,,,,,,,,,,,,,,,,,,,,,,,,,,,,,,,,,,,
,,,,,,,,,,00001555279,2020-10-23_18h08.15.607,swahili,2020.2.4,Win32,60,,,0,17,17,17,1,TALAKA,DIVORCE,,,,,,,,,,,,,,,,,,,,,,,,,,,,,,,,,,,,,,,,,,,,,,,,,,,,,,,,,,,,,,,,,,,,,,,,,,,,,,,,,,,,,,,,,,,,,
,,,,,,,,,,00001555279,2020-10-23_18h08.15.607,swahili,2020.2.4,Win32,60,,,0,18,18,18,1,MASHUA,BOAT,,,,,,,,,,,,,,,,,,,,,,,,,,,,,,,,,,,,,,,,,,,,,,,,,,,,,,,,,,,,,,,,,,,,,,,,,,,,,,,,,,,,,,,,,,,,,
,,,,,,,,,,00001555279,2020-10-23_18h08.15.607,swahili,2020.2.4,Win32,60,,,0,19,19,19,1,DAFINA,TREASURE,,,,,,,,,,,,,,,,,,,,,,,,,,,,,,,,,,,,,,,,,,,,,,,,,,,,,,,,,,,,,,,,,,,,,,,,,,,,,,,,,,,,,,,,,,,,,
,,,,,,,,,,00001555279,2020-10-23_18h08.15.607,swahili,2020.2.4,Win32,60,,,,,,,,,,-0.409374982,-0.090740773,1,0,0,9.48261,unsorted_card,0,0,0,0,1,,,,,,,,,,,,,,,,,,,,,,,,,,,,,,,,,,,,,,,,,,,,,,,,,,,,,,,,,,,,,,,,,,,,,,,,,,,,,,,,,
,,,,,,,,,,00001555279,2020-10-23_18h08.15.607,swahili,2020.2.4,Win32,60,,,,,,,,,,0.477083377,0.48518517,1,0,0,11.021355,study_pile,1,0,1,0,1,MERCHANT - TAJIRI,,,,,,,,,,,,,,,,,,,,,,,,,,,,,,,,,,,,,,,,,,,,,,,,,,,,,,,,,,,,,,,,,,,,,,,,,,,,,,,,
,,,,,,,,,,00001555279,2020-10-23_18h08.15.607,swahili,2020.2.4,Win32,60,,,,,,,,,,-0.279166645,-0.120370404,1,0,0,1.130335,unsorted_card,2,0,2,0,1,,,,,,,,,,,,,,,,,,,,,,,,,,,,,,,,,,,,,,,,,,,,,,,,,,,,,,,,,,,,,,,,,,,,,,,,,,,,,,,,,
,,,,,,,,,,00001555279,2020-10-23_18h08.15.607,swahili,2020.2.4,Win32,60,,,,,,,,,,0.452083377,0.412962945,1,0,0,2.347085,study_pile,3,0,3,0,1,PARROT - KASUKU,,,,,,,,,,,,,,,,,,,,,,,,,,,,,,,,,,,,,,,,,,,,,,,,,,,,,,,,,,,,,,,,,,,,,,,,,,,,,,,,
,,,,,,,,,,00001555279,2020-10-23_18h08.15.607,swahili,2020.2.4,Win32,60,,,,,,,,,,-0.297916646,0.001851822,1,0,0,0.832105,unsorted_card,4,0,4,0,1,,,,,,,,,,,,,,,,,,,,,,,,,,,,,,,,,,,,,,,,,,,,,,,,,,,,,,,,,,,,,,,,,,,,,,,,,,,,,,,,,
,,,,,,,,,,00001555279,2020-10-23_18h08.15.607,swahili,2020.2.4,Win32,60,,,,,,,,,,0.45729171,0.455555539,1,0,0,2.530325,study_pile,5,0,5,0,1,BULL - FAHILI,,,,,,,,,,,,,,,,,,,,,,,,,,,,,,,,,,,,,,,,,,,,,,,,,,,,,,,,,,,,,,,,,,,,,,,,,,,,,,,,
,,,,,,,,,,00001555279,2020-10-23_18h08.15.607,swahili,2020.2.4,Win32,60,,,,,,,,,,-0.305208313,-0.005555586,1,0,0,1.18179,unsorted_card,6,0,6,0,1,,,,,,,,,,,,,,,,,,,,,,,,,,,,,,,,,,,,,,,,,,,,,,,,,,,,,,,,,,,,,,,,,,,,,,,,,,,,,,,,,
,,,,,,,,,,00001555279,2020-10-23_18h08.15.607,swahili,2020.2.4,Win32,60,,,,,,,,,,0.433333376,0.52407406,1,0,0,2.097955,study_pile,7,0,7,0,1,PLATE - SAHANI,,,,,,,,,,,,,,,,,,,,,,,,,,,,,,,,,,,,,,,,,,,,,,,,,,,,,,,,,,,,,,,,,,,,,,,,,,,,,,,,
,,,,,,,,,,00001555279,2020-10-23_18h08.15.607,swahili,2020.2.4,Win32,60,,,,,,,,,,-0.344791647,-0.025925957,1,0,0,0.831385,unsorted_card,8,0,8,0,1,,,,,,,,,,,,,,,,,,,,,,,,,,,,,,,,,,,,,,,,,,,,,,,,,,,,,,,,,,,,,,,,,,,,,,,,,,,,,,,,,
,,,,,,,,,,00001555279,2020-10-23_18h08.15.607,swahili,2020.2.4,Win32,60,,,,,,,,,,0.480208377,0.522222208,1,0,0,2.84693,study_pile,9,0,9,0,1,YEAST - HAMIRA,,,,,,,,,,,,,,,,,,,,,,,,,,,,,,,,,,,,,,,,,,,,,,,,,,,,,,,,,,,,,,,,,,,,,,,,,,,,,,,,
,,,,,,,,,,00001555279,2020-10-23_18h08.15.607,swahili,2020.2.4,Win32,60,,,,,,,,,,-0.316666646,-0.027777808,1,0,0,0.99859,unsorted_card,10,0,10,0,1,,,,,,,,,,,,,,,,,,,,,,,,,,,,,,,,,,,,,,,,,,,,,,,,,,,,,,,,,,,,,,,,,,,,,,,,,,,,,,,,,
,,,,,,,,,,00001555279,2020-10-23_18h08.15.607,swahili,2020.2.4,Win32,60,,,,,,,,,,0.44166671,0.470370355,1,0,0,1.997705,study_pile,11,0,11,0,1,BLAME - LAWAMA,,,,,,,,,,,,,,,,,,,,,,,,,,,,,,,,,,,,,,,,,,,,,,,,,,,,,,,,,,,,,,,,,,,,,,,,,,,,,,,,
,,,,,,,,,,00001555279,2020-10-23_18h08.15.607,swahili,2020.2.4,Win32,60,,,,,,,,,,-0.42604165,-0.048148179,1,0,0,0.649025,unsorted_card,12,0,12,0,1,,,,,,,,,,,,,,,,,,,,,,,,,,,,,,,,,,,,,,,,,,,,,,,,,,,,,,,,,,,,,,,,,,,,,,,,,,,,,,,,,
,,,,,,,,,,00001555279,2020-10-23_18h08.15.607,swahili,2020.2.4,Win32,60,,,,,,,,,,0.445833376,0.438888872,1,0,0,1.915305,study_pile,13,0,13,0,1,OATH - YAMINI,,,,,,,,,,,,,,,,,,,,,,,,,,,,,,,,,,,,,,,,,,,,,,,,,,,,,,,,,,,,,,,,,,,,,,,,,,,,,,,,
,,,,,,,,,,00001555279,2020-10-23_18h08.15.607,swahili,2020.2.4,Win32,60,,,,,,,,,,-0.373958315,0.029629601,1,0,0,0.73165,unsorted_card,14,0,14,0,1,,,,,,,,,,,,,,,,,,,,,,,,,,,,,,,,,,,,,,,,,,,,,,,,,,,,,,,,,,,,,,,,,,,,,,,,,,,,,,,,,
,,,,,,,,,,00001555279,2020-10-23_18h08.15.607,swahili,2020.2.4,Win32,60,,,,,,,,,,0.492708378,0.474074058,1,0,0,1.98116,study_pile,15,0,15,0,1,CORN - NAFAKA,,,,,,,,,,,,,,,,,,,,,,,,,,,,,,,,,,,,,,,,,,,,,,,,,,,,,,,,,,,,,,,,,,,,,,,,,,,,,,,,
,,,,,,,,,,00001555279,2020-10-23_18h08.15.607,swahili,2020.2.4,Win32,60,,,,,,,,,,-0.306249979,0.033333305,1,0,0,0.76565,unsorted_card,16,0,16,0,1,,,,,,,,,,,,,,,,,,,,,,,,,,,,,,,,,,,,,,,,,,,,,,,,,,,,,,,,,,,,,,,,,,,,,,,,,,,,,,,,,
,,,,,,,,,,00001555279,2020-10-23_18h08.15.607,swahili,2020.2.4,Win32,60,,,,,,,,,,0.440625043,0.468518503,1,0,0,1.66431,study_pile,17,0,17,0,1,POEM - UTENZI,,,,,,,,,,,,,,,,,,,,,,,,,,,,,,,,,,,,,,,,,,,,,,,,,,,,,,,,,,,,,,,,,,,,,,,,,,,,,,,,
,,,,,,,,,,00001555279,2020-10-23_18h08.15.607,swahili,2020.2.4,Win32,60,,,,,,,,,,-0.195833309,0.105555529,1,0,0,0.69918,unsorted_card,18,0,18,0,1,,,,,,,,,,,,,,,,,,,,,,,,,,,,,,,,,,,,,,,,,,,,,,,,,,,,,,,,,,,,,,,,,,,,,,,,,,,,,,,,,
,,,,,,,,,,00001555279,2020-10-23_18h08.15.607,swahili,2020.2.4,Win32,60,,,,,,,,,,0.458333377,0.503703689,1,0,0,3.246635,study_pile,19,0,19,0,1,TAILOR - MSHONI,,,,,,,,,,,,,,,,,,,,,,,,,,,,,,,,,,,,,,,,,,,,,,,,,,,,,,,,,,,,,,,,,,,,,,,,,,,,,,,,
,,,,,,,,,,00001555279,2020-10-23_18h08.15.607,swahili,2020.2.4,Win32,60,,,,,,,,,,-0.308333313,-0.050000031,1,0,0,0.64906,unsorted_card,20,0,20,0,1,,,,,,,,,,,,,,,,,,,,,,,,,,,,,,,,,,,,,,,,,,,,,,,,,,,,,,,,,,,,,,,,,,,,,,,,,,,,,,,,,
,,,,,,,,,,00001555279,2020-10-23_18h08.15.607,swahili,2020.2.4,Win32,60,,,,,,,,,,0.505208378,0.40740739,1,0,0,1.631445,study_pile,21,0,21,0,1,CHEESE - JIBINI,,,,,,,,,,,,,,,,,,,,,,,,,,,,,,,,,,,,,,,,,,,,,,,,,,,,,,,,,,,,,,,,,,,,,,,,,,,,,,,,
,,,,,,,,,,00001555279,2020-10-23_18h08.15.607,swahili,2020.2.4,Win32,60,,,,,,,,,,-0.149999975,0.042592564,1,0,0,0.61469,unsorted_card,22,0,22,0,1,,,,,,,,,,,,,,,,,,,,,,,,,,,,,,,,,,,,,,,,,,,,,,,,,,,,,,,,,,,,,,,,,,,,,,,,,,,,,,,,,
,,,,,,,,,,00001555279,2020-10-23_18h08.15.607,swahili,2020.2.4,Win32,60,,,,,,,,,,0.55208338,0.479629614,1,0,0,4.046975,study_pile,23,0,23,0,1,GRAPES - ZABIBU,,,,,,,,,,,,,,,,,,,,,,,,,,,,,,,,,,,,,,,,,,,,,,,,,,,,,,,,,,,,,,,,,,,,,,,,,,,,,,,,
,,,,,,,,,,00001555279,2020-10-23_18h08.15.607,swahili,2020.2.4,Win32,60,,,,,,,,,,-0.191666579,0.06481473,1,0,0,0.58196,unsorted_card,24,0,24,0,1,,,,,,,,,,,,,,,,,,,,,,,,,,,,,,,,,,,,,,,,,,,,,,,,,,,,,,,,,,,,,,,,,,,,,,,,,,,,,,,,,
,,,,,,,,,,00001555279,2020-10-23_18h08.15.607,swahili,2020.2.4,Win32,60,,,,,,,,,,0.46041671,0.505555541,1,0,0,2.396855,study_pile,25,0,25,0,1,GRAVE - KABURI,,,,,,,,,,,,,,,,,,,,,,,,,,,,,,,,,,,,,,,,,,,,,,,,,,,,,,,,,,,,,,,,,,,,,,,,,,,,,,,,
,,,,,,,,,,00001555279,2020-10-23_18h08.15.607,swahili,2020.2.4,Win32,60,,,,,,,,,,-0.247916644,-0.055555587,1,0,0,0.79896,unsorted_card,26,0,26,0,1,,,,,,,,,,,,,,,,,,,,,,,,,,,,,,,,,,,,,,,,,,,,,,,,,,,,,,,,,,,,,,,,,,,,,,,,,,,,,,,,,
,,,,,,,,,,00001555279,2020-10-23_18h08.15.607,swahili,2020.2.4,Win32,60,,,,,,,,,,0.425000042,0.499999985,1,0,0,2.913905,study_pile,27,0,27,0,1,MANURE - SAMADI,,,,,,,,,,,,,,,,,,,,,,,,,,,,,,,,,,,,,,,,,,,,,,,,,,,,,,,,,,,,,,,,,,,,,,,,,,,,,,,,
,,,,,,,,,,00001555279,2020-10-23_18h08.15.607,swahili,2020.2.4,Win32,60,,,,,,,,,,-0.353124981,-0.011111141,1,0,0,0.63152,unsorted_card,28,0,28,0,1,,,,,,,,,,,,,,,,,,,,,,,,,,,,,,,,,,,,,,,,,,,,,,,,,,,,,,,,,,,,,,,,,,,,,,,,,,,,,,,,,
,,,,,,,,,,00001555279,2020-10-23_18h08.15.607,swahili,2020.2.4,Win32,60,,,,,,,,,,0.437500043,0.448148132,1,0,0,2.248245,study_pile,29,0,29,0,1,AGENT - WAKILI,,,,,,,,,,,,,,,,,,,,,,,,,,,,,,,,,,,,,,,,,,,,,,,,,,,,,,,,,,,,,,,,,,,,,,,,,,,,,,,,
,,,,,,,,,,00001555279,2020-10-23_18h08.15.607,swahili,2020.2.4,Win32,60,,,,,,,,,,-0.345833314,-0.048148179,1,0,0,1.414805,unsorted_card,30,0,30,0,1,,,,,,,,,,,,,,,,,,,,,,,,,,,,,,,,,,,,,,,,,,,,,,,,,,,,,,,,,,,,,,,,,,,,,,,,,,,,,,,,,
,,,,,,,,,,00001555279,2020-10-23_18h08.15.607,swahili,2020.2.4,Win32,60,,,,,,,,,,0.354166707,0.422222205,1,0,0,2.280635,study_pile,31,0,31,0,1,BRIBE - RUSHWA,,,,,,,,,,,,,,,,,,,,,,,,,,,,,,,,,,,,,,,,,,,,,,,,,,,,,,,,,,,,,,,,,,,,,,,,,,,,,,,,
,,,,,,,,,,00001555279,2020-10-23_18h08.15.607,swahili,2020.2.4,Win32,60,,,,,,,,,,-0.415624983,-0.037037068,1,0,0,0.832245,unsorted_card,32,0,32,0,1,,,,,,,,,,,,,,,,,,,,,,,,,,,,,,,,,,,,,,,,,,,,,,,,,,,,,,,,,,,,,,,,,,,,,,,,,,,,,,,,,
,,,,,,,,,,00001555279,2020-10-23_18h08.15.607,swahili,2020.2.4,Win32,60,,,,,,,,,,0.417708376,0.483333318,1,0,0,1.94835,study_pile,33,0,33,0,1,ORPHAN - YATIMA,,,,,,,,,,,,,,,,,,,,,,,,,,,,,,,,,,,,,,,,,,,,,,,,,,,,,,,,,,,,,,,,,,,,,,,,,,,,,,,,
,,,,,,,,,,00001555279,2020-10-23_18h08.15.607,swahili,2020.2.4,Win32,60,,,,,,,,,,-0.238541644,0.057407379,1,0,0,0.64845,unsorted_card,34,0,34,0,1,,,,,,,,,,,,,,,,,,,,,,,,,,,,,,,,,,,,,,,,,,,,,,,,,,,,,,,,,,,,,,,,,,,,,,,,,,,,,,,,,
,,,,,,,,,,00001555279,2020-10-23_18h08.15.607,swahili,2020.2.4,Win32,60,,,,,,,,,,0.536458379,0.474074058,1,0,0,1.91528,study_pile,35,0,35,0,1,DIVORCE - TALAKA,,,,,,,,,,,,,,,,,,,,,,,,,,,,,,,,,,,,,,,,,,,,,,,,,,,,,,,,,,,,,,,,,,,,,,,,,,,,,,,,
,,,,,,,,,,00001555279,2020-10-23_18h08.15.607,swahili,2020.2.4,Win32,60,,,,,,,,,,-0.302083313,-0.035185216,1,0,0,0.66528,unsorted_card,36,0,36,0,1,,,,,,,,,,,,,,,,,,,,,,,,,,,,,,,,,,,,,,,,,,,,,,,,,,,,,,,,,,,,,,,,,,,,,,,,,,,,,,,,,
,,,,,,,,,,00001555279,2020-10-23_18h08.15.607,swahili,2020.2.4,Win32,60,,,,,,,,,,0.461458377,0.472222206,1,0,0,1.514225,study_pile,37,0,37,0,1,BOAT - MASHUA,,,,,,,,,,,,,,,,,,,,,,,,,,,,,,,,,,,,,,,,,,,,,,,,,,,,,,,,,,,,,,,,,,,,,,,,,,,,,,,,
,,,,,,,,,,00001555279,2020-10-23_18h08.15.607,swahili,2020.2.4,Win32,60,,,,,,,,,,-0.293749979,-0.020370401,1,0,0,0.6825,unsorted_card,38,0,38,0,1,,,,,,,,,,,,,,,,,,,,,,,,,,,,,,,,,,,,,,,,,,,,,,,,,,,,,,,,,,,,,,,,,,,,,,,,,,,,,,,,,
,,,,,,,,,,00001555279,2020-10-23_18h08.15.607,swahili,2020.2.4,Win32,60,,,,,,,,,,0.401041708,0.503703689,1,0,0,1.698495,study_pile,39,0,39,0,1,TREASURE - DAFINA,,,,,,,,,,,,,,,,,,,,,,,,,,,,,,,,,,,,,,,,,,,,,,,,,,,,,,,,,,,,,,,,,,,,,,,,,,,,,,,,
,,,,,,,,,,00001555279,2020-10-23_18h08.15.607,swahili,2020.2.4,Win32,60,,,,,,,,,,,,,,,,,,,,,,BULL - FAHILI,,,,,,,,return,10.79799,return,10.204455,0,0,0,0,1,,,,,,,,,,,,,,,,,,,,,,,,,,,,,,,,,,,,,,,,,,,,,,,,,,,,,,,,,,,,,,,,
,,,,,,,,,,00001555279,2020-10-23_18h08.15.607,swahili,2020.2.4,Win32,60,,,,,,,,,,,,,,,,,,,,,,CORN - NAFAKA,,,,,,,,,,return,13.26777,1,0,1,0,1,,,,,,,,,,,,,,,,,,,,,,,,,,,,,,,,,,,,,,,,,,,,,,,,,,,,,,,,,,,,,,,,
,,,,,,,,,,00001555279,2020-10-23_18h08.15.607,swahili,2020.2.4,Win32,60,,,,,,,,,,,,,,,,,,,,,,AGENT - WAKILI,,,,,,,,,,return,5.067775,2,0,2,0,1,,,,,,,,,,,,,,,,,,,,,,,,,,,,,,,,,,,,,,,,,,,,,,,,,,,,,,,,,,,,,,,,
,,,,,,,,,,00001555279,2020-10-23_18h08.15.607,swahili,2020.2.4,Win32,60,,,,,,,,,,,,,,,,,,,,,,OATH - YAMINI,,,,,,,,,,return,6.11809,3,0,3,0,1,,,,,,,,,,,,,,,,,,,,,,,,,,,,,,,,,,,,,,,,,,,,,,,,,,,,,,,,,,,,,,,,
,,,,,,,,,,00001555279,2020-10-23_18h08.15.607,swahili,2020.2.4,Win32,60,,,,,,,,,,,,,,,,,,,,,,PARROT - KASUKU,,,,,,,,,,return,10.27393,4,0,4,0,1,,,,,,,,,,,,,,,,,,,,,,,,,,,,,,,,,,,,,,,,,,,,,,,,,,,,,,,,,,,,,,,,
,,,,,,,,,,00001555279,2020-10-23_18h08.15.607,swahili,2020.2.4,Win32,60,,,,,,,,,,,,,,,,,,,,,,DIVORCE - TALAKA,,,,,,,,,,return,5.22789,5,0,5,0,1,,,,,,,,,,,,,,,,,,,,,,,,,,,,,,,,,,,,,,,,,,,,,,,,,,,,,,,,,,,,,,,,
,,,,,,,,,,00001555279,2020-10-23_18h08.15.607,swahili,2020.2.4,Win32,60,,,,,,,,,,,,,,,,,,,,,,MERCHANT - TAJIRI,,,,,,,,,,return,5.44634,6,0,6,0,1,,,,,,,,,,,,,,,,,,,,,,,,,,,,,,,,,,,,,,,,,,,,,,,,,,,,,,,,,,,,,,,,
,,,,,,,,,,00001555279,2020-10-23_18h08.15.607,swahili,2020.2.4,Win32,60,,,,,,,,,,,,,,,,,,,,,,BOAT - MASHUA,,,,,,,,,,return,4.29977,7,0,7,0,1,,,,,,,,,,,,,,,,,,,,,,,,,,,,,,,,,,,,,,,,,,,,,,,,,,,,,,,,,,,,,,,,
,,,,,,,,,,00001555279,2020-10-23_18h08.15.607,swahili,2020.2.4,Win32,60,,,,,,,,,,,,,,,,,,,,,,CHEESE - JIBINI,,,,,,,,,,return,4.10642,8,0,8,0,1,,,,,,,,,,,,,,,,,,,,,,,,,,,,,,,,,,,,,,,,,,,,,,,,,,,,,,,,,,,,,,,,
,,,,,,,,,,00001555279,2020-10-23_18h08.15.607,swahili,2020.2.4,Win32,60,,,,,,,,,,,,,,,,,,,,,,ORPHAN - YATIMA,,,,,,,,,,return,3.345545,9,0,9,0,1,,,,,,,,,,,,,,,,,,,,,,,,,,,,,,,,,,,,,,,,,,,,,,,,,,,,,,,,,,,,,,,,
,,,,,,,,,,00001555279,2020-10-23_18h08.15.607,swahili,2020.2.4,Win32,60,,,,,,,,,,,,,,,,,,,,,,MANURE - SAMADI,,,,,,,,,,return,5.86234,10,0,10,0,1,,,,,,,,,,,,,,,,,,,,,,,,,,,,,,,,,,,,,,,,,,,,,,,,,,,,,,,,,,,,,,,,
,,,,,,,,,,00001555279,2020-10-23_18h08.15.607,swahili,2020.2.4,Win32,60,,,,,,,,,,,,,,,,,,,,,,PLATE - SAHANI,,,,,,,,,,return,3.252605,11,0,11,0,1,,,,,,,,,,,,,,,,,,,,,,,,,,,,,,,,,,,,,,,,,,,,,,,,,,,,,,,,,,,,,,,,
,,,,,,,,,,00001555279,2020-10-23_18h08.15.607,swahili,2020.2.4,Win32,60,,,,,,,,,,,,,,,,,,,,,,BRIBE - RUSHWA,,,,,,,,,,return,4.05915,12,0,12,0,1,,,,,,,,,,,,,,,,,,,,,,,,,,,,,,,,,,,,,,,,,,,,,,,,,,,,,,,,,,,,,,,,
,,,,,,,,,,00001555279,2020-10-23_18h08.15.607,swahili,2020.2.4,Win32,60,,,,,,,,,,,,,,,,,,,,,,GRAPES - ZABIBU,,,,,,,,,,return,3.60158,13,0,13,0,1,,,,,,,,,,,,,,,,,,,,,,,,,,,,,,,,,,,,,,,,,,,,,,,,,,,,,,,,,,,,,,,,
,,,,,,,,,,00001555279,2020-10-23_18h08.15.607,swahili,2020.2.4,Win32,60,,,,,,,,,,,,,,,,,,,,,,YEAST - HAMIRA,,,,,,,,,,return,3.078725,14,0,14,0,1,,,,,,,,,,,,,,,,,,,,,,,,,,,,,,,,,,,,,,,,,,,,,,,,,,,,,,,,,,,,,,,,
,,,,,,,,,,00001555279,2020-10-23_18h08.15.607,swahili,2020.2.4,Win32,60,,,,,,,,,,,,,,,,,,,,,,POEM - UTENZI,,,,,,,,,,return,2.925595,15,0,15,0,1,,,,,,,,,,,,,,,,,,,,,,,,,,,,,,,,,,,,,,,,,,,,,,,,,,,,,,,,,,,,,,,,
,,,,,,,,,,00001555279,2020-10-23_18h08.15.607,swahili,2020.2.4,Win32,60,,,,,,,,,,,,,,,,,,,,,,TAILOR - MSHONI,,,,,,,,,,return,2.70988,16,0,16,0,1,,,,,,,,,,,,,,,,,,,,,,,,,,,,,,,,,,,,,,,,,,,,,,,,,,,,,,,,,,,,,,,,
,,,,,,,,,,00001555279,2020-10-23_18h08.15.607,swahili,2020.2.4,Win32,60,,,,,,,,,,,,,,,,,,,,,,BLAME - LAWAMA,,,,,,,,,,return,1.95677,17,0,17,0,1,,,,,,,,,,,,,,,,,,,,,,,,,,,,,,,,,,,,,,,,,,,,,,,,,,,,,,,,,,,,,,,,
,,,,,,,,,,00001555279,2020-10-23_18h08.15.607,swahili,2020.2.4,Win32,60,,,,,,,,,,,,,,,,,,,,,,GRAVE - KABURI,,,,,,,,,,return,2.52157,18,0,18,0,1,,,,,,,,,,,,,,,,,,,,,,,,,,,,,,,,,,,,,,,,,,,,,,,,,,,,,,,,,,,,,,,,
,,,,,,,,,,00001555279,2020-10-23_18h08.15.607,swahili,2020.2.4,Win32,60,,,,,,,,,,,,,,,,,,,,,,TREASURE - DAFINA,,,,,,,,,,return,3.95872,19,0,19,0,1,,,,,,,,,,,,,,,,,,,,,,,,,,,,,,,,,,,,,,,,,,,,,,,,,,,,,,,,,,,,,,,,
,,,,,,,,,,00001555279,2020-10-23_18h08.15.607,swahili,2020.2.4,Win32,60,,,,,,,,,,,,,,,,,,,,,,,,,,,,,,,,,,,,,,,,0,0,0,0,1,,,,,,,,,,,,,,,,,,,,,,,,,,,,,,,,,,,,,,,,,,,,,,,,,,,,,,,,,,
,,,,,,,,,,00001555279,2020-10-23_18h08.15.607,swahili,2020.2.4,Win32,60,,,,,,,,,,,,,,,,,,,,,,,,,,,,,,,,,,,,,,,,1,0,1,0,1,,,,,,,,,,,,,,,,,,,,,,,,,,,,,,,,,,,,,,,,,,,,,,,,,,,,,,,,,,
,,,,,,,,,,00001555279,2020-10-23_18h08.15.607,swahili,2020.2.4,Win32,60,,,,,,,,,,,,,,,,,,,,,,,,,,,,,,,,,,,,,,,,,,,,,0,0,0,0,1,,,,,,,,,,,,,,,,,,,,,,,,,,,,,,,,,,,,,,,,,,,,,,,,,,,,,
,,,,,,,,,,00001555279,2020-10-23_18h08.15.607,swahili,2020.2.4,Win32,60,,,,,,,,,,-0.183333309,0.020370341,1,0,0,7.186305,unsorted_card,0,0,0,0,1,,,,,,,,,,,,,,,,,,,,,,,,,,,,,,,,,,,,,,,,,,,,,,,,,,,,,,,,,,,,,,,,,,,,,,,,,,,,,,,,,
,,,,,,,,,,00001555279,2020-10-23_18h08.15.607,swahili,2020.2.4,Win32,60,,,,,,,,,,0.505208378,0.529629587,1,0,0,4.029645,study_pile,1,0,1,0,1,MERCHANT - TAJIRI,,,,,,,,,,,,,,,,,,,,,,,,,,,,,,,,,,,,,,,,,,,,,,,,,,,,,,,,,,,,,,,,,,,,,,,,,,,,,,,,
,,,,,,,,,,00001555279,2020-10-23_18h08.15.607,swahili,2020.2.4,Win32,60,,,,,,,,,,-0.180208309,0.053703619,1,0,0,0.86482,unsorted_card,2,0,2,0,1,,,,,,,,,,,,,,,,,,,,,,,,,,,,,,,,,,,,,,,,,,,,,,,,,,,,,,,,,,,,,,,,,,,,,,,,,,,,,,,,,
,,,,,,,,,,00001555279,2020-10-23_18h08.15.607,swahili,2020.2.4,Win32,60,,,,,,,,,,0.529166712,0.5907407,1,0,0,4.046425,study_pile,3,0,3,0,1,PARROT - KASUKU,,,,,,,,,,,,,,,,,,,,,,,,,,,,,,,,,,,,,,,,,,,,,,,,,,,,,,,,,,,,,,,,,,,,,,,,,,,,,,,,
,,,,,,,,,,00001555279,2020-10-23_18h08.15.607,swahili,2020.2.4,Win32,60,,,,,,,,,,-0.186458309,0.06481473,1,0,0,0.881765,unsorted_card,4,0,4,0,1,,,,,,,,,,,,,,,,,,,,,,,,,,,,,,,,,,,,,,,,,,,,,,,,,,,,,,,,,,,,,,,,,,,,,,,,,,,,,,,,,
,,,,,,,,,,00001555279,2020-10-23_18h08.15.607,swahili,2020.2.4,Win32,60,,,,,,,,,,0.446875043,0.388888871,1,0,0,5.046165,study_pile,5,0,5,0,1,BULL - FAHILI,,,,,,,,,,,,,,,,,,,,,,,,,,,,,,,,,,,,,,,,,,,,,,,,,,,,,,,,,,,,,,,,,,,,,,,,,,,,,,,,
,,,,,,,,,,00001555279,2020-10-23_18h08.15.607,swahili,2020.2.4,Win32,60,,,,,,,,,,-0.403124982,-0.033333364,1,0,0,0.665265,unsorted_card,6,0,6,0,1,,,,,,,,,,,,,,,,,,,,,,,,,,,,,,,,,,,,,,,,,,,,,,,,,,,,,,,,,,,,,,,,,,,,,,,,,,,,,,,,,
,,,,,,,,,,00001555279,2020-10-23_18h08.15.607,swahili,2020.2.4,Win32,60,,,,,,,,,,0.436458376,0.481481466,1,0,0,7.444705,study_pile,7,0,7,0,1,PLATE - SAHANI,,,,,,,,,,,,,,,,,,,,,,,,,,,,,,,,,,,,,,,,,,,,,,,,,,,,,,,,,,,,,,,,,,,,,,,,,,,,,,,,
,,,,,,,,,,00001555279,2020-10-23_18h08.15.607,swahili,2020.2.4,Win32,60,,,,,,,,,,-0.402083316,-0.125925959,1,0,0,0.765315,unsorted_card,8,0,8,0,1,,,,,,,,,,,,,,,,,,,,,,,,,,,,,,,,,,,,,,,,,,,,,,,,,,,,,,,,,,,,,,,,,,,,,,,,,,,,,,,,,
,,,,,,,,,,00001555279,2020-10-23_18h08.15.607,swahili,2020.2.4,Win32,60,,,,,,,,,,0.413541709,0.438888872,1,0,0,4.146175,study_pile,9,0,9,0,1,YEAST - HAMIRA,,,,,,,,,,,,,,,,,,,,,,,,,,,,,,,,,,,,,,,,,,,,,,,,,,,,,,,,,,,,,,,,,,,,,,,,,,,,,,,,
,,,,,,,,,,00001555279,2020-10-23_18h08.15.607,swahili,2020.2.4,Win32,60,,,,,,,,,,-0.206249976,-0.018518549,1,0,0,1.681215,unsorted_card,10,0,10,0,1,,,,,,,,,,,,,,,,,,,,,,,,,,,,,,,,,,,,,,,,,,,,,,,,,,,,,,,,,,,,,,,,,,,,,,,,,,,,,,,,,
,,,,,,,,,,00001555279,2020-10-23_18h08.15.607,swahili,2020.2.4,Win32,60,,,,,,,,,,0.44479171,0.433333316,1,0,0,4.08047,study_pile,11,0,11,0,1,BLAME - LAWAMA,,,,,,,,,,,,,,,,,,,,,,,,,,,,,,,,,,,,,,,,,,,,,,,,,,,,,,,,,,,,,,,,,,,,,,,,,,,,,,,,
,,,,,,,,,,00001555279,2020-10-23_18h08.15.607,swahili,2020.2.4,Win32,60,,,,,,,,,,-0.143749974,0.042592564,1,0,0,0.614775,unsorted_card,12,0,12,0,1,,,,,,,,,,,,,,,,,,,,,,,,,,,,,,,,,,,,,,,,,,,,,,,,,,,,,,,,,,,,,,,,,,,,,,,,,,,,,,,,,
,,,,,,,,,,00001555279,2020-10-23_18h08.15.607,swahili,2020.2.4,Win32,60,,,,,,,,,,0.506250045,0.527777764,1,0,0,3.24751,study_pile,13,0,13,0,1,OATH - YAMINI,,,,,,,,,,,,,,,,,,,,,,,,,,,,,,,,,,,,,,,,,,,,,,,,,,,,,,,,,,,,,,,,,,,,,,,,,,,,,,,,
,,,,,,,,,,00001555279,2020-10-23_18h08.15.607,swahili,2020.2.4,Win32,60,,,,,,,,,,-0.272916645,0.10370362,1,0,0,0.59831,unsorted_card,14,0,14,0,1,,,,,,,,,,,,,,,,,,,,,,,,,,,,,,,,,,,,,,,,,,,,,,,,,,,,,,,,,,,,,,,,,,,,,,,,,,,,,,,,,
,,,,,,,,,,00001555279,2020-10-23_18h08.15.607,swahili,2020.2.4,Win32,60,,,,,,,,,,-0.179166579,-0.100000033,1,0,0,1.981945,unsorted_card,15,0,15,0,1,CORN - NAFAKA,,,,,,,,,,,,,,,,,,,,,,,,,,,,,,,,,,,,,,,,,,,,,,,,,,,,,,,,,,,,,,,,,,,,,,,,,,,,,,,,
,,,,,,,,,,00001555279,2020-10-23_18h08.15.607,swahili,2020.2.4,Win32,60,,,,,,,,,,0.403125042,0.43703702,1,0,0,0.831825,study_pile,16,0,16,0,1,CORN - NAFAKA,,,,,,,,,,,,,,,,,,,,,,,,,,,,,,,,,,,,,,,,,,,,,,,,,,,,,,,,,,,,,,,,,,,,,,,,,,,,,,,,
,,,,,,,,,,00001555279,2020-10-23_18h08.15.607,swahili,2020.2.4,Win32,60,,,,,,,,,,-0.360416648,0.027777749,1,0,0,0.632435,unsorted_card,17,0,17,0,1,,,,,,,,,,,,,,,,,,,,,,,,,,,,,,,,,,,,,,,,,,,,,,,,,,,,,,,,,,,,,,,,,,,,,,,,,,,,,,,,,
,,,,,,,,,,00001555279,2020-10-23_18h08.15.607,swahili,2020.2.4,Win32,60,,,,,,,,,,0.520833379,0.624074035,1,0,0,2.014105,study_pile,18,0,18,0,1,POEM - UTENZI,,,,,,,,,,,,,,,,,,,,,,,,,,,,,,,,,,,,,,,,,,,,,,,,,,,,,,,,,,,,,,,,,,,,,,,,,,,,,,,,
,,,,,,,,,,00001555279,2020-10-23_18h08.15.607,swahili,2020.2.4,Win32,60,,,,,,,,,,-0.145833308,0.053703619,1,0,0,0.79927,unsorted_card,19,0,19,0,1,,,,,,,,,,,,,,,,,,,,,,,,,,,,,,,,,,,,,,,,,,,,,,,,,,,,,,,,,,,,,,,,,,,,,,,,,,,,,,,,,
,,,,,,,,,,00001555279,2020-10-23_18h08.15.607,swahili,2020.2.4,Win32,60,,,,,,,,,,0.453125043,0.525925912,1,0,0,3.09768,study_pile,20,0,20,0,1,TAILOR - MSHONI,,,,,,,,,,,,,,,,,,,,,,,,,,,,,,,,,,,,,,,,,,,,,,,,,,,,,,,,,,,,,,,,,,,,,,,,,,,,,,,,
,,,,,,,,,,00001555279,2020-10-23_18h08.15.607,swahili,2020.2.4,Win32,60,,,,,,,,,,-0.354166647,-2.9823E-08,1,0,0,0.614745,unsorted_card,21,0,21,0,1,,,,,,,,,,,,,,,,,,,,,,,,,,,,,,,,,,,,,,,,,,,,,,,,,,,,,,,,,,,,,,,,,,,,,,,,,,,,,,,,,
,,,,,,,,,,00001555279,2020-10-23_18h08.15.607,swahili,2020.2.4,Win32,60,,,,,,,,,,0.461458377,0.442592576,1,0,0,1.881085,study_pile,22,0,22,0,1,CHEESE - JIBINI,,,,,,,,,,,,,,,,,,,,,,,,,,,,,,,,,,,,,,,,,,,,,,,,,,,,,,,,,,,,,,,,,,,,,,,,,,,,,,,,
,,,,,,,,,,00001555279,2020-10-23_18h08.15.607,swahili,2020.2.4,Win32,60,,,,,,,,,,-0.410416649,-2.9823E-08,1,0,0,0.71562,unsorted_card,23,0,23,0,1,,,,,,,,,,,,,,,,,,,,,,,,,,,,,,,,,,,,,,,,,,,,,,,,,,,,,,,,,,,,,,,,,,,,,,,,,,,,,,,,,
,,,,,,,,,,00001555279,2020-10-23_18h08.15.607,swahili,2020.2.4,Win32,60,,,,,,,,,,0.553125046,0.583333321,1,0,0,3.38087,study_pile,24,0,24,0,1,GRAPES - ZABIBU,,,,,,,,,,,,,,,,,,,,,,,,,,,,,,,,,,,,,,,,,,,,,,,,,,,,,,,,,,,,,,,,,,,,,,,,,,,,,,,,
,,,,,,,,,,00001555279,2020-10-23_18h08.15.607,swahili,2020.2.4,Win32,60,,,,,,,,,,-0.238541644,0.024074045,1,0,0,0.781315,unsorted_card,25,0,25,0,1,,,,,,,,,,,,,,,,,,,,,,,,,,,,,,,,,,,,,,,,,,,,,,,,,,,,,,,,,,,,,,,,,,,,,,,,,,,,,,,,,
,,,,,,,,,,00001555279,2020-10-23_18h08.15.607,swahili,2020.2.4,Win32,60,,,,,,,,,,0.537500046,0.599999988,1,0,0,10.043595,study_pile,26,0,26,0,1,GRAVE - KABURI,,,,,,,,,,,,,,,,,,,,,,,,,,,,,,,,,,,,,,,,,,,,,,,,,,,,,,,,,,,,,,,,,,,,,,,,,,,,,,,,
,,,,,,,,,,00001555279,2020-10-23_18h08.15.607,swahili,2020.2.4,Win32,60,,,,,,,,,,-0.192708309,-0.007407437,1,0,0,0.845765,unsorted_card,27,0,27,0,1,,,,,,,,,,,,,,,,,,,,,,,,,,,,,,,,,,,,,,,,,,,,,,,,,,,,,,,,,,,,,,,,,,,,,,,,,,,,,,,,,
,,,,,,,,,,00001555279,2020-10-23_18h08.15.607,swahili,2020.2.4,Win32,60,,,,,,,,,,0.521875045,0.525925912,1,0,0,3.480555,study_pile,28,0,28,0,1,MANURE - SAMADI,,,,,,,,,,,,,,,,,,,,,,,,,,,,,,,,,,,,,,,,,,,,,,,,,,,,,,,,,,,,,,,,,,,,,,,,,,,,,,,,
,,,,,,,,,,00001555279,2020-10-23_18h08.15.607,swahili,2020.2.4,Win32,60,,,,,,,,,,-0.365624981,0.020370341,1,0,0,0.59801,unsorted_card,29,0,29,0,1,,,,,,,,,,,,,,,,,,,,,,,,,,,,,,,,,,,,,,,,,,,,,,,,,,,,,,,,,,,,,,,,,,,,,,,,,,,,,,,,,
,,,,,,,,,,00001555279,2020-10-23_18h08.15.607,swahili,2020.2.4,Win32,60,,,,,,,,,,0.496875045,0.527777764,1,0,0,2.81445,study_pile,30,0,30,0,1,AGENT - WAKILI,,,,,,,,,,,,,,,,,,,,,,,,,,,,,,,,,,,,,,,,,,,,,,,,,,,,,,,,,,,,,,,,,,,,,,,,,,,,,,,,
,,,,,,,,,,00001555279,2020-10-23_18h08.15.607,swahili,2020.2.4,Win32,60,,,,,,,,,,-0.261458311,0.075925842,1,0,0,0.66554,unsorted_card,31,0,31,0,1,,,,,,,,,,,,,,,,,,,,,,,,,,,,,,,,,,,,,,,,,,,,,,,,,,,,,,,,,,,,,,,,,,,,,,,,,,,,,,,,,
,,,,,,,,,,00001555279,2020-10-23_18h08.15.607,swahili,2020.2.4,Win32,60,,,,,,,,,,0.480208377,0.424074057,1,0,0,1.76497,study_pile,32,0,32,0,1,BRIBE - RUSHWA,,,,,,,,,,,,,,,,,,,,,,,,,,,,,,,,,,,,,,,,,,,,,,,,,,,,,,,,,,,,,,,,,,,,,,,,,,,,,,,,
,,,,,,,,,,00001555279,2020-10-23_18h08.15.607,swahili,2020.2.4,Win32,60,,,,,,,,,,-0.286458312,0.012962934,1,0,0,0.68253,unsorted_card,33,0,33,0,1,,,,,,,,,,,,,,,,,,,,,,,,,,,,,,,,,,,,,,,,,,,,,,,,,,,,,,,,,,,,,,,,,,,,,,,,,,,,,,,,,
,,,,,,,,,,00001555279,2020-10-23_18h08.15.607,swahili,2020.2.4,Win32,60,,,,,,,,,,0.393750042,0.412962945,1,0,0,2.84698,study_pile,34,0,34,0,1,ORPHAN - YATIMA,,,,,,,,,,,,,,,,,,,,,,,,,,,,,,,,,,,,,,,,,,,,,,,,,,,,,,,,,,,,,,,,,,,,,,,,,,,,,,,,
,,,,,,,,,,00001555279,2020-10-23_18h08.15.607,swahili,2020.2.4,Win32,60,,,,,,,,,,-0.34062498,-0.081481514,1,0,0,0.649195,unsorted_card,35,0,35,0,1,,,,,,,,,,,,,,,,,,,,,,,,,,,,,,,,,,,,,,,,,,,,,,,,,,,,,,,,,,,,,,,,,,,,,,,,,,,,,,,,,
,,,,,,,,,,00001555279,2020-10-23_18h08.15.607,swahili,2020.2.4,Win32,60,,,,,,,,,,0.496875045,0.5148148,1,0,0,3.014075,study_pile,36,0,36,0,1,DIVORCE - TALAKA,,,,,,,,,,,,,,,,,,,,,,,,,,,,,,,,,,,,,,,,,,,,,,,,,,,,,,,,,,,,,,,,,,,,,,,,,,,,,,,,
,,,,,,,,,,00001555279,2020-10-23_18h08.15.607,swahili,2020.2.4,Win32,60,,,,,,,,,,-0.170833309,0.138888863,1,0,0,0.68229,unsorted_card,37,0,37,0,1,,,,,,,,,,,,,,,,,,,,,,,,,,,,,,,,,,,,,,,,,,,,,,,,,,,,,,,,,,,,,,,,,,,,,,,,,,,,,,,,,
,,,,,,,,,,00001555279,2020-10-23_18h08.15.607,swahili,2020.2.4,Win32,60,,,,,,,,,,0.494791711,0.501851837,1,0,0,2.49764,study_pile,38,0,38,0,1,BOAT - MASHUA,,,,,,,,,,,,,,,,,,,,,,,,,,,,,,,,,,,,,,,,,,,,,,,,,,,,,,,,,,,,,,,,,,,,,,,,,,,,,,,,
,,,,,,,,,,00001555279,2020-10-23_18h08.15.607,swahili,2020.2.4,Win32,60,,,,,,,,,,-0.32812498,-0.012962993,1,0,0,0.74843,unsorted_card,39,0,39,0,1,,,,,,,,,,,,,,,,,,,,,,,,,,,,,,,,,,,,,,,,,,,,,,,,,,,,,,,,,,,,,,,,,,,,,,,,,,,,,,,,,
,,,,,,,,,,00001555279,2020-10-23_18h08.15.607,swahili,2020.2.4,Win32,60,,,,,,,,,,0.482291711,0.487037022,1,0,0,1.765295,study_pile,40,0,40,0,1,TREASURE - DAFINA,,,,,,,,,,,,,,,,,,,,,,,,,,,,,,,,,,,,,,,,,,,,,,,,,,,,,,,,,,,,,,,,,,,,,,,,,,,,,,,,
,,,,,,,,,,00001555279,2020-10-23_18h08.15.607,swahili,2020.2.4,Win32,60,,,,,,,,,,,,,,,,,,,,,,BLAME - LAWAMA,,,,,,,,return,2.574485,return,7.69224,0,0,0,0,1,,,,,,,,,,,,,,,,,,,,,,,,,,,,,,,,,,,,,,,,,,,,,,,,,,,,,,,,,,,,,,,,
,,,,,,,,,,00001555279,2020-10-23_18h08.15.607,swahili,2020.2.4,Win32,60,,,,,,,,,,,,,,,,,,,,,,TAILOR - MSHONI,,,,,,,,,,return,2.47138,1,0,1,0,1,,,,,,,,,,,,,,,,,,,,,,,,,,,,,,,,,,,,,,,,,,,,,,,,,,,,,,,,,,,,,,,,
,,,,,,,,,,00001555279,2020-10-23_18h08.15.607,swahili,2020.2.4,Win32,60,,,,,,,,,,,,,,,,,,,,,,BOAT - MASHUA,,,,,,,,,,return,12.662545,2,0,2,0,1,,,,,,,,,,,,,,,,,,,,,,,,,,,,,,,,,,,,,,,,,,,,,,,,,,,,,,,,,,,,,,,,
,,,,,,,,,,00001555279,2020-10-23_18h08.15.607,swahili,2020.2.4,Win32,60,,,,,,,,,,,,,,,,,,,,,,TREASURE - DAFINA,,,,,,,,,,return,2.25224,3,0,3,0,1,,,,,,,,,,,,,,,,,,,,,,,,,,,,,,,,,,,,,,,,,,,,,,,,,,,,,,,,,,,,,,,,
,,,,,,,,,,00001555279,2020-10-23_18h08.15.607,swahili,2020.2.4,Win32,60,,,,,,,,,,,,,,,,,,,,,,GRAVE - KABURI,,,,,,,,,,return,14.313695,4,0,4,0,1,,,,,,,,,,,,,,,,,,,,,,,,,,,,,,,,,,,,,,,,,,,,,,,,,,,,,,,,,,,,,,,,
,,,,,,,,,,00001555279,2020-10-23_18h08.15.607,swahili,2020.2.4,Win32,60,,,,,,,,,,,,,,,,,,,,,,YEAST - HAMIRA,,,,,,,,,,return,6.48116,5,0,5,0,1,,,,,,,,,,,,,,,,,,,,,,,,,,,,,,,,,,,,,,,,,,,,,,,,,,,,,,,,,,,,,,,,
,,,,,,,,,,00001555279,2020-10-23_18h08.15.607,swahili,2020.2.4,Win32,60,,,,,,,,,,,,,,,,,,,,,,CHEESE - JIBINI,,,,,,,,,,return,1.905355,6,0,6,0,1,,,,,,,,,,,,,,,,,,,,,,,,,,,,,,,,,,,,,,,,,,,,,,,,,,,,,,,,,,,,,,,,
,,,,,,,,,,00001555279,2020-10-23_18h08.15.607,swahili,2020.2.4,Win32,60,,,,,,,,,,,,,,,,,,,,,,AGENT - WAKILI,,,,,,,,,,return,1.601245,7,0,7,0,1,,,,,,,,,,,,,,,,,,,,,,,,,,,,,,,,,,,,,,,,,,,,,,,,,,,,,,,,,,,,,,,,
,,,,,,,,,,00001555279,2020-10-23_18h08.15.607,swahili,2020.2.4,Win32,60,,,,,,,,,,,,,,,,,,,,,,DIVORCE - TALAKA,,,,,,,,,,return,10.69321,8,0,8,0,1,,,,,,,,,,,,,,,,,,,,,,,,,,,,,,,,,,,,,,,,,,,,,,,,,,,,,,,,,,,,,,,,
,,,,,,,,,,00001555279,2020-10-23_18h08.15.607,swahili,2020.2.4,Win32,60,,,,,,,,,,,,,,,,,,,,,,MERCHANT - TAJIRI,,,,,,,,,,return,4.706115,9,0,9,0,1,,,,,,,,,,,,,,,,,,,,,,,,,,,,,,,,,,,,,,,,,,,,,,,,,,,,,,,,,,,,,,,,
,,,,,,,,,,00001555279,2020-10-23_18h08.15.607,swahili,2020.2.4,Win32,60,,,,,,,,,,,,,,,,,,,,,,OATH - YAMINI,,,,,,,,,,return,5.38488,10,0,10,0,1,,,,,,,,,,,,,,,,,,,,,,,,,,,,,,,,,,,,,,,,,,,,,,,,,,,,,,,,,,,,,,,,
,,,,,,,,,,00001555279,2020-10-23_18h08.15.607,swahili,2020.2.4,Win32,60,,,,,,,,,,,,,,,,,,,,,,ORPHAN - YATIMA,,,,,,,,,,return,8.02244,11,0,11,0,1,,,,,,,,,,,,,,,,,,,,,,,,,,,,,,,,,,,,,,,,,,,,,,,,,,,,,,,,,,,,,,,,
,,,,,,,,,,00001555279,2020-10-23_18h08.15.607,swahili,2020.2.4,Win32,60,,,,,,,,,,,,,,,,,,,,,,PARROT - KASUKU,,,,,,,,,,return,6.780975,12,0,12,0,1,,,,,,,,,,,,,,,,,,,,,,,,,,,,,,,,,,,,,,,,,,,,,,,,,,,,,,,,,,,,,,,,
,,,,,,,,,,00001555279,2020-10-23_18h08.15.607,swahili,2020.2.4,Win32,60,,,,,,,,,,,,,,,,,,,,,,POEM - UTENZI,,,,,,,,,,return,1.44732,13,0,13,0,1,,,,,,,,,,,,,,,,,,,,,,,,,,,,,,,,,,,,,,,,,,,,,,,,,,,,,,,,,,,,,,,,
,,,,,,,,,,00001555279,2020-10-23_18h08.15.607,swahili,2020.2.4,Win32,60,,,,,,,,,,,,,,,,,,,,,,MANURE - SAMADI,,,,,,,,,,return,2.1879,14,0,14,0,1,,,,,,,,,,,,,,,,,,,,,,,,,,,,,,,,,,,,,,,,,,,,,,,,,,,,,,,,,,,,,,,,
,,,,,,,,,,00001555279,2020-10-23_18h08.15.607,swahili,2020.2.4,Win32,60,,,,,,,,,,,,,,,,,,,,,,BULL - FAHILI,,,,,,,,,,return,2.81709,15,0,15,0,1,,,,,,,,,,,,,,,,,,,,,,,,,,,,,,,,,,,,,,,,,,,,,,,,,,,,,,,,,,,,,,,,
,,,,,,,,,,00001555279,2020-10-23_18h08.15.607,swahili,2020.2.4,Win32,60,,,,,,,,,,,,,,,,,,,,,,BRIBE - RUSHWA,,,,,,,,,,return,2.89637,16,0,16,0,1,,,,,,,,,,,,,,,,,,,,,,,,,,,,,,,,,,,,,,,,,,,,,,,,,,,,,,,,,,,,,,,,
,,,,,,,,,,00001555279,2020-10-23_18h08.15.607,swahili,2020.2.4,Win32,60,,,,,,,,,,,,,,,,,,,,,,CORN - NAFAKA,,,,,,,,,,return,2.01618,17,0,17,0,1,,,,,,,,,,,,,,,,,,,,,,,,,,,,,,,,,,,,,,,,,,,,,,,,,,,,,,,,,,,,,,,,
,,,,,,,,,,00001555279,2020-10-23_18h08.15.607,swahili,2020.2.4,Win32,60,,,,,,,,,,,,,,,,,,,,,,GRAPES - ZABIBU,,,,,,,,,,return,2.69708,18,0,18,0,1,,,,,,,,,,,,,,,,,,,,,,,,,,,,,,,,,,,,,,,,,,,,,,,,,,,,,,,,,,,,,,,,
,,,,,,,,,,00001555279,2020-10-23_18h08.15.607,swahili,2020.2.4,Win32,60,,,,,,,,,,,,,,,,,,,,,,PLATE - SAHANI,,,,,,,,,,return,1.93653,19,0,19,0,1,,,,,,,,,,,,,,,,,,,,,,,,,,,,,,,,,,,,,,,,,,,,,,,,,,,,,,,,,,,,,,,,
,,,,,,,,,,00001555279,2020-10-23_18h08.15.607,swahili,2020.2.4,Win32,60,,,,,,,,,,,,,,,,,,,,,,,,,,,,,,,,,,,,,,,,0,0,0,0,1,,,,,,,,,,,,,,,,,,,,,,,,,,,,,,,,,,,,,,,,,,,,,,,,,,,,,,,,,,
,,,,,,,,,,00001555279,2020-10-23_18h08.15.607,swahili,2020.2.4,Win32,60,,,,,,,,,,,,,,,,,,,,,,,,,,,,,,,,,,,,,,,,1,0,1,0,1,,,,,,,,,,,,,,,,,,,,,,,,,,,,,,,,,,,,,,,,,,,,,,,,,,,,,,,,,,
,,,,,,,,,,00001555279,2020-10-23_18h08.15.607,swahili,2020.2.4,Win32,60,,,,,,,,,,,,,,,,,,,,,,,,,,,,,,,,,,,,,,,,,,,,,1,0,1,0,1,,,,,,,,,,,,,,,,,,,,,,,,,,,,,,,,,,,,,,,,,,,,,,,,,,,,,
,,,,,,,,,,00001555279,2020-10-23_18h08.15.607,swahili,2020.2.4,Win32,60,,,,,,,,,,-0.365624981,-0.137037071,1,0,0,1.42514,unsorted_card,0,0,0,0,1,,,,,,,,,,,,,,,,,,,,,,,,,,,,,,,,,,,,,,,,,,,,,,,,,,,,,,,,,,,,,,,,,,,,,,,,,,,,,,,,,
,,,,,,,,,,00001555279,2020-10-23_18h08.15.607,swahili,2020.2.4,Win32,60,,,,,,,,,,0.509375045,-2.9823E-08,1,0,0,1.56529,test_pile,1,0,1,0,1,MERCHANT - TAJIRI,,,,,,,,,,,,,,,,,,,,,,,,,,,,,,,,,,,,,,,,,,,,,,,,,,,,,,,,,,,,,,,,,,,,,,,,,,,,,,,,
,,,,,,,,,,00001555279,2020-10-23_18h08.15.607,swahili,2020.2.4,Win32,60,,,,,,,,,,-0.180208309,-0.131481515,1,0,0,0.93211,unsorted_card,2,0,2,0,1,,,,,,,,,,,,,,,,,,,,,,,,,,,,,,,,,,,,,,,,,,,,,,,,,,,,,,,,,,,,,,,,,,,,,,,,,,,,,,,,,
,,,,,,,,,,00001555279,2020-10-23_18h08.15.607,swahili,2020.2.4,Win32,60,,,,,,,,,,0.45104171,-0.020370401,1,0,0,1.86457,test_pile,3,0,3,0,1,PARROT - KASUKU,,,,,,,,,,,,,,,,,,,,,,,,,,,,,,,,,,,,,,,,,,,,,,,,,,,,,,,,,,,,,,,,,,,,,,,,,,,,,,,,
,,,,,,,,,,00001555279,2020-10-23_18h08.15.607,swahili,2020.2.4,Win32,60,,,,,,,,,,-0.242708311,0.020370341,1,0,0,0.649035,unsorted_card,4,0,4,0,1,,,,,,,,,,,,,,,,,,,,,,,,,,,,,,,,,,,,,,,,,,,,,,,,,,,,,,,,,,,,,,,,,,,,,,,,,,,,,,,,,
,,,,,,,,,,00001555279,2020-10-23_18h08.15.607,swahili,2020.2.4,Win32,60,,,,,,,,,,0.485416711,-0.009259289,1,0,0,1.981205,test_pile,5,0,5,0,1,BULL - FAHILI,,,,,,,,,,,,,,,,,,,,,,,,,,,,,,,,,,,,,,,,,,,,,,,,,,,,,,,,,,,,,,,,,,,,,,,,,,,,,,,,
,,,,,,,,,,00001555279,2020-10-23_18h08.15.607,swahili,2020.2.4,Win32,60,,,,,,,,,,-0.342708314,0.107407381,1,0,0,0.63233,unsorted_card,6,0,6,0,1,,,,,,,,,,,,,,,,,,,,,,,,,,,,,,,,,,,,,,,,,,,,,,,,,,,,,,,,,,,,,,,,,,,,,,,,,,,,,,,,,
,,,,,,,,,,00001555279,2020-10-23_18h08.15.607,swahili,2020.2.4,Win32,60,,,,,,,,,,0.521875045,-0.005555586,1,0,0,2.61449,test_pile,7,0,7,0,1,PLATE - SAHANI,,,,,,,,,,,,,,,,,,,,,,,,,,,,,,,,,,,,,,,,,,,,,,,,,,,,,,,,,,,,,,,,,,,,,,,,,,,,,,,,
,,,,,,,,,,00001555279,2020-10-23_18h08.15.607,swahili,2020.2.4,Win32,60,,,,,,,,,,-0.153124975,0.118518492,1,0,0,1.96424,unsorted_card,8,0,8,0,1,,,,,,,,,,,,,,,,,,,,,,,,,,,,,,,,,,,,,,,,,,,,,,,,,,,,,,,,,,,,,,,,,,,,,,,,,,,,,,,,,
,,,,,,,,,,00001555279,2020-10-23_18h08.15.607,swahili,2020.2.4,Win32,60,,,,,,,,,,0.516666712,-0.105555589,1,0,0,4.76268,test_pile,9,0,9,0,1,YEAST - HAMIRA,,,,,,,,,,,,,,,,,,,,,,,,,,,,,,,,,,,,,,,,,,,,,,,,,,,,,,,,,,,,,,,,,,,,,,,,,,,,,,,,
,,,,,,,,,,00001555279,2020-10-23_18h08.15.607,swahili,2020.2.4,Win32,60,,,,,,,,,,-0.242708311,-0.057407439,1,0,0,1.28152,unsorted_card,10,0,10,0,1,,,,,,,,,,,,,,,,,,,,,,,,,,,,,,,,,,,,,,,,,,,,,,,,,,,,,,,,,,,,,,,,,,,,,,,,,,,,,,,,,
,,,,,,,,,,00001555279,2020-10-23_18h08.15.607,swahili,2020.2.4,Win32,60,,,,,,,,,,0.352083374,-0.037037068,1,0,0,9.11014,test_pile,11,0,11,0,1,BLAME - LAWAMA,,,,,,,,,,,,,,,,,,,,,,,,,,,,,,,,,,,,,,,,,,,,,,,,,,,,,,,,,,,,,,,,,,,,,,,,,,,,,,,,
,,,,,,,,,,00001555279,2020-10-23_18h08.15.607,swahili,2020.2.4,Win32,60,,,,,,,,,,-0.338541647,-0.024074105,1,0,0,0.848555,unsorted_card,12,0,12,0,1,,,,,,,,,,,,,,,,,,,,,,,,,,,,,,,,,,,,,,,,,,,,,,,,,,,,,,,,,,,,,,,,,,,,,,,,,,,,,,,,,
,,,,,,,,,,00001555279,2020-10-23_18h08.15.607,swahili,2020.2.4,Win32,60,,,,,,,,,,0.402083375,0.025925897,1,0,0,3.04687,test_pile,13,0,13,0,1,OATH - YAMINI,,,,,,,,,,,,,,,,,,,,,,,,,,,,,,,,,,,,,,,,,,,,,,,,,,,,,,,,,,,,,,,,,,,,,,,,,,,,,,,,
,,,,,,,,,,00001555279,2020-10-23_18h08.15.607,swahili,2020.2.4,Win32,60,,,,,,,,,,0.402083375,0.025925897,1,0,0,1.29905,test_pile,14,0,14,0,1,,,,,,,,,,,,,,,,,,,,,,,,,,,,,,,,,,,,,,,,,,,,,,,,,,,,,,,,,,,,,,,,,,,,,,,,,,,,,,,,,
,,,,,,,,,,00001555279,2020-10-23_18h08.15.607,swahili,2020.2.4,Win32,60,,,,,,,,,,-0.327083313,0.074074046,1,0,0,1.381885,unsorted_card,15,0,15,0,1,,,,,,,,,,,,,,,,,,,,,,,,,,,,,,,,,,,,,,,,,,,,,,,,,,,,,,,,,,,,,,,,,,,,,,,,,,,,,,,,,
,,,,,,,,,,00001555279,2020-10-23_18h08.15.607,swahili,2020.2.4,Win32,60,,,,,,,,,,0.410416709,-0.114814848,1,0,0,2.46416,test_pile,16,0,16,0,1,CORN - NAFAKA,,,,,,,,,,,,,,,,,,,,,,,,,,,,,,,,,,,,,,,,,,,,,,,,,,,,,,,,,,,,,,,,,,,,,,,,,,,,,,,,
,,,,,,,,,,00001555279,2020-10-23_18h08.15.607,swahili,2020.2.4,Win32,60,,,,,,,,,,-0.494791652,-0.037037068,1,0,0,1.03235,unsorted_card,17,0,17,0,1,,,,,,,,,,,,,,,,,,,,,,,,,,,,,,,,,,,,,,,,,,,,,,,,,,,,,,,,,,,,,,,,,,,,,,,,,,,,,,,,,
,,,,,,,,,,00001555279,2020-10-23_18h08.15.607,swahili,2020.2.4,Win32,60,,,,,,,,,,0.404166709,-0.014814845,1,0,0,2.047945,test_pile,18,0,18,0,1,POEM - UTENZI,,,,,,,,,,,,,,,,,,,,,,,,,,,,,,,,,,,,,,,,,,,,,,,,,,,,,,,,,,,,,,,,,,,,,,,,,,,,,,,,
,,,,,,,,,,00001555279,2020-10-23_18h08.15.607,swahili,2020.2.4,Win32,60,,,,,,,,,,-0.359374981,0.129629604,1,0,0,1.73152,unsorted_card,19,0,19,0,1,,,,,,,,,,,,,,,,,,,,,,,,,,,,,,,,,,,,,,,,,,,,,,,,,,,,,,,,,,,,,,,,,,,,,,,,,,,,,,,,,
,,,,,,,,,,00001555279,2020-10-23_18h08.15.607,swahili,2020.2.4,Win32,60,,,,,,,,,,0.450000043,-0.018518549,1,0,0,7.811345,test_pile,20,0,20,0,1,TAILOR - MSHONI,,,,,,,,,,,,,,,,,,,,,,,,,,,,,,,,,,,,,,,,,,,,,,,,,,,,,,,,,,,,,,,,,,,,,,,,,,,,,,,,
,,,,,,,,,,00001555279,2020-10-23_18h08.15.607,swahili,2020.2.4,Win32,60,,,,,,,,,,-0.241666644,-0.070370402,1,0,0,2.014,unsorted_card,21,0,21,0,1,,,,,,,,,,,,,,,,,,,,,,,,,,,,,,,,,,,,,,,,,,,,,,,,,,,,,,,,,,,,,,,,,,,,,,,,,,,,,,,,,
,,,,,,,,,,00001555279,2020-10-23_18h08.15.607,swahili,2020.2.4,Win32,60,,,,,,,,,,0.407291709,-0.020370401,1,0,0,2.54755,test_pile,22,0,22,0,1,CHEESE - JIBINI,,,,,,,,,,,,,,,,,,,,,,,,,,,,,,,,,,,,,,,,,,,,,,,,,,,,,,,,,,,,,,,,,,,,,,,,,,,,,,,,
,,,,,,,,,,00001555279,2020-10-23_18h08.15.607,swahili,2020.2.4,Win32,60,,,,,,,,,,-0.156249975,-0.062962995,1,0,0,0.96517,unsorted_card,23,0,23,0,1,,,,,,,,,,,,,,,,,,,,,,,,,,,,,,,,,,,,,,,,,,,,,,,,,,,,,,,,,,,,,,,,,,,,,,,,,,,,,,,,,
,,,,,,,,,,00001555279,2020-10-23_18h08.15.607,swahili,2020.2.4,Win32,60,,,,,,,,,,0.44166671,-0.131481515,1,0,0,2.53089,test_pile,24,0,24,0,1,GRAPES - ZABIBU,,,,,,,,,,,,,,,,,,,,,,,,,,,,,,,,,,,,,,,,,,,,,,,,,,,,,,,,,,,,,,,,,,,,,,,,,,,,,,,,
,,,,,,,,,,00001555279,2020-10-23_18h08.15.607,swahili,2020.2.4,Win32,60,,,,,,,,,,-0.198958309,-0.011111141,1,0,0,1.3479,unsorted_card,25,0,25,0,1,,,,,,,,,,,,,,,,,,,,,,,,,,,,,,,,,,,,,,,,,,,,,,,,,,,,,,,,,,,,,,,,,,,,,,,,,,,,,,,,,
,,,,,,,,,,00001555279,2020-10-23_18h08.15.607,swahili,2020.2.4,Win32,60,,,,,,,,,,0.546875046,-0.062962995,1,0,0,3.09712,test_pile,26,0,26,0,1,GRAVE - KABURI,,,,,,,,,,,,,,,,,,,,,,,,,,,,,,,,,,,,,,,,,,,,,,,,,,,,,,,,,,,,,,,,,,,,,,,,,,,,,,,,
,,,,,,,,,,00001555279,2020-10-23_18h08.15.607,swahili,2020.2.4,Win32,60,,,,,,,,,,-0.141666578,-0.06851855,1,0,0,0.86508,unsorted_card,27,0,27,0,1,,,,,,,,,,,,,,,,,,,,,,,,,,,,,,,,,,,,,,,,,,,,,,,,,,,,,,,,,,,,,,,,,,,,,,,,,,,,,,,,,
,,,,,,,,,,00001555279,2020-10-23_18h08.15.607,swahili,2020.2.4,Win32,60,,,,,,,,,,0.476041711,-0.044444476,1,0,0,4.063245,test_pile,28,0,28,0,1,MANURE - SAMADI,,,,,,,,,,,,,,,,,,,,,,,,,,,,,,,,,,,,,,,,,,,,,,,,,,,,,,,,,,,,,,,,,,,,,,,,,,,,,,,,
,,,,,,,,,,00001555279,2020-10-23_18h08.15.607,swahili,2020.2.4,Win32,60,,,,,,,,,,-0.367708314,0.085185158,1,0,0,1.631715,unsorted_card,29,0,29,0,1,,,,,,,,,,,,,,,,,,,,,,,,,,,,,,,,,,,,,,,,,,,,,,,,,,,,,,,,,,,,,,,,,,,,,,,,,,,,,,,,,
,,,,,,,,,,00001555279,2020-10-23_18h08.15.607,swahili,2020.2.4,Win32,60,,,,,,,,,,0.426041709,-0.103703737,1,0,0,4.179965,test_pile,30,0,30,0,1,AGENT - WAKILI,,,,,,,,,,,,,,,,,,,,,,,,,,,,,,,,,,,,,,,,,,,,,,,,,,,,,,,,,,,,,,,,,,,,,,,,,,,,,,,,
,,,,,,,,,,00001555279,2020-10-23_18h08.15.607,swahili,2020.2.4,Win32,60,,,,,,,,,,-0.234374977,-0.012962993,1,0,0,1.5142,unsorted_card,31,0,31,0,1,,,,,,,,,,,,,,,,,,,,,,,,,,,,,,,,,,,,,,,,,,,,,,,,,,,,,,,,,,,,,,,,,,,,,,,,,,,,,,,,,
,,,,,,,,,,00001555279,2020-10-23_18h08.15.607,swahili,2020.2.4,Win32,60,,,,,,,,,,0.391666708,-0.094444477,1,0,0,2.88128,test_pile,32,0,32,0,1,BRIBE - RUSHWA,,,,,,,,,,,,,,,,,,,,,,,,,,,,,,,,,,,,,,,,,,,,,,,,,,,,,,,,,,,,,,,,,,,,,,,,,,,,,,,,
,,,,,,,,,,00001555279,2020-10-23_18h08.15.607,swahili,2020.2.4,Win32,60,,,,,,,,,,-0.196874976,-0.033333364,1,0,0,0.981345,unsorted_card,33,0,33,0,1,,,,,,,,,,,,,,,,,,,,,,,,,,,,,,,,,,,,,,,,,,,,,,,,,,,,,,,,,,,,,,,,,,,,,,,,,,,,,,,,,
,,,,,,,,,,00001555279,2020-10-23_18h08.15.607,swahili,2020.2.4,Win32,60,,,,,,,,,,0.391666708,0.042592564,1,0,0,9.39324,test_pile,34,0,34,0,1,ORPHAN - YATIMA,,,,,,,,,,,,,,,,,,,,,,,,,,,,,,,,,,,,,,,,,,,,,,,,,,,,,,,,,,,,,,,,,,,,,,,,,,,,,,,,
,,,,,,,,,,00001555279,2020-10-23_18h08.15.607,swahili,2020.2.4,Win32,60,,,,,,,,,,-0.251041644,-0.033333364,1,0,0,1.41521,unsorted_card,35,0,35,0,1,,,,,,,,,,,,,,,,,,,,,,,,,,,,,,,,,,,,,,,,,,,,,,,,,,,,,,,,,,,,,,,,,,,,,,,,,,,,,,,,,
,,,,,,,,,,00001555279,2020-10-23_18h08.15.607,swahili,2020.2.4,Win32,60,,,,,,,,,,0.392708375,0.042592564,1,0,0,4.97893,test_pile,36,0,36,0,1,DIVORCE - TALAKA,,,,,,,,,,,,,,,,,,,,,,,,,,,,,,,,,,,,,,,,,,,,,,,,,,,,,,,,,,,,,,,,,,,,,,,,,,,,,,,,
,,,,,,,,,,00001555279,2020-10-23_18h08.15.607,swahili,2020.2.4,Win32,60,,,,,,,,,,-0.359374981,0.018518489,1,0,0,0.765215,unsorted_card,37,0,37,0,1,,,,,,,,,,,,,,,,,,,,,,,,,,,,,,,,,,,,,,,,,,,,,,,,,,,,,,,,,,,,,,,,,,,,,,,,,,,,,,,,,
,,,,,,,,,,00001555279,2020-10-23_18h08.15.607,swahili,2020.2.4,Win32,60,,,,,,,,,,0.360416707,0.049999972,1,0,0,3.24724,test_pile,38,0,38,0,1,BOAT - MASHUA,,,,,,,,,,,,,,,,,,,,,,,,,,,,,,,,,,,,,,,,,,,,,,,,,,,,,,,,,,,,,,,,,,,,,,,,,,,,,,,,
,,,,,,,,,,00001555279,2020-10-23_18h08.15.607,swahili,2020.2.4,Win32,60,,,,,,,,,,-0.431249983,-0.031481512,1,0,0,0.78209,unsorted_card,39,0,39,0,1,,,,,,,,,,,,,,,,,,,,,,,,,,,,,,,,,,,,,,,,,,,,,,,,,,,,,,,,,,,,,,,,,,,,,,,,,,,,,,,,,
,,,,,,,,,,00001555279,2020-10-23_18h08.15.607,swahili,2020.2.4,Win32,60,,,,,,,,,,0.397916708,-0.055555587,1,0,0,2.164945,test_pile,40,0,40,0,1,TREASURE - DAFINA,,,,,,,,,,,,,,,,,,,,,,,,,,,,,,,,,,,,,,,,,,,,,,,,,,,,,,,,,,,,,,,,,,,,,,,,,,,,,,,,
,,,,,,,,,,00001555279,2020-10-23_18h08.15.607,swahili,2020.2.4,Win32,60,,,,,,,,,,,,,,,,,,,,,,,,,,,,,,,,,,0,0,0,0,1,,,,,,,,,,,,,,,,,,,,,,,,,,,,,,,,,,,,,,,,,,,,,,,,,,,,,,,,,,,,,,,,
,,,,,,,,,,00001555279,2020-10-23_18h08.15.607,swahili,2020.2.4,Win32,60,,,,,,,,,,,,,,,,,,,,,,,,,,,,,,,,,,,,,,,return,,,,,,,,,,,7.04545,14.455335,0.505208378,0.031481453,1,0,0,1.847255,yes,PLATE,JABINI,incorrect,0,0,0,0,1,,,,,,,,,,,,,,,,,,,,,,,,,,,,,,,,,,,,
,,,,,,,,,,00001555279,2020-10-23_18h08.15.607,swahili,2020.2.4,Win32,60,,,,,,,,,,,,,,,,,,,,,,,,,,,,,,,,,,,,,,,,,,,,,,,,,,,14.989125,0.55833338,0.055555527,1,0,0,1.1828,yes,BLAME,F,incorrect,1,0,1,0,1,,,,,,,,,,,,,,,,,,,,,,,,,,,,,,,,,,,,
,,,,,,,,,,00001555279,2020-10-23_18h08.15.607,swahili,2020.2.4,Win32,60,,,,,,,,,,,,,,,,,,,,,,,,,,,,,,,,,,,,,,,,,,,,,,,,,,,5.5621,0.402083375,-0.131481515,1,0,0,1.24918,yes,BOAT,MASHUA,incorrect,2,0,2,0,1,,,,,,,,,,,,,,,,,,,,,,,,,,,,,,,,,,,,
,,,,,,,,,,00001555279,2020-10-23_18h08.15.607,swahili,2020.2.4,Win32,60,,,,,,,,,,,,,,,,,,,,,,,,,,,,,,,,,,,,,,,,,,,,,,,,,,,4.2624,0.485416711,-0.124074108,1,0,0,1.13237,yes,GRAVE,NBURI,incorrect,3,0,3,0,1,,,,,,,,,,,,,,,,,,,,,,,,,,,,,,,,,,,,
,,,,,,,,,,00001555279,2020-10-23_18h08.15.607,swahili,2020.2.4,Win32,60,,,,,,,,,,,,,,,,,,,,,,,,,,,,,,,,,,,,,,,,,,,,,,,,,,,4.44644,0.359375041,-0.018518549,1,0,0,1.0822,yes,PARROT,F,incorrect,4,0,4,0,1,,,,,,,,,,,,,,,,,,,,,,,,,,,,,,,,,,,,
,,,,,,,,,,00001555279,2020-10-23_18h08.15.607,swahili,2020.2.4,Win32,60,,,,,,,,,,,,,,,,,,,,,,,,,,,,,,,,,,,,,,,,,,,,,,,,,,,5.44593,0.44791671,-0.127777811,1,0,0,1.29915,yes,CORN,NAFUKA,incorrect,5,0,5,0,1,,,,,,,,,,,,,,,,,,,,,,,,,,,,,,,,,,,,
,,,,,,,,,,00001555279,2020-10-23_18h08.15.607,swahili,2020.2.4,Win32,60,,,,,,,,,,,,,,,,,,,,,,,,,,,,,,,,,,,,,,,,,,,,,,,,,,,3.42988,0.422916709,-0.072222254,1,0,0,1.13312,yes,MERCHANT,NAJIRI,incorrect,6,0,6,0,1,,,,,,,,,,,,,,,,,,,,,,,,,,,,,,,,,,,,
,,,,,,,,,,00001555279,2020-10-23_18h08.15.607,swahili,2020.2.4,Win32,60,,,,,,,,,,,,,,,,,,,,,,,,,,,,,,,,,,,,,,,,,,,,,,,,,,,6.82816,0.551041713,0.062962935,1,0,0,1.115915,yes,MANURE,F,incorrect,7,0,7,0,1,,,,,,,,,,,,,,,,,,,,,,,,,,,,,,,,,,,,
,,,,,,,,,,00001555279,2020-10-23_18h08.15.607,swahili,2020.2.4,Win32,60,,,,,,,,,,,,,,,,,,,,,,,,,,,,,,,,,,,,,,,,,,,,,,,,,,,3.678765,0.358333374,-0.055555587,1,0,0,1.06603,yes,BULL,FAHILI,incorrect,8,0,8,0,1,,,,,,,,,,,,,,,,,,,,,,,,,,,,,,,,,,,,
,,,,,,,,,,00001555279,2020-10-23_18h08.15.607,swahili,2020.2.4,Win32,60,,,,,,,,,,,,,,,,,,,,,,,,,,,,,,,,,,,,,,,,,,,,,,,,,,,5.1622,0.442708376,-0.033333364,1,0,0,1.18272,yes,ORPHAN,YATAMA,incorrect,9,0,9,0,1,,,,,,,,,,,,,,,,,,,,,,,,,,,,,,,,,,,,
,,,,,,,,,,00001555279,2020-10-23_18h08.15.607,swahili,2020.2.4,Win32,60,,,,,,,,,,,,,,,,,,,,,,,,,,,,,,,,,,,,,,,,,,,,,,,,,,,4.446605,0.384375041,-0.087037069,1,0,0,1.04882,yes,YEAST,HAMILI,incorrect,10,0,10,0,1,,,,,,,,,,,,,,,,,,,,,,,,,,,,,,,,,,,,
,,,,,,,,,,00001555279,2020-10-23_18h08.15.607,swahili,2020.2.4,Win32,60,,,,,,,,,,,,,,,,,,,,,,,,,,,,,,,,,,,,,,,,,,,,,,,,,,,2.864005,0.458333377,-0.061111143,1,0,0,1.082855,yes,POEM,UTENZI,incorrect,11,0,11,0,1,,,,,,,,,,,,,,,,,,,,,,,,,,,,,,,,,,,,
,,,,,,,,,,00001555279,2020-10-23_18h08.15.607,swahili,2020.2.4,Win32,60,,,,,,,,,,,,,,,,,,,,,,,,,,,,,,,,,,,,,,,,,,,,,,,,,,,13.190255,0.364583374,-0.040740772,1,0,0,1.166245,yes,AGENT,WAKILI,incorrect,12,0,12,0,1,,,,,,,,,,,,,,,,,,,,,,,,,,,,,,,,,,,,
,,,,,,,,,,00001555279,2020-10-23_18h08.15.607,swahili,2020.2.4,Win32,60,,,,,,,,,,,,,,,,,,,,,,,,,,,,,,,,,,,,,,,,,,,,,,,,,,,17.535865,0.434375043,-0.072222254,1,0,0,1.149695,yes,OATH,YAHAMA,incorrect,13,0,13,0,1,,,,,,,,,,,,,,,,,,,,,,,,,,,,,,,,,,,,
,,,,,,,,,,00001555279,2020-10-23_18h08.15.607,swahili,2020.2.4,Win32,60,,,,,,,,,,,,,,,,,,,,,,,,,,,,,,,,,,,,,,,,,,,,,,,,,,,4.546005,0.46354171,0.203703623,1,0,0,1.14897,yes,CHEESE,ZABIBI,incorrect,14,0,14,0,1,,,,,,,,,,,,,,,,,,,,,,,,,,,,,,,,,,,,
,,,,,,,,,,00001555279,2020-10-23_18h08.15.607,swahili,2020.2.4,Win32,60,,,,,,,,,,,,,,,,,,,,,,,,,,,,,,,,,,,,,,,,,,,,,,,,,,,5.7124,0.598958381,0.022222193,1,0,0,1.06539,yes,DIVORCE,TULACA,incorrect,15,0,15,0,1,,,,,,,,,,,,,,,,,,,,,,,,,,,,,,,,,,,,
,,,,,,,,,,00001555279,2020-10-23_18h08.15.607,swahili,2020.2.4,Win32,60,,,,,,,,,,,,,,,,,,,,,,,,,,,,,,,,,,,,,,,,,,,,,,,,,,,3.629245,0.543750046,-0.001851882,1,0,0,1.09912,yes,TAILOR,NAJIRI,incorrect,16,0,16,0,1,,,,,,,,,,,,,,,,,,,,,,,,,,,,,,,,,,,,
,,,,,,,,,,00001555279,2020-10-23_18h08.15.607,swahili,2020.2.4,Win32,60,,,,,,,,,,,,,,,,,,,,,,,,,,,,,,,,,,,,,,,,,,,,,,,,,,,8.143815,0.542708379,-0.135185219,1,0,0,1.082495,yes,BRIBE,F,incorrect,17,0,17,0,1,,,,,,,,,,,,,,,,,,,,,,,,,,,,,,,,,,,,
,,,,,,,,,,00001555279,2020-10-23_18h08.15.607,swahili,2020.2.4,Win32,60,,,,,,,,,,,,,,,,,,,,,,,,,,,,,,,,,,,,,,,,,,,,,,,,,,,5.21263,0.393750042,0.059259175,1,0,0,1.149075,yes,GRAPES,ZA,incorrect,18,0,18,0,1,,,,,,,,,,,,,,,,,,,,,,,,,,,,,,,,,,,,
,,,,,,,,,,00001555279,2020-10-23_18h08.15.607,swahili,2020.2.4,Win32,60,,,,,,,,,,,,,,,,,,,,,,,,,,,,,,,,,,,,,,,,,,,,,,,,,,,5.7621,0.489583378,-0.003703734,1,0,0,1.19878,yes,TREASURE,DRAVON,incorrect,19,0,19,0,1,,,,,,,,,,,,,,,,,,,,,,,,,,,,,,,,,,,,
,,,,,,,,,,00001555279,2020-10-23_18h08.15.607,swahili,2020.2.4,Win32,60,,,,,,,,,,,,,,,,,,,,,,,,,,,,,,,,,,,,,,,,0,0,0,0,1,,,,,,,,,,,,,,,,,,,,,,,,,,,,,,,,,,,,,,,,,,,,,,,,,,,,,,,,,,
,,,,,,,,,,00001555279,2020-10-23_18h08.15.607,swahili,2020.2.4,Win32,60,,,,,,,,,,,,,,,,,,,,,,,,,,,,,,,,,,,,,,,,1,0,1,0,1,,,,,,,,,,,,,,,,,,,,,,,,,,,,,,,,,,,,,,,,,,,,,,,,,,,,,,,,,,
,,,,,,,,,,00001555279,2020-10-23_18h08.15.607,swahili,2020.2.4,Win32,60,,,,,,,,,,,,,,,,,,,,,,,,,,,,,,,,,,,,,,,,,,,,,2,0,2,0,1,,,,,,,,,,,,,,,,,,,,,,,,,,,,,,,,,,,,,,,,,,,,,,,,,,,,,
,,,,,,,,,,00001555279,2020-10-23_18h08.15.607,swahili,2020.2.4,Win32,60,,,,,,,,,,-0.355208314,-0.012962993,1,0,0,6.903905,unsorted_card,0,0,0,0,1,,,,,,,,,,,,,,,,,,,,,,,,,,,,,,,,,,,,,,,,,,,,,,,,,,,,,,,,,,,,,,,,,,,,,,,,,,,,,,,,,
,,,,,,,,,,00001555279,2020-10-23_18h08.15.607,swahili,2020.2.4,Win32,60,,,,,,,,,,0.442708376,0.462962947,1,0,0,56.57796,study_pile,1,0,1,0,1,MERCHANT - TAJIRI,,,,,,,,,,,,,,,,,,,,,,,,,,,,,,,,,,,,,,,,,,,,,,,,,,,,,,,,,,,,,,,,,,,,,,,,,,,,,,,,
,,,,,,,,,,00001555279,2020-10-23_18h08.15.607,swahili,2020.2.4,Win32,60,,,,,,,,,,-0.365624981,-0.224074111,1,0,0,0.79905,unsorted_card,2,0,2,0,1,,,,,,,,,,,,,,,,,,,,,,,,,,,,,,,,,,,,,,,,,,,,,,,,,,,,,,,,,,,,,,,,,,,,,,,,,,,,,,,,,
,,,,,,,,,,00001555279,2020-10-23_18h08.15.607,swahili,2020.2.4,Win32,60,,,,,,,,,,0.390625041,0.455555539,1,0,0,14.672955,study_pile,3,0,3,0,1,PARROT - KASUKU,,,,,,,,,,,,,,,,,,,,,,,,,,,,,,,,,,,,,,,,,,,,,,,,,,,,,,,,,,,,,,,,,,,,,,,,,,,,,,,,
,,,,,,,,,,00001555279,2020-10-23_18h08.15.607,swahili,2020.2.4,Win32,60,,,,,,,,,,-0.33749998,-0.055555587,1,0,0,1.947565,unsorted_card,4,0,4,0,1,,,,,,,,,,,,,,,,,,,,,,,,,,,,,,,,,,,,,,,,,,,,,,,,,,,,,,,,,,,,,,,,,,,,,,,,,,,,,,,,,
,,,,,,,,,,00001555279,2020-10-23_18h08.15.607,swahili,2020.2.4,Win32,60,,,,,,,,,,0.377083374,0.525925912,1,0,0,3.84626,study_pile,5,0,5,0,1,BULL - FAHILI,,,,,,,,,,,,,,,,,,,,,,,,,,,,,,,,,,,,,,,,,,,,,,,,,,,,,,,,,,,,,,,,,,,,,,,,,,,,,,,,
,,,,,,,,,,00001555279,2020-10-23_18h08.15.607,swahili,2020.2.4,Win32,60,,,,,,,,,,-0.277083312,0.301851831,1,0,0,1.08197,unsorted_card,6,0,6,0,1,,,,,,,,,,,,,,,,,,,,,,,,,,,,,,,,,,,,,,,,,,,,,,,,,,,,,,,,,,,,,,,,,,,,,,,,,,,,,,,,,
,,,,,,,,,,00001555279,2020-10-23_18h08.15.607,swahili,2020.2.4,Win32,60,,,,,,,,,,0.557291713,0.435185168,1,0,0,53.130905,study_pile,7,0,7,0,1,PLATE - SAHANI,,,,,,,,,,,,,,,,,,,,,,,,,,,,,,,,,,,,,,,,,,,,,,,,,,,,,,,,,,,,,,,,,,,,,,,,,,,,,,,,
,,,,,,,,,,00001555279,2020-10-23_18h08.15.607,swahili,2020.2.4,Win32,60,,,,,,,,,,-0.411458316,-0.025925957,1,0,0,1.531135,unsorted_card,8,0,8,0,1,,,,,,,,,,,,,,,,,,,,,,,,,,,,,,,,,,,,,,,,,,,,,,,,,,,,,,,,,,,,,,,,,,,,,,,,,,,,,,,,,
,,,,,,,,,,00001555279,2020-10-23_18h08.15.607,swahili,2020.2.4,Win32,60,,,,,,,,,,0.468750044,0.648148138,1,0,0,5.9457,study_pile,9,0,9,0,1,YEAST - HAMIRA,,,,,,,,,,,,,,,,,,,,,,,,,,,,,,,,,,,,,,,,,,,,,,,,,,,,,,,,,,,,,,,,,,,,,,,,,,,,,,,,
,,,,,,,,,,00001555279,2020-10-23_18h08.15.607,swahili,2020.2.4,Win32,60,,,,,,,,,,-0.259374978,0.04814812,1,0,0,1.048225,unsorted_card,10,0,10,0,1,,,,,,,,,,,,,,,,,,,,,,,,,,,,,,,,,,,,,,,,,,,,,,,,,,,,,,,,,,,,,,,,,,,,,,,,,,,,,,,,,
,,,,,,,,,,00001555279,2020-10-23_18h08.15.607,swahili,2020.2.4,Win32,60,,,,,,,,,,0.341666707,0.575925913,1,0,0,15.472695,study_pile,11,0,11,0,1,BLAME - LAWAMA,,,,,,,,,,,,,,,,,,,,,,,,,,,,,,,,,,,,,,,,,,,,,,,,,,,,,,,,,,,,,,,,,,,,,,,,,,,,,,,,
,,,,,,,,,,00001555279,2020-10-23_18h08.15.607,swahili,2020.2.4,Win32,60,,,,,,,,,,-0.370833315,0.035185156,1,0,0,1.347735,unsorted_card,12,0,12,0,1,,,,,,,,,,,,,,,,,,,,,,,,,,,,,,,,,,,,,,,,,,,,,,,,,,,,,,,,,,,,,,,,,,,,,,,,,,,,,,,,,
,,,,,,,,,,00001555279,2020-10-23_18h08.15.607,swahili,2020.2.4,Win32,60,,,,,,,,,,0.341666707,0.533333319,1,0,0,3.997045,study_pile,13,0,13,0,1,OATH - YAMINI,,,,,,,,,,,,,,,,,,,,,,,,,,,,,,,,,,,,,,,,,,,,,,,,,,,,,,,,,,,,,,,,,,,,,,,,,,,,,,,,
,,,,,,,,,,00001555279,2020-10-23_18h08.15.607,swahili,2020.2.4,Win32,60,,,,,,,,,,-0.534374986,0.107407381,1,0,0,0.9314,unsorted_card,14,0,14,0,1,,,,,,,,,,,,,,,,,,,,,,,,,,,,,,,,,,,,,,,,,,,,,,,,,,,,,,,,,,,,,,,,,,,,,,,,,,,,,,,,,
,,,,,,,,,,00001555279,2020-10-23_18h08.15.607,swahili,2020.2.4,Win32,60,,,,,,,,,,0.423958376,0.559259246,1,0,0,4.096825,study_pile,15,0,15,0,1,CORN - NAFAKA,,,,,,,,,,,,,,,,,,,,,,,,,,,,,,,,,,,,,,,,,,,,,,,,,,,,,,,,,,,,,,,,,,,,,,,,,,,,,,,,
,,,,,,,,,,00001555279,2020-10-23_18h08.15.607,swahili,2020.2.4,Win32,60,,,,,,,,,,-0.571874987,-0.051851883,1,0,0,1.245865,unsorted_card,16,0,16,0,1,,,,,,,,,,,,,,,,,,,,,,,,,,,,,,,,,,,,,,,,,,,,,,,,,,,,,,,,,,,,,,,,,,,,,,,,,,,,,,,,,
,,,,,,,,,,00001555279,2020-10-23_18h08.15.607,swahili,2020.2.4,Win32,60,,,,,,,,,,0.335416706,0.418518501,1,0,0,2.481065,study_pile,17,0,17,0,1,POEM - UTENZI,,,,,,,,,,,,,,,,,,,,,,,,,,,,,,,,,,,,,,,,,,,,,,,,,,,,,,,,,,,,,,,,,,,,,,,,,,,,,,,,
,,,,,,,,,,00001555279,2020-10-23_18h08.15.607,swahili,2020.2.4,Win32,60,,,,,,,,,,-0.499999985,0.074074046,1,0,0,1.04868,unsorted_card,18,0,18,0,1,,,,,,,,,,,,,,,,,,,,,,,,,,,,,,,,,,,,,,,,,,,,,,,,,,,,,,,,,,,,,,,,,,,,,,,,,,,,,,,,,
,,,,,,,,,,00001555279,2020-10-23_18h08.15.607,swahili,2020.2.4,Win32,60,,,,,,,,,,0.34375004,0.503703689,1,0,0,13.224045,study_pile,19,0,19,0,1,TAILOR - MSHONI,,,,,,,,,,,,,,,,,,,,,,,,,,,,,,,,,,,,,,,,,,,,,,,,,,,,,,,,,,,,,,,,,,,,,,,,,,,,,,,,
,,,,,,,,,,00001555279,2020-10-23_18h08.15.607,swahili,2020.2.4,Win32,60,,,,,,,,,,-0.644791656,-0.061111143,1,0,0,1.581005,unsorted_card,20,0,20,0,1,,,,,,,,,,,,,,,,,,,,,,,,,,,,,,,,,,,,,,,,,,,,,,,,,,,,,,,,,,,,,,,,,,,,,,,,,,,,,,,,,
,,,,,,,,,,00001555279,2020-10-23_18h08.15.607,swahili,2020.2.4,Win32,60,,,,,,,,,,0.311458372,0.537037023,1,0,0,3.24767,study_pile,21,0,21,0,1,CHEESE - JIBINI,,,,,,,,,,,,,,,,,,,,,,,,,,,,,,,,,,,,,,,,,,,,,,,,,,,,,,,,,,,,,,,,,,,,,,,,,,,,,,,,
,,,,,,,,,,00001555279,2020-10-23_18h08.15.607,swahili,2020.2.4,Win32,60,,,,,,,,,,-0.471874984,0.031481453,1,0,0,1.18126,unsorted_card,22,0,22,0,1,,,,,,,,,,,,,,,,,,,,,,,,,,,,,,,,,,,,,,,,,,,,,,,,,,,,,,,,,,,,,,,,,,,,,,,,,,,,,,,,,
,,,,,,,,,,00001555279,2020-10-23_18h08.15.607,swahili,2020.2.4,Win32,60,,,,,,,,,,0.293750039,0.431481465,1,0,0,7.194845,study_pile,23,0,23,0,1,GRAPES - ZABIBU,,,,,,,,,,,,,,,,,,,,,,,,,,,,,,,,,,,,,,,,,,,,,,,,,,,,,,,,,,,,,,,,,,,,,,,,,,,,,,,,
,,,,,,,,,,00001555279,2020-10-23_18h08.15.607,swahili,2020.2.4,Win32,60,,,,,,,,,,-0.497916652,-0.001851882,1,0,0,1.03185,unsorted_card,24,0,24,0,1,,,,,,,,,,,,,,,,,,,,,,,,,,,,,,,,,,,,,,,,,,,,,,,,,,,,,,,,,,,,,,,,,,,,,,,,,,,,,,,,,
,,,,,,,,,,00001555279,2020-10-23_18h08.15.607,swahili,2020.2.4,Win32,60,,,,,,,,,,0.302083372,0.418518501,1,0,0,6.49545,study_pile,25,0,25,0,1,GRAVE - KABURI,,,,,,,,,,,,,,,,,,,,,,,,,,,,,,,,,,,,,,,,,,,,,,,,,,,,,,,,,,,,,,,,,,,,,,,,,,,,,,,,
,,,,,,,,,,00001555279,2020-10-23_18h08.15.607,swahili,2020.2.4,Win32,60,,,,,,,,,,-0.547916653,0.003703674,1,0,0,1.347585,unsorted_card,26,0,26,0,1,,,,,,,,,,,,,,,,,,,,,,,,,,,,,,,,,,,,,,,,,,,,,,,,,,,,,,,,,,,,,,,,,,,,,,,,,,,,,,,,,
,,,,,,,,,,00001555279,2020-10-23_18h08.15.607,swahili,2020.2.4,Win32,60,,,,,,,,,,0.344791707,0.48518517,1,0,0,8.09427,study_pile,27,0,27,0,1,MANURE - SAMADI,,,,,,,,,,,,,,,,,,,,,,,,,,,,,,,,,,,,,,,,,,,,,,,,,,,,,,,,,,,,,,,,,,,,,,,,,,,,,,,,
,,,,,,,,,,00001555279,2020-10-23_18h08.15.607,swahili,2020.2.4,Win32,60,,,,,,,,,,-0.552083288,-0.042592624,1,0,0,0.898265,unsorted_card,28,0,28,0,1,,,,,,,,,,,,,,,,,,,,,,,,,,,,,,,,,,,,,,,,,,,,,,,,,,,,,,,,,,,,,,,,,,,,,,,,,,,,,,,,,
,,,,,,,,,,00001555279,2020-10-23_18h08.15.607,swahili,2020.2.4,Win32,60,,,,,,,,,,0.332291706,0.55370369,1,0,0,5.01311,study_pile,29,0,29,0,1,AGENT - WAKILI,,,,,,,,,,,,,,,,,,,,,,,,,,,,,,,,,,,,,,,,,,,,,,,,,,,,,,,,,,,,,,,,,,,,,,,,,,,,,,,,
,,,,,,,,,,00001555279,2020-10-23_18h08.15.607,swahili,2020.2.4,Win32,60,,,,,,,,,,-0.526041653,-0.138888923,1,0,0,0.93153,unsorted_card,30,0,30,0,1,,,,,,,,,,,,,,,,,,,,,,,,,,,,,,,,,,,,,,,,,,,,,,,,,,,,,,,,,,,,,,,,,,,,,,,,,,,,,,,,,
,,,,,,,,,,00001555279,2020-10-23_18h08.15.607,swahili,2020.2.4,Win32,60,,,,,,,,,,0.605208381,0.603703692,1,0,0,2.664765,study_pile,31,0,31,0,1,BRIBE - RUSHWA,,,,,,,,,,,,,,,,,,,,,,,,,,,,,,,,,,,,,,,,,,,,,,,,,,,,,,,,,,,,,,,,,,,,,,,,,,,,,,,,
,,,,,,,,,,00001555279,2020-10-23_18h08.15.607,swahili,2020.2.4,Win32,60,,,,,,,,,,-0.191666579,-0.048148179,1,0,0,1.11548,unsorted_card,32,0,32,0,1,,,,,,,,,,,,,,,,,,,,,,,,,,,,,,,,,,,,,,,,,,,,,,,,,,,,,,,,,,,,,,,,,,,,,,,,,,,,,,,,,
,,,,,,,,,,00001555279,2020-10-23_18h08.15.607,swahili,2020.2.4,Win32,60,,,,,,,,,,0.332291706,0.453703687,1,0,0,4.19607,study_pile,33,0,33,0,1,ORPHAN - YATIMA,,,,,,,,,,,,,,,,,,,,,,,,,,,,,,,,,,,,,,,,,,,,,,,,,,,,,,,,,,,,,,,,,,,,,,,,,,,,,,,,
,,,,,,,,,,00001555279,2020-10-23_18h08.15.607,swahili,2020.2.4,Win32,60,,,,,,,,,,-0.596874988,-0.035185216,1,0,0,1.115005,unsorted_card,34,0,34,0,1,,,,,,,,,,,,,,,,,,,,,,,,,,,,,,,,,,,,,,,,,,,,,,,,,,,,,,,,,,,,,,,,,,,,,,,,,,,,,,,,,
,,,,,,,,,,00001555279,2020-10-23_18h08.15.607,swahili,2020.2.4,Win32,60,,,,,,,,,,0.347916707,0.401851834,1,0,0,5.029265,study_pile,35,0,35,0,1,DIVORCE - TALAKA,,,,,,,,,,,,,,,,,,,,,,,,,,,,,,,,,,,,,,,,,,,,,,,,,,,,,,,,,,,,,,,,,,,,,,,,,,,,,,,,
,,,,,,,,,,00001555279,2020-10-23_18h08.15.607,swahili,2020.2.4,Win32,60,,,,,,,,,,-0.520833287,-0.098148181,1,0,0,1.3152,unsorted_card,36,0,36,0,1,,,,,,,,,,,,,,,,,,,,,,,,,,,,,,,,,,,,,,,,,,,,,,,,,,,,,,,,,,,,,,,,,,,,,,,,,,,,,,,,,
,,,,,,,,,,00001555279,2020-10-23_18h08.15.607,swahili,2020.2.4,Win32,60,,,,,,,,,,0.351041707,0.448148132,1,0,0,4.229425,study_pile,37,0,37,0,1,BOAT - MASHUA,,,,,,,,,,,,,,,,,,,,,,,,,,,,,,,,,,,,,,,,,,,,,,,,,,,,,,,,,,,,,,,,,,,,,,,,,,,,,,,,
,,,,,,,,,,00001555279,2020-10-23_18h08.15.607,swahili,2020.2.4,Win32,60,,,,,,,,,,-0.692708324,-0.070370402,1,0,0,1.01561,unsorted_card,38,0,38,0,1,,,,,,,,,,,,,,,,,,,,,,,,,,,,,,,,,,,,,,,,,,,,,,,,,,,,,,,,,,,,,,,,,,,,,,,,,,,,,,,,,
,,,,,,,,,,00001555279,2020-10-23_18h08.15.607,swahili,2020.2.4,Win32,60,,,,,,,,,,0.325000039,0.518518504,1,0,0,5.495365,study_pile,39,0,39,0,1,TREASURE - DAFINA,,,,,,,,,,,,,,,,,,,,,,,,,,,,,,,,,,,,,,,,,,,,,,,,,,,,,,,,,,,,,,,,,,,,,,,,,,,,,,,,
,,,,,,,,,,00001555279,2020-10-23_18h08.15.607,swahili,2020.2.4,Win32,60,,,,,,,,,,,,,,,,,,,,,,CHEESE - JIBINI,,,,,,,,return,3.11797,return,4.38435,0,0,0,0,1,,,,,,,,,,,,,,,,,,,,,,,,,,,,,,,,,,,,,,,,,,,,,,,,,,,,,,,,,,,,,,,,
,,,,,,,,,,00001555279,2020-10-23_18h08.15.607,swahili,2020.2.4,Win32,60,,,,,,,,,,,,,,,,,,,,,,BRIBE - RUSHWA,,,,,,,,,,return,2.579705,1,0,1,0,1,,,,,,,,,,,,,,,,,,,,,,,,,,,,,,,,,,,,,,,,,,,,,,,,,,,,,,,,,,,,,,,,
,,,,,,,,,,00001555279,2020-10-23_18h08.15.607,swahili,2020.2.4,Win32,60,,,,,,,,,,,,,,,,,,,,,,PARROT - KASUKU,,,,,,,,,,return,11.759085,2,0,2,0,1,,,,,,,,,,,,,,,,,,,,,,,,,,,,,,,,,,,,,,,,,,,,,,,,,,,,,,,,,,,,,,,,
,,,,,,,,,,00001555279,2020-10-23_18h08.15.607,swahili,2020.2.4,Win32,60,,,,,,,,,,,,,,,,,,,,,,PLATE - SAHANI,,,,,,,,,,return,17.064745,3,0,3,0,1,,,,,,,,,,,,,,,,,,,,,,,,,,,,,,,,,,,,,,,,,,,,,,,,,,,,,,,,,,,,,,,,
,,,,,,,,,,00001555279,2020-10-23_18h08.15.607,swahili,2020.2.4,Win32,60,,,,,,,,,,,,,,,,,,,,,,GRAVE - KABURI,,,,,,,,,,return,4.4733,4,0,4,0,1,,,,,,,,,,,,,,,,,,,,,,,,,,,,,,,,,,,,,,,,,,,,,,,,,,,,,,,,,,,,,,,,
,,,,,,,,,,00001555279,2020-10-23_18h08.15.607,swahili,2020.2.4,Win32,60,,,,,,,,,,,,,,,,,,,,,,OATH - YAMINI,,,,,,,,,,return,19.95304,5,0,5,0,1,,,,,,,,,,,,,,,,,,,,,,,,,,,,,,,,,,,,,,,,,,,,,,,,,,,,,,,,,,,,,,,,
,,,,,,,,,,00001555279,2020-10-23_18h08.15.607,swahili,2020.2.4,Win32,60,,,,,,,,,,,,,,,,,,,,,,MANURE - SAMADI,,,,,,,,,,return,5.00128,6,0,6,0,1,,,,,,,,,,,,,,,,,,,,,,,,,,,,,,,,,,,,,,,,,,,,,,,,,,,,,,,,,,,,,,,,
,,,,,,,,,,00001555279,2020-10-23_18h08.15.607,swahili,2020.2.4,Win32,60,,,,,,,,,,,,,,,,,,,,,,POEM - UTENZI,,,,,,,,,,return,0.920985,7,0,7,0,1,,,,,,,,,,,,,,,,,,,,,,,,,,,,,,,,,,,,,,,,,,,,,,,,,,,,,,,,,,,,,,,,
,,,,,,,,,,00001555279,2020-10-23_18h08.15.607,swahili,2020.2.4,Win32,60,,,,,,,,,,,,,,,,,,,,,,GRAPES - ZABIBU,,,,,,,,,,return,7.832485,8,0,8,0,1,,,,,,,,,,,,,,,,,,,,,,,,,,,,,,,,,,,,,,,,,,,,,,,,,,,,,,,,,,,,,,,,
,,,,,,,,,,00001555279,2020-10-23_18h08.15.607,swahili,2020.2.4,Win32,60,,,,,,,,,,,,,,,,,,,,,,BLAME - LAWAMA,,,,,,,,,,return,13.027335,9,0,9,0,1,,,,,,,,,,,,,,,,,,,,,,,,,,,,,,,,,,,,,,,,,,,,,,,,,,,,,,,,,,,,,,,,
,,,,,,,,,,00001555279,2020-10-23_18h08.15.607,swahili,2020.2.4,Win32,60,,,,,,,,,,,,,,,,,,,,,,CORN - NAFAKA,,,,,,,,,,return,3.616195,10,0,10,0,1,,,,,,,,,,,,,,,,,,,,,,,,,,,,,,,,,,,,,,,,,,,,,,,,,,,,,,,,,,,,,,,,
,,,,,,,,,,00001555279,2020-10-23_18h08.15.607,swahili,2020.2.4,Win32,60,,,,,,,,,,,,,,,,,,,,,,MERCHANT - TAJIRI,,,,,,,,,,return,4.740395,11,0,11,0,1,,,,,,,,,,,,,,,,,,,,,,,,,,,,,,,,,,,,,,,,,,,,,,,,,,,,,,,,,,,,,,,,
,,,,,,,,,,00001555279,2020-10-23_18h08.15.607,swahili,2020.2.4,Win32,60,,,,,,,,,,,,,,,,,,,,,,BOAT - MASHUA,,,,,,,,,,return,3.89682,12,0,12,0,1,,,,,,,,,,,,,,,,,,,,,,,,,,,,,,,,,,,,,,,,,,,,,,,,,,,,,,,,,,,,,,,,
,,,,,,,,,,00001555279,2020-10-23_18h08.15.607,swahili,2020.2.4,Win32,60,,,,,,,,,,,,,,,,,,,,,,AGENT - WAKILI,,,,,,,,,,return,2.8087,13,0,13,0,1,,,,,,,,,,,,,,,,,,,,,,,,,,,,,,,,,,,,,,,,,,,,,,,,,,,,,,,,,,,,,,,,
,,,,,,,,,,00001555279,2020-10-23_18h08.15.607,swahili,2020.2.4,Win32,60,,,,,,,,,,,,,,,,,,,,,,BULL - FAHILI,,,,,,,,,,return,3.362485,14,0,14,0,1,,,,,,,,,,,,,,,,,,,,,,,,,,,,,,,,,,,,,,,,,,,,,,,,,,,,,,,,,,,,,,,,
,,,,,,,,,,00001555279,2020-10-23_18h08.15.607,swahili,2020.2.4,Win32,60,,,,,,,,,,,,,,,,,,,,,,TAILOR - MSHONI,,,,,,,,,,return,33.525475,15,0,15,0,1,,,,,,,,,,,,,,,,,,,,,,,,,,,,,,,,,,,,,,,,,,,,,,,,,,,,,,,,,,,,,,,,
,,,,,,,,,,00001555279,2020-10-23_18h08.15.607,swahili,2020.2.4,Win32,60,,,,,,,,,,,,,,,,,,,,,,DIVORCE - TALAKA,,,,,,,,,,return,4.621355,16,0,16,0,1,,,,,,,,,,,,,,,,,,,,,,,,,,,,,,,,,,,,,,,,,,,,,,,,,,,,,,,,,,,,,,,,
,,,,,,,,,,00001555279,2020-10-23_18h08.15.607,swahili,2020.2.4,Win32,60,,,,,,,,,,,,,,,,,,,,,,ORPHAN - YATIMA,,,,,,,,,,return,3.46249,17,0,17,0,1,,,,,,,,,,,,,,,,,,,,,,,,,,,,,,,,,,,,,,,,,,,,,,,,,,,,,,,,,,,,,,,,
,,,,,,,,,,00001555279,2020-10-23_18h08.15.607,swahili,2020.2.4,Win32,60,,,,,,,,,,,,,,,,,,,,,,TREASURE - DAFINA,,,,,,,,,,return,5.10845,18,0,18,0,1,,,,,,,,,,,,,,,,,,,,,,,,,,,,,,,,,,,,,,,,,,,,,,,,,,,,,,,,,,,,,,,,
,,,,,,,,,,00001555279,2020-10-23_18h08.15.607,swahili,2020.2.4,Win32,60,,,,,,,,,,,,,,,,,,,,,,YEAST - HAMIRA,,,,,,,,,,return,4.788885,19,0,19,0,1,,,,,,,,,,,,,,,,,,,,,,,,,,,,,,,,,,,,,,,,,,,,,,,,,,,,,,,,,,,,,,,,
,,,,,,,,,,00001555279,2020-10-23_18h08.15.607,swahili,2020.2.4,Win32,60,,,,,,,,,,,,,,,,,,,,,,,,,,,,,,,,,,,,,,,,0,0,0,0,1,,,,,,,,,,,,,,,,,,,,,,,,,,,,,,,,,,,,,,,,,,,,,,,,,,,,,,,,,,
,,,,,,,,,,00001555279,2020-10-23_18h08.15.607,swahili,2020.2.4,Win32,60,,,,,,,,,,,,,,,,,,,,,,,,,,,,,,,,,,,,,,,,1,0,1,0,1,,,,,,,,,,,,,,,,,,,,,,,,,,,,,,,,,,,,,,,,,,,,,,,,,,,,,,,,,,
,,,,,,,,,,00001555279,2020-10-23_18h08.15.607,swahili,2020.2.4,Win32,60,,,,,,,,,,,,,,,,,,,,,,,,,,,,,,,,,,,,,,,,,,,,,3,0,3,0,1,,,,,,,,,,,,,,,,,,,,,,,,,,,,,,,,,,,,,,,,,,,,,,,,,,,,,
,,,,,,,,,,00001555279,2020-10-23_18h08.15.607,swahili,2020.2.4,Win32,60,,,,,,,,,,-0.288541645,-0.066666698,1,0,0,3.32341,unsorted_card,0,0,0,0,1,,,,,,,,,,,,,,,,,,,,,,,,,,,,,,,,,,,,,,,,,,,,,,,,,,,,,,,,,,,,,,,,,,,,,,,,,,,,,,,,,
,,,,,,,,,,00001555279,2020-10-23_18h08.15.607,swahili,2020.2.4,Win32,60,,,,,,,,,,0.453125043,0.583333321,1,0,0,11.64136,study_pile,1,0,1,0,1,MERCHANT - TAJIRI,,,,,,,,,,,,,,,,,,,,,,,,,,,,,,,,,,,,,,,,,,,,,,,,,,,,,,,,,,,,,,,,,,,,,,,,,,,,,,,,
,,,,,,,,,,00001555279,2020-10-23_18h08.15.607,swahili,2020.2.4,Win32,60,,,,,,,,,,-0.317708313,0.144444419,1,0,0,1.314405,unsorted_card,2,0,2,0,1,,,,,,,,,,,,,,,,,,,,,,,,,,,,,,,,,,,,,,,,,,,,,,,,,,,,,,,,,,,,,,,,,,,,,,,,,,,,,,,,,
,,,,,,,,,,00001555279,2020-10-23_18h08.15.607,swahili,2020.2.4,Win32,60,,,,,,,,,,0.510416712,0.5148148,1,0,0,13.89031,study_pile,3,0,3,0,1,PARROT - KASUKU,,,,,,,,,,,,,,,,,,,,,,,,,,,,,,,,,,,,,,,,,,,,,,,,,,,,,,,,,,,,,,,,,,,,,,,,,,,,,,,,
,,,,,,,,,,00001555279,2020-10-23_18h08.15.607,swahili,2020.2.4,Win32,60,,,,,,,,,,-0.140624974,0.196296272,1,0,0,1.03179,unsorted_card,4,0,4,0,1,,,,,,,,,,,,,,,,,,,,,,,,,,,,,,,,,,,,,,,,,,,,,,,,,,,,,,,,,,,,,,,,,,,,,,,,,,,,,,,,,
,,,,,,,,,,00001555279,2020-10-23_18h08.15.607,swahili,2020.2.4,Win32,60,,,,,,,,,,0.428125043,-0.468518562,1,0,0,4.229875,done_pile,5,0,5,0,1,BULL - FAHILI,,,,,,,,,,,,,,,,,,,,,,,,,,,,,,,,,,,,,,,,,,,,,,,,,,,,,,,,,,,,,,,,,,,,,,,,,,,,,,,,
,,,,,,,,,,00001555279,2020-10-23_18h08.15.607,swahili,2020.2.4,Win32,60,,,,,,,,,,-0.379166648,-0.003703734,1,0,0,2.13127,unsorted_card,6,0,6,0,1,,,,,,,,,,,,,,,,,,,,,,,,,,,,,,,,,,,,,,,,,,,,,,,,,,,,,,,,,,,,,,,,,,,,,,,,,,,,,,,,,
,,,,,,,,,,00001555279,2020-10-23_18h08.15.607,swahili,2020.2.4,Win32,60,,,,,,,,,,0.347916707,-0.420370413,1,0,0,6.444925,done_pile,7,0,7,0,1,PLATE - SAHANI,,,,,,,,,,,,,,,,,,,,,,,,,,,,,,,,,,,,,,,,,,,,,,,,,,,,,,,,,,,,,,,,,,,,,,,,,,,,,,,,
,,,,,,,,,,00001555279,2020-10-23_18h08.15.607,swahili,2020.2.4,Win32,60,,,,,,,,,,-0.556249987,0.203703623,1,0,0,1.16536,unsorted_card,8,0,8,0,1,,,,,,,,,,,,,,,,,,,,,,,,,,,,,,,,,,,,,,,,,,,,,,,,,,,,,,,,,,,,,,,,,,,,,,,,,,,,,,,,,
,,,,,,,,,,00001555279,2020-10-23_18h08.15.607,swahili,2020.2.4,Win32,60,,,,,,,,,,0.321875039,-0.503703862,1,0,0,4.079935,done_pile,9,0,9,0,1,YEAST - HAMIRA,,,,,,,,,,,,,,,,,,,,,,,,,,,,,,,,,,,,,,,,,,,,,,,,,,,,,,,,,,,,,,,,,,,,,,,,,,,,,,,,
,,,,,,,,,,00001555279,2020-10-23_18h08.15.607,swahili,2020.2.4,Win32,60,,,,,,,,,,-0.31562498,0.120370288,1,0,0,1.864555,unsorted_card,10,0,10,0,1,,,,,,,,,,,,,,,,,,,,,,,,,,,,,,,,,,,,,,,,,,,,,,,,,,,,,,,,,,,,,,,,,,,,,,,,,,,,,,,,,
,,,,,,,,,,00001555279,2020-10-23_18h08.15.607,swahili,2020.2.4,Win32,60,,,,,,,,,,0.377083374,0.464814799,1,0,0,11.0922,study_pile,11,0,11,0,1,BLAME - LAWAMA,,,,,,,,,,,,,,,,,,,,,,,,,,,,,,,,,,,,,,,,,,,,,,,,,,,,,,,,,,,,,,,,,,,,,,,,,,,,,,,,
,,,,,,,,,,00001555279,2020-10-23_18h08.15.607,swahili,2020.2.4,Win32,60,,,,,,,,,,-0.442708317,-0.074074106,1,0,0,1.131365,unsorted_card,12,0,12,0,1,,,,,,,,,,,,,,,,,,,,,,,,,,,,,,,,,,,,,,,,,,,,,,,,,,,,,,,,,,,,,,,,,,,,,,,,,,,,,,,,,
,,,,,,,,,,00001555279,2020-10-23_18h08.15.607,swahili,2020.2.4,Win32,60,,,,,,,,,,0.410416709,0.574074033,1,0,0,7.06121,study_pile,13,0,13,0,1,OATH - YAMINI,,,,,,,,,,,,,,,,,,,,,,,,,,,,,,,,,,,,,,,,,,,,,,,,,,,,,,,,,,,,,,,,,,,,,,,,,,,,,,,,
,,,,,,,,,,00001555279,2020-10-23_18h08.15.607,swahili,2020.2.4,Win32,60,,,,,,,,,,-0.549999987,0.146296271,1,0,0,0.89856,unsorted_card,14,0,14,0,1,,,,,,,,,,,,,,,,,,,,,,,,,,,,,,,,,,,,,,,,,,,,,,,,,,,,,,,,,,,,,,,,,,,,,,,,,,,,,,,,,
,,,,,,,,,,00001555279,2020-10-23_18h08.15.607,swahili,2020.2.4,Win32,60,,,,,,,,,,0.546875046,0.587037025,1,0,0,4.48013,study_pile,15,0,15,0,1,CORN - NAFAKA,,,,,,,,,,,,,,,,,,,,,,,,,,,,,,,,,,,,,,,,,,,,,,,,,,,,,,,,,,,,,,,,,,,,,,,,,,,,,,,,
,,,,,,,,,,00001555279,2020-10-23_18h08.15.607,swahili,2020.2.4,Win32,60,,,,,,,,,,-0.422916649,0.083333306,1,0,0,0.86511,unsorted_card,16,0,16,0,1,,,,,,,,,,,,,,,,,,,,,,,,,,,,,,,,,,,,,,,,,,,,,,,,,,,,,,,,,,,,,,,,,,,,,,,,,,,,,,,,,
,,,,,,,,,,00001555279,2020-10-23_18h08.15.607,swahili,2020.2.4,Win32,60,,,,,,,,,,0.401041708,-0.474074118,1,0,0,2.847425,done_pile,17,0,17,0,1,POEM - UTENZI,,,,,,,,,,,,,,,,,,,,,,,,,,,,,,,,,,,,,,,,,,,,,,,,,,,,,,,,,,,,,,,,,,,,,,,,,,,,,,,,
,,,,,,,,,,00001555279,2020-10-23_18h08.15.607,swahili,2020.2.4,Win32,60,,,,,,,,,,-0.562499987,0.042592564,1,0,0,1.11501,unsorted_card,18,0,18,0,1,,,,,,,,,,,,,,,,,,,,,,,,,,,,,,,,,,,,,,,,,,,,,,,,,,,,,,,,,,,,,,,,,,,,,,,,,,,,,,,,,
,,,,,,,,,,00001555279,2020-10-23_18h08.15.607,swahili,2020.2.4,Win32,60,,,,,,,,,,0.414583375,0.561111098,1,0,0,6.62866,study_pile,19,0,19,0,1,TAILOR - MSHONI,,,,,,,,,,,,,,,,,,,,,,,,,,,,,,,,,,,,,,,,,,,,,,,,,,,,,,,,,,,,,,,,,,,,,,,,,,,,,,,,
,,,,,,,,,,00001555279,2020-10-23_18h08.15.607,swahili,2020.2.4,Win32,60,,,,,,,,,,-0.34062498,0.190740717,1,0,0,1.03154,unsorted_card,20,0,20,0,1,,,,,,,,,,,,,,,,,,,,,,,,,,,,,,,,,,,,,,,,,,,,,,,,,,,,,,,,,,,,,,,,,,,,,,,,,,,,,,,,,
,,,,,,,,,,00001555279,2020-10-23_18h08.15.607,swahili,2020.2.4,Win32,60,,,,,,,,,,0.43854171,-0.60925942,1,0,0,3.063655,done_pile,21,0,21,0,1,CHEESE - JIBINI,,,,,,,,,,,,,,,,,,,,,,,,,,,,,,,,,,,,,,,,,,,,,,,,,,,,,,,,,,,,,,,,,,,,,,,,,,,,,,,,
,,,,,,,,,,00001555279,2020-10-23_18h08.15.607,swahili,2020.2.4,Win32,60,,,,,,,,,,-0.249999978,-0.140740775,1,0,0,0.982615,unsorted_card,22,0,22,0,1,,,,,,,,,,,,,,,,,,,,,,,,,,,,,,,,,,,,,,,,,,,,,,,,,,,,,,,,,,,,,,,,,,,,,,,,,,,,,,,,,
,,,,,,,,,,00001555279,2020-10-23_18h08.15.607,swahili,2020.2.4,Win32,60,,,,,,,,,,0.393750042,0.394444426,1,0,0,4.62947,study_pile,23,0,23,0,1,GRAPES - ZABIBU,,,,,,,,,,,,,,,,,,,,,,,,,,,,,,,,,,,,,,,,,,,,,,,,,,,,,,,,,,,,,,,,,,,,,,,,,,,,,,,,
,,,,,,,,,,00001555279,2020-10-23_18h08.15.607,swahili,2020.2.4,Win32,60,,,,,,,,,,-0.283333312,0.055555527,1,0,0,0.88171,unsorted_card,24,0,24,0,1,,,,,,,,,,,,,,,,,,,,,,,,,,,,,,,,,,,,,,,,,,,,,,,,,,,,,,,,,,,,,,,,,,,,,,,,,,,,,,,,,
,,,,,,,,,,00001555279,2020-10-23_18h08.15.607,swahili,2020.2.4,Win32,60,,,,,,,,,,0.327083373,0.533333319,1,0,0,6.661245,study_pile,25,0,25,0,1,GRAVE - KABURI,,,,,,,,,,,,,,,,,,,,,,,,,,,,,,,,,,,,,,,,,,,,,,,,,,,,,,,,,,,,,,,,,,,,,,,,,,,,,,,,
,,,,,,,,,,00001555279,2020-10-23_18h08.15.607,swahili,2020.2.4,Win32,60,,,,,,,,,,-0.461458317,-0.170370405,1,0,0,1.281725,unsorted_card,26,0,26,0,1,,,,,,,,,,,,,,,,,,,,,,,,,,,,,,,,,,,,,,,,,,,,,,,,,,,,,,,,,,,,,,,,,,,,,,,,,,,,,,,,,
,,,,,,,,,,00001555279,2020-10-23_18h08.15.607,swahili,2020.2.4,Win32,60,,,,,,,,,,0.475000044,-0.516666712,1,0,0,6.7451,done_pile,27,0,27,0,1,MANURE - SAMADI,,,,,,,,,,,,,,,,,,,,,,,,,,,,,,,,,,,,,,,,,,,,,,,,,,,,,,,,,,,,,,,,,,,,,,,,,,,,,,,,
,,,,,,,,,,00001555279,2020-10-23_18h08.15.607,swahili,2020.2.4,Win32,60,,,,,,,,,,-0.22708331,-0.053703735,1,0,0,1.647885,unsorted_card,28,0,28,0,1,,,,,,,,,,,,,,,,,,,,,,,,,,,,,,,,,,,,,,,,,,,,,,,,,,,,,,,,,,,,,,,,,,,,,,,,,,,,,,,,,
,,,,,,,,,,00001555279,2020-10-23_18h08.15.607,swahili,2020.2.4,Win32,60,,,,,,,,,,0.323958373,-0.446296339,1,0,0,3.730135,done_pile,29,0,29,0,1,AGENT - WAKILI,,,,,,,,,,,,,,,,,,,,,,,,,,,,,,,,,,,,,,,,,,,,,,,,,,,,,,,,,,,,,,,,,,,,,,,,,,,,,,,,
,,,,,,,,,,00001555279,2020-10-23_18h08.15.607,swahili,2020.2.4,Win32,60,,,,,,,,,,-0.558333288,0.107407381,1,0,0,1.13115,unsorted_card,30,0,30,0,1,,,,,,,,,,,,,,,,,,,,,,,,,,,,,,,,,,,,,,,,,,,,,,,,,,,,,,,,,,,,,,,,,,,,,,,,,,,,,,,,,
,,,,,,,,,,00001555279,2020-10-23_18h08.15.607,swahili,2020.2.4,Win32,60,,,,,,,,,,0.35312504,-0.444444487,1,0,0,2.931425,done_pile,31,0,31,0,1,BRIBE - RUSHWA,,,,,,,,,,,,,,,,,,,,,,,,,,,,,,,,,,,,,,,,,,,,,,,,,,,,,,,,,,,,,,,,,,,,,,,,,,,,,,,,
,,,,,,,,,,00001555279,2020-10-23_18h08.15.607,swahili,2020.2.4,Win32,60,,,,,,,,,,-0.45104165,0.081481398,1,0,0,1.031735,unsorted_card,32,0,32,0,1,,,,,,,,,,,,,,,,,,,,,,,,,,,,,,,,,,,,,,,,,,,,,,,,,,,,,,,,,,,,,,,,,,,,,,,,,,,,,,,,,
,,,,,,,,,,00001555279,2020-10-23_18h08.15.607,swahili,2020.2.4,Win32,60,,,,,,,,,,0.497916711,0.431481465,1,0,0,5.678775,study_pile,33,0,33,0,1,ORPHAN - YATIMA,,,,,,,,,,,,,,,,,,,,,,,,,,,,,,,,,,,,,,,,,,,,,,,,,,,,,,,,,,,,,,,,,,,,,,,,,,,,,,,,
,,,,,,,,,,00001555279,2020-10-23_18h08.15.607,swahili,2020.2.4,Win32,60,,,,,,,,,,-0.538541653,0.107407381,1,0,0,0.997465,unsorted_card,34,0,34,0,1,,,,,,,,,,,,,,,,,,,,,,,,,,,,,,,,,,,,,,,,,,,,,,,,,,,,,,,,,,,,,,,,,,,,,,,,,,,,,,,,,
,,,,,,,,,,00001555279,2020-10-23_18h08.15.607,swahili,2020.2.4,Win32,60,,,,,,,,,,0.45416671,-0.566666713,1,0,0,4.596185,done_pile,35,0,35,0,1,DIVORCE - TALAKA,,,,,,,,,,,,,,,,,,,,,,,,,,,,,,,,,,,,,,,,,,,,,,,,,,,,,,,,,,,,,,,,,,,,,,,,,,,,,,,,
,,,,,,,,,,00001555279,2020-10-23_18h08.15.607,swahili,2020.2.4,Win32,60,,,,,,,,,,-0.660416657,0.170370289,1,0,0,1.031975,unsorted_card,36,0,36,0,1,,,,,,,,,,,,,,,,,,,,,,,,,,,,,,,,,,,,,,,,,,,,,,,,,,,,,,,,,,,,,,,,,,,,,,,,,,,,,,,,,
,,,,,,,,,,00001555279,2020-10-23_18h08.15.607,swahili,2020.2.4,Win32,60,,,,,,,,,,0.392708375,0.570370358,1,0,0,3.997065,study_pile,37,0,37,0,1,BOAT - MASHUA,,,,,,,,,,,,,,,,,,,,,,,,,,,,,,,,,,,,,,,,,,,,,,,,,,,,,,,,,,,,,,,,,,,,,,,,,,,,,,,,
,,,,,,,,,,00001555279,2020-10-23_18h08.15.607,swahili,2020.2.4,Win32,60,,,,,,,,,,-0.518749986,0.118518492,1,0,0,0.814915,unsorted_card,38,0,38,0,1,,,,,,,,,,,,,,,,,,,,,,,,,,,,,,,,,,,,,,,,,,,,,,,,,,,,,,,,,,,,,,,,,,,,,,,,,,,,,,,,,
,,,,,,,,,,00001555279,2020-10-23_18h08.15.607,swahili,2020.2.4,Win32,60,,,,,,,,,,0.442708376,0.52407406,1,0,0,13.52413,study_pile,39,0,39,0,1,TREASURE - DAFINA,,,,,,,,,,,,,,,,,,,,,,,,,,,,,,,,,,,,,,,,,,,,,,,,,,,,,,,,,,,,,,,,,,,,,,,,,,,,,,,,
,,,,,,,,,,00001555279,2020-10-23_18h08.15.607,swahili,2020.2.4,Win32,60,,,,,,,,,,,,,,,,,,,,,,GRAPES - ZABIBU,,,,,,,,return,1.415955,return,3.90051,0,0,0,0,1,,,,,,,,,,,,,,,,,,,,,,,,,,,,,,,,,,,,,,,,,,,,,,,,,,,,,,,,,,,,,,,,
,,,,,,,,,,00001555279,2020-10-23_18h08.15.607,swahili,2020.2.4,Win32,60,,,,,,,,,,,,,,,,,,,,,,BLAME - LAWAMA,,,,,,,,,,return,5.644645,1,0,1,0,1,,,,,,,,,,,,,,,,,,,,,,,,,,,,,,,,,,,,,,,,,,,,,,,,,,,,,,,,,,,,,,,,
,,,,,,,,,,00001555279,2020-10-23_18h08.15.607,swahili,2020.2.4,Win32,60,,,,,,,,,,,,,,,,,,,,,,TAILOR - MSHONI,,,,,,,,,,return,4.17117,2,0,2,0,1,,,,,,,,,,,,,,,,,,,,,,,,,,,,,,,,,,,,,,,,,,,,,,,,,,,,,,,,,,,,,,,,
,,,,,,,,,,00001555279,2020-10-23_18h08.15.607,swahili,2020.2.4,Win32,60,,,,,,,,,,,,,,,,,,,,,,TREASURE - DAFINA,,,,,,,,,,return,3.213185,3,0,3,0,1,,,,,,,,,,,,,,,,,,,,,,,,,,,,,,,,,,,,,,,,,,,,,,,,,,,,,,,,,,,,,,,,
,,,,,,,,,,00001555279,2020-10-23_18h08.15.607,swahili,2020.2.4,Win32,60,,,,,,,,,,,,,,,,,,,,,,PARROT - KASUKU,,,,,,,,,,return,4.834145,4,0,4,0,1,,,,,,,,,,,,,,,,,,,,,,,,,,,,,,,,,,,,,,,,,,,,,,,,,,,,,,,,,,,,,,,,
,,,,,,,,,,00001555279,2020-10-23_18h08.15.607,swahili,2020.2.4,Win32,60,,,,,,,,,,,,,,,,,,,,,,BOAT - MASHUA,,,,,,,,,,return,9.12554,5,0,5,0,1,,,,,,,,,,,,,,,,,,,,,,,,,,,,,,,,,,,,,,,,,,,,,,,,,,,,,,,,,,,,,,,,
,,,,,,,,,,00001555279,2020-10-23_18h08.15.607,swahili,2020.2.4,Win32,60,,,,,,,,,,,,,,,,,,,,,,OATH - YAMINI,,,,,,,,,,return,7.17273,6,0,6,0,1,,,,,,,,,,,,,,,,,,,,,,,,,,,,,,,,,,,,,,,,,,,,,,,,,,,,,,,,,,,,,,,,
,,,,,,,,,,00001555279,2020-10-23_18h08.15.607,swahili,2020.2.4,Win32,60,,,,,,,,,,,,,,,,,,,,,,GRAVE - KABURI,,,,,,,,,,return,3.615895,7,0,7,0,1,,,,,,,,,,,,,,,,,,,,,,,,,,,,,,,,,,,,,,,,,,,,,,,,,,,,,,,,,,,,,,,,
,,,,,,,,,,00001555279,2020-10-23_18h08.15.607,swahili,2020.2.4,Win32,60,,,,,,,,,,,,,,,,,,,,,,MERCHANT - TAJIRI,,,,,,,,,,return,7.184195,8,0,8,0,1,,,,,,,,,,,,,,,,,,,,,,,,,,,,,,,,,,,,,,,,,,,,,,,,,,,,,,,,,,,,,,,,
,,,,,,,,,,00001555279,2020-10-23_18h08.15.607,swahili,2020.2.4,Win32,60,,,,,,,,,,,,,,,,,,,,,,CORN - NAFAKA,,,,,,,,,,return,3.66635,9,0,9,0,1,,,,,,,,,,,,,,,,,,,,,,,,,,,,,,,,,,,,,,,,,,,,,,,,,,,,,,,,,,,,,,,,
,,,,,,,,,,00001555279,2020-10-23_18h08.15.607,swahili,2020.2.4,Win32,60,,,,,,,,,,,,,,,,,,,,,,ORPHAN - YATIMA,,,,,,,,,,return,4.69483,10,0,10,0,1,,,,,,,,,,,,,,,,,,,,,,,,,,,,,,,,,,,,,,,,,,,,,,,,,,,,,,,,,,,,,,,,
,,,,,,,,,,00001555279,2020-10-23_18h08.15.607,swahili,2020.2.4,Win32,60,,,,,,,,,,,,,,,,,,,,,,,,,,,,,,,,,,,,,,,,0,0,0,0,1,,,,,,,,,,,,,,,,,,,,,,,,,,,,,,,,,,,,,,,,,,,,,,,,,,,,,,,,,,
,,,,,,,,,,00001555279,2020-10-23_18h08.15.607,swahili,2020.2.4,Win32,60,,,,,,,,,,,,,,,,,,,,,,,,,,,,,,,,,,,,,,,,1,0,1,0,1,,,,,,,,,,,,,,,,,,,,,,,,,,,,,,,,,,,,,,,,,,,,,,,,,,,,,,,,,,
,,,,,,,,,,00001555279,2020-10-23_18h08.15.607,swahili,2020.2.4,Win32,60,,,,,,,,,,,,,,,,,,,,,,,,,,,,,,,,,,,,,,,,,,,,,4,0,4,0,1,,,,,,,,,,,,,,,,,,,,,,,,,,,,,,,,,,,,,,,,,,,,,,,,,,,,,
,,,,,,,,,,00001555279,2020-10-23_18h08.15.607,swahili,2020.2.4,Win32,60,,,,,,,,,,-0.402083316,-0.227777814,1,0,0,2.074095,unsorted_card,0,0,0,0,1,,,,,,,,,,,,,,,,,,,,,,,,,,,,,,,,,,,,,,,,,,,,,,,,,,,,,,,,,,,,,,,,,,,,,,,,,,,,,,,,,
,,,,,,,,,,00001555279,2020-10-23_18h08.15.607,swahili,2020.2.4,Win32,60,,,,,,,,,,0.351041707,-0.522222268,1,0,0,8.16081,done_pile,1,0,1,0,1,MERCHANT - TAJIRI,,,,,,,,,,,,,,,,,,,,,,,,,,,,,,,,,,,,,,,,,,,,,,,,,,,,,,,,,,,,,,,,,,,,,,,,,,,,,,,,
,,,,,,,,,,00001555279,2020-10-23_18h08.15.607,swahili,2020.2.4,Win32,60,,,,,,,,,,-0.494791652,-0.024074105,1,0,0,1.21458,unsorted_card,2,0,2,0,1,,,,,,,,,,,,,,,,,,,,,,,,,,,,,,,,,,,,,,,,,,,,,,,,,,,,,,,,,,,,,,,,,,,,,,,,,,,,,,,,,
,,,,,,,,,,00001555279,2020-10-23_18h08.15.607,swahili,2020.2.4,Win32,60,,,,,,,,,,0.459375043,0.588888877,1,0,0,8.427395,study_pile,3,0,3,0,1,PARROT - KASUKU,,,,,,,,,,,,,,,,,,,,,,,,,,,,,,,,,,,,,,,,,,,,,,,,,,,,,,,,,,,,,,,,,,,,,,,,,,,,,,,,
,,,,,,,,,,00001555279,2020-10-23_18h08.15.607,swahili,2020.2.4,Win32,60,,,,,,,,,,-0.473958286,-0.264814853,1,0,0,1.064405,unsorted_card,4,0,4,0,1,,,,,,,,,,,,,,,,,,,,,,,,,,,,,,,,,,,,,,,,,,,,,,,,,,,,,,,,,,,,,,,,,,,,,,,,,,,,,,,,,
,,,,,,,,,,00001555279,2020-10-23_18h08.15.607,swahili,2020.2.4,Win32,60,,,,,,,,,,0.311458372,-0.475926083,1,0,0,4.762835,done_pile,5,0,5,0,1,BLAME - LAWAMA,,,,,,,,,,,,,,,,,,,,,,,,,,,,,,,,,,,,,,,,,,,,,,,,,,,,,,,,,,,,,,,,,,,,,,,,,,,,,,,,
,,,,,,,,,,00001555279,2020-10-23_18h08.15.607,swahili,2020.2.4,Win32,60,,,,,,,,,,-0.129166577,-0.172222257,1,0,0,0.948485,unsorted_card,6,0,6,0,1,,,,,,,,,,,,,,,,,,,,,,,,,,,,,,,,,,,,,,,,,,,,,,,,,,,,,,,,,,,,,,,,,,,,,,,,,,,,,,,,,
,,,,,,,,,,00001555279,2020-10-23_18h08.15.607,swahili,2020.2.4,Win32,60,,,,,,,,,,0.338541707,0.564814802,1,0,0,12.40779,study_pile,7,0,7,0,1,OATH - YAMINI,,,,,,,,,,,,,,,,,,,,,,,,,,,,,,,,,,,,,,,,,,,,,,,,,,,,,,,,,,,,,,,,,,,,,,,,,,,,,,,,
,,,,,,,,,,00001555279,2020-10-23_18h08.15.607,swahili,2020.2.4,Win32,60,,,,,,,,,,-0.302083313,0.007407378,1,0,0,0.94849,unsorted_card,8,0,8,0,1,,,,,,,,,,,,,,,,,,,,,,,,,,,,,,,,,,,,,,,,,,,,,,,,,,,,,,,,,,,,,,,,,,,,,,,,,,,,,,,,,
,,,,,,,,,,00001555279,2020-10-23_18h08.15.607,swahili,2020.2.4,Win32,60,,,,,,,,,,0.440625043,-0.585185232,1,0,0,3.34694,done_pile,9,0,9,0,1,CORN - NAFAKA,,,,,,,,,,,,,,,,,,,,,,,,,,,,,,,,,,,,,,,,,,,,,,,,,,,,,,,,,,,,,,,,,,,,,,,,,,,,,,,,
,,,,,,,,,,00001555279,2020-10-23_18h08.15.607,swahili,2020.2.4,Win32,60,,,,,,,,,,-0.188541579,-0.055555587,1,0,0,1.032145,unsorted_card,10,0,10,0,1,,,,,,,,,,,,,,,,,,,,,,,,,,,,,,,,,,,,,,,,,,,,,,,,,,,,,,,,,,,,,,,,,,,,,,,,,,,,,,,,,
,,,,,,,,,,00001555279,2020-10-23_18h08.15.607,swahili,2020.2.4,Win32,60,,,,,,,,,,0.33437504,-0.468518562,1,0,0,5.328935,done_pile,11,0,11,0,1,TAILOR - MSHONI,,,,,,,,,,,,,,,,,,,,,,,,,,,,,,,,,,,,,,,,,,,,,,,,,,,,,,,,,,,,,,,,,,,,,,,,,,,,,,,,
,,,,,,,,,,00001555279,2020-10-23_18h08.15.607,swahili,2020.2.4,Win32,60,,,,,,,,,,-0.218749977,-0.079629662,1,0,0,0.86505,unsorted_card,12,0,12,0,1,,,,,,,,,,,,,,,,,,,,,,,,,,,,,,,,,,,,,,,,,,,,,,,,,,,,,,,,,,,,,,,,,,,,,,,,,,,,,,,,,
,,,,,,,,,,00001555279,2020-10-23_18h08.15.607,swahili,2020.2.4,Win32,60,,,,,,,,,,0.312500039,0.470370355,1,0,0,5.995915,study_pile,13,0,13,0,1,GRAPES - ZABIBU,,,,,,,,,,,,,,,,,,,,,,,,,,,,,,,,,,,,,,,,,,,,,,,,,,,,,,,,,,,,,,,,,,,,,,,,,,,,,,,,
,,,,,,,,,,00001555279,2020-10-23_18h08.15.607,swahili,2020.2.4,Win32,60,,,,,,,,,,-0.269791645,-0.120370404,1,0,0,1.13172,unsorted_card,14,0,14,0,1,,,,,,,,,,,,,,,,,,,,,,,,,,,,,,,,,,,,,,,,,,,,,,,,,,,,,,,,,,,,,,,,,,,,,,,,,,,,,,,,,
,,,,,,,,,,00001555279,2020-10-23_18h08.15.607,swahili,2020.2.4,Win32,60,,,,,,,,,,0.471875044,-0.551851898,1,0,0,6.061845,done_pile,15,0,15,0,1,GRAVE - KABURI,,,,,,,,,,,,,,,,,,,,,,,,,,,,,,,,,,,,,,,,,,,,,,,,,,,,,,,,,,,,,,,,,,,,,,,,,,,,,,,,
,,,,,,,,,,00001555279,2020-10-23_18h08.15.607,swahili,2020.2.4,Win32,60,,,,,,,,,,-0.244791644,-0.048148179,1,0,0,0.765485,unsorted_card,16,0,16,0,1,,,,,,,,,,,,,,,,,,,,,,,,,,,,,,,,,,,,,,,,,,,,,,,,,,,,,,,,,,,,,,,,,,,,,,,,,,,,,,,,,
,,,,,,,,,,00001555279,2020-10-23_18h08.15.607,swahili,2020.2.4,Win32,60,,,,,,,,,,0.445833376,-0.635185234,1,0,0,3.72951,done_pile,17,0,17,0,1,ORPHAN - YATIMA,,,,,,,,,,,,,,,,,,,,,,,,,,,,,,,,,,,,,,,,,,,,,,,,,,,,,,,,,,,,,,,,,,,,,,,,,,,,,,,,
,,,,,,,,,,00001555279,2020-10-23_18h08.15.607,swahili,2020.2.4,Win32,60,,,,,,,,,,-0.449999984,-0.157407442,1,0,0,1.03185,unsorted_card,18,0,18,0,1,,,,,,,,,,,,,,,,,,,,,,,,,,,,,,,,,,,,,,,,,,,,,,,,,,,,,,,,,,,,,,,,,,,,,,,,,,,,,,,,,
,,,,,,,,,,00001555279,2020-10-23_18h08.15.607,swahili,2020.2.4,Win32,60,,,,,,,,,,0.459375043,-0.551851898,1,0,0,4.33043,done_pile,19,0,19,0,1,BOAT - MASHUA,,,,,,,,,,,,,,,,,,,,,,,,,,,,,,,,,,,,,,,,,,,,,,,,,,,,,,,,,,,,,,,,,,,,,,,,,,,,,,,,
,,,,,,,,,,00001555279,2020-10-23_18h08.15.607,swahili,2020.2.4,Win32,60,,,,,,,,,,-0.082291576,-0.142592627,1,0,0,1.38155,unsorted_card,20,0,20,0,1,,,,,,,,,,,,,,,,,,,,,,,,,,,,,,,,,,,,,,,,,,,,,,,,,,,,,,,,,,,,,,,,,,,,,,,,,,,,,,,,,
,,,,,,,,,,00001555279,2020-10-23_18h08.15.607,swahili,2020.2.4,Win32,60,,,,,,,,,,0.345833373,-0.407407449,1,0,0,3.246855,done_pile,21,0,21,0,1,TREASURE - DAFINA,,,,,,,,,,,,,,,,,,,,,,,,,,,,,,,,,,,,,,,,,,,,,,,,,,,,,,,,,,,,,,,,,,,,,,,,,,,,,,,,
,,,,,,,,,,00001555279,2020-10-23_18h08.15.607,swahili,2020.2.4,Win32,60,,,,,,,,,,,,,,,,,,,,,,PARROT - KASUKU,,,,,,,,return,2.04834,return,8.96354,0,0,0,0,1,,,,,,,,,,,,,,,,,,,,,,,,,,,,,,,,,,,,,,,,,,,,,,,,,,,,,,,,,,,,,,,,
,,,,,,,,,,00001555279,2020-10-23_18h08.15.607,swahili,2020.2.4,Win32,60,,,,,,,,,,,,,,,,,,,,,,GRAPES - ZABIBU,,,,,,,,,,return,3.78011,1,0,1,0,1,,,,,,,,,,,,,,,,,,,,,,,,,,,,,,,,,,,,,,,,,,,,,,,,,,,,,,,,,,,,,,,,
,,,,,,,,,,00001555279,2020-10-23_18h08.15.607,swahili,2020.2.4,Win32,60,,,,,,,,,,,,,,,,,,,,,,OATH - YAMINI,,,,,,,,,,return,14.64205,2,0,2,0,1,,,,,,,,,,,,,,,,,,,,,,,,,,,,,,,,,,,,,,,,,,,,,,,,,,,,,,,,,,,,,,,,
,,,,,,,,,,00001555279,2020-10-23_18h08.15.607,swahili,2020.2.4,Win32,60,,,,,,,,,,,,,,,,,,,,,,,,,,,,,,,,,,,,,,,,0,0,0,0,1,,,,,,,,,,,,,,,,,,,,,,,,,,,,,,,,,,,,,,,,,,,,,,,,,,,,,,,,,,
,,,,,,,,,,00001555279,2020-10-23_18h08.15.607,swahili,2020.2.4,Win32,60,,,,,,,,,,,,,,,,,,,,,,,,,,,,,,,,,,,,,,,,1,0,1,0,1,,,,,,,,,,,,,,,,,,,,,,,,,,,,,,,,,,,,,,,,,,,,,,,,,,,,,,,,,,
,,,,,,,,,,00001555279,2020-10-23_18h08.15.607,swahili,2020.2.4,Win32,60,,,,,,,,,,,,,,,,,,,,,,,,,,,,,,,,,,,,,,,,,,,,,5,0,5,0,1,,,,,,,,,,,,,,,,,,,,,,,,,,,,,,,,,,,,,,,,,,,,,,,,,,,,,
,,,,,,,,,,00001555279,2020-10-23_18h08.15.607,swahili,2020.2.4,Win32,60,,,,,,,,,,-0.585416654,0.003703674,1,0,0,1.94101,unsorted_card,0,0,0,0,1,,,,,,,,,,,,,,,,,,,,,,,,,,,,,,,,,,,,,,,,,,,,,,,,,,,,,,,,,,,,,,,,,,,,,,,,,,,,,,,,,
,,,,,,,,,,00001555279,2020-10-23_18h08.15.607,swahili,2020.2.4,Win32,60,,,,,,,,,,0.308333372,-0.394444486,1,0,0,5.578525,done_pile,1,0,1,0,1,PARROT - KASUKU,,,,,,,,,,,,,,,,,,,,,,,,,,,,,,,,,,,,,,,,,,,,,,,,,,,,,,,,,,,,,,,,,,,,,,,,,,,,,,,,
,,,,,,,,,,00001555279,2020-10-23_18h08.15.607,swahili,2020.2.4,Win32,60,,,,,,,,,,-0.410416649,0.025925897,1,0,0,0.93286,unsorted_card,2,0,2,0,1,,,,,,,,,,,,,,,,,,,,,,,,,,,,,,,,,,,,,,,,,,,,,,,,,,,,,,,,,,,,,,,,,,,,,,,,,,,,,,,,,
,,,,,,,,,,00001555279,2020-10-23_18h08.15.607,swahili,2020.2.4,Win32,60,,,,,,,,,,0.426041709,0.581481469,1,0,0,6.893605,study_pile,3,0,3,0,1,OATH - YAMINI,,,,,,,,,,,,,,,,,,,,,,,,,,,,,,,,,,,,,,,,,,,,,,,,,,,,,,,,,,,,,,,,,,,,,,,,,,,,,,,,
,,,,,,,,,,00001555279,2020-10-23_18h08.15.607,swahili,2020.2.4,Win32,60,,,,,,,,,,-0.561458288,-0.159259294,1,0,0,0.93096,unsorted_card,4,0,4,0,1,,,,,,,,,,,,,,,,,,,,,,,,,,,,,,,,,,,,,,,,,,,,,,,,,,,,,,,,,,,,,,,,,,,,,,,,,,,,,,,,,
,,,,,,,,,,00001555279,2020-10-23_18h08.15.607,swahili,2020.2.4,Win32,60,,,,,,,,,,0.279166705,-0.520370529,1,0,0,3.54712,done_pile,5,0,5,0,1,GRAPES - ZABIBU,,,,,,,,,,,,,,,,,,,,,,,,,,,,,,,,,,,,,,,,,,,,,,,,,,,,,,,,,,,,,,,,,,,,,,,,,,,,,,,,
,,,,,,,,,,00001555279,2020-10-23_18h08.15.607,swahili,2020.2.4,Win32,60,,,,,,,,,,,,,,,,,,,,,,OATH - YAMINI,,,,,,,,return,1.13357,return,3.686915,0,0,0,0,1,,,,,,,,,,,,,,,,,,,,,,,,,,,,,,,,,,,,,,,,,,,,,,,,,,,,,,,,,,,,,,,,
,,,,,,,,,,00001555279,2020-10-23_18h08.15.607,swahili,2020.2.4,Win32,60,,,,,,,,,,,,,,,,,,,,,,,,,,,,,,,,,,,,,,,,0,0,0,0,1,,,,,,,,,,,,,,,,,,,,,,,,,,,,,,,,,,,,,,,,,,,,,,,,,,,,,,,,,,
,,,,,,,,,,00001555279,2020-10-23_18h08.15.607,swahili,2020.2.4,Win32,60,,,,,,,,,,,,,,,,,,,,,,,,,,,,,,,,,,,,,,,,1,0,1,0,1,,,,,,,,,,,,,,,,,,,,,,,,,,,,,,,,,,,,,,,,,,,,,,,,,,,,,,,,,,
,,,,,,,,,,00001555279,2020-10-23_18h08.15.607,swahili,2020.2.4,Win32,60,,,,,,,,,,,,,,,,,,,,,,,,,,,,,,,,,,,,,,,,,,,,,6,0,6,0,1,,,,,,,,,,,,,,,,,,,,,,,,,,,,,,,,,,,,,,,,,,,,,,,,,,,,,
,,,,,,,,,,00001555279,2020-10-23_18h08.15.607,swahili,2020.2.4,Win32,60,,,,,,,,,,-0.599999988,-0.153703738,1,0,0,1.409395,unsorted_card,0,0,0,0,1,,,,,,,,,,,,,,,,,,,,,,,,,,,,,,,,,,,,,,,,,,,,,,,,,,,,,,,,,,,,,,,,,,,,,,,,,,,,,,,,,
,,,,,,,,,,00001555279,2020-10-23_18h08.15.607,swahili,2020.2.4,Win32,60,,,,,,,,,,0.521875045,-0.507407452,1,0,0,1.26479,done_pile,1,0,1,0,1,OATH - YAMINI,,,,,,,,,,,,,,,,,,,,,,,,,,,,,,,,,,,,,,,,,,,,,,,,,,,,,,,,,,,,,,,,,,,,,,,,,,,,,,,,
,,,,,,,,,,00001555279,2020-10-23_18h08.15.607,swahili,2020.2.4,Win32,60,,,,,,,,,,,,,,,,,,,,,,,,,,,,,,,,,,,,,,,,0,0,0,0,1,,,,,,,,,,,,,,,,,,,,,,,,,,,,,,,,,,,,,,,,,,,,,,,,,,,,,,,,,,
,,,,,,,,,,00001555279,2020-10-23_18h08.15.607,swahili,2020.2.4,Win32,60,,,,,,,,,,,,,,,,,,,,,,,,,,,,,,,,,,,,,,,,1,0,1,0,1,,,,,,,,,,,,,,,,,,,,,,,,,,,,,,,,,,,,,,,,,,,,,,,,,,,,,,,,,,
,,,,,,,,,,00001555279,2020-10-23_18h08.15.607,swahili,2020.2.4,Win32,60,,,,,,,,SAMADI,MANURE,,,,,,,,,,,,,,,,,,,,,,,,,,,,,,,,,,,,,,,,,,6.95405,,,,,,,,,SAMADI,correct,,,,,,return,11.132595,return,2.0839,return,5.164735,0,0,0,13,1,,,,,,,,,,,,,,,,,,,,,,,,,
,,,,,,,,,,00001555279,2020-10-23_18h08.15.607,swahili,2020.2.4,Win32,60,,,,,,,,FAHILI,BULL,,,,,,,,,,,,,,,,,,,,,,,,,,,,,,,,,,,,,,,,,,6.977465,,,,,,,,,FAHILI,correct,,,,,,,,,,,,0,1,1,2,1,,,,,,,,,,,,,,,,,,,,,,,,,
,,,,,,,,,,00001555279,2020-10-23_18h08.15.607,swahili,2020.2.4,Win32,60,,,,,,,,MASHUA,BOAT,,,,,,,,,,,,,,,,,,,,,,,,,,,,,,,,,,,,,,,,,,5.945525,,,,,,,,,MASHUA,correct,,,,,,,,,,,,0,2,2,18,1,,,,,,,,,,,,,,,,,,,,,,,,,
,,,,,,,,,,00001555279,2020-10-23_18h08.15.607,swahili,2020.2.4,Win32,60,,,,,,,,DAFINA,TREASURE,,,,,,,,,,,,,,,,,,,,,,,,,,,,,,,,,,,,,,,,,,18.153825,,,,,,,,,DAFINI,incorrect,,,,,,,,,,,,0,3,3,19,1,,,,,,,,,,,,,,,,,,,,,,,,,
,,,,,,,,,,00001555279,2020-10-23_18h08.15.607,swahili,2020.2.4,Win32,60,,,,,,,,JIBINI,CHEESE,,,,,,,,,,,,,,,,,,,,,,,,,,,,,,,,,,,,,,,,,,4.513055,,,,,,,,,JIBINI,correct,,,,,,,,,,,,0,4,4,10,1,,,,,,,,,,,,,,,,,,,,,,,,,
,,,,,,,,,,00001555279,2020-10-23_18h08.15.607,swahili,2020.2.4,Win32,60,,,,,,,,TAJIRI,MERCHANT,,,,,,,,,,,,,,,,,,,,,,,,,,,,,,,,,,,,,,,,,,38.723645,,,,,,,,,NAJIRI,incorrect,,,,,,,,,,,,0,5,5,0,1,,,,,,,,,,,,,,,,,,,,,,,,,
,,,,,,,,,,00001555279,2020-10-23_18h08.15.607,swahili,2020.2.4,Win32,60,,,,,,,,YATIMA,ORPHAN,,,,,,,,,,,,,,,,,,,,,,,,,,,,,,,,,,,,,,,,,,13.723,,,,,,,,,YATIMA,correct,,,,,,,,,,,,0,6,6,16,1,,,,,,,,,,,,,,,,,,,,,,,,,
,,,,,,,,,,00001555279,2020-10-23_18h08.15.607,swahili,2020.2.4,Win32,60,,,,,,,,SAHANI,PLATE,,,,,,,,,,,,,,,,,,,,,,,,,,,,,,,,,,,,,,,,,,10.74257,,,,,,,,,FAHINI,incorrect,,,,,,,,,,,,0,7,7,3,1,,,,,,,,,,,,,,,,,,,,,,,,,
,,,,,,,,,,00001555279,2020-10-23_18h08.15.607,swahili,2020.2.4,Win32,60,,,,,,,,RUSHWA,BRIBE,,,,,,,,,,,,,,,,,,,,,,,,,,,,,,,,,,,,,,,,,,7.86057,,,,,,,,,RASHUA,incorrect,,,,,,,,,,,,0,8,8,15,1,,,,,,,,,,,,,,,,,,,,,,,,,
,,,,,,,,,,00001555279,2020-10-23_18h08.15.607,swahili,2020.2.4,Win32,60,,,,,,,,ZABIBU,GRAPES,,,,,,,,,,,,,,,,,,,,,,,,,,,,,,,,,,,,,,,,,,7.17783,,,,,,,,,ZABIBU,correct,,,,,,,,,,,,0,9,9,11,1,,,,,,,,,,,,,,,,,,,,,,,,,
,,,,,,,,,,00001555279,2020-10-23_18h08.15.607,swahili,2020.2.4,Win32,60,,,,,,,,HAMIRA,YEAST,,,,,,,,,,,,,,,,,,,,,,,,,,,,,,,,,,,,,,,,,,4.04658,,,,,,,,,HAMINA,incorrect,,,,,,,,,,,,0,10,10,4,1,,,,,,,,,,,,,,,,,,,,,,,,,
,,,,,,,,,,00001555279,2020-10-23_18h08.15.607,swahili,2020.2.4,Win32,60,,,,,,,,UTENZI,POEM,,,,,,,,,,,,,,,,,,,,,,,,,,,,,,,,,,,,,,,,,,5.01291,,,,,,,,,UTENZA,incorrect,,,,,,,,,,,,0,11,11,8,1,,,,,,,,,,,,,,,,,,,,,,,,,
,,,,,,,,,,00001555279,2020-10-23_18h08.15.607,swahili,2020.2.4,Win32,60,,,,,,,,NAFAKA,CORN,,,,,,,,,,,,,,,,,,,,,,,,,,,,,,,,,,,,,,,,,,9.409995,,,,,,,,,NAFAKA,correct,,,,,,,,,,,,0,12,12,7,1,,,,,,,,,,,,,,,,,,,,,,,,,
,,,,,,,,,,00001555279,2020-10-23_18h08.15.607,swahili,2020.2.4,Win32,60,,,,,,,,WAKILI,AGENT,,,,,,,,,,,,,,,,,,,,,,,,,,,,,,,,,,,,,,,,,,5.112445,,,,,,,,,ZAHILI,incorrect,,,,,,,,,,,,0,13,13,14,1,,,,,,,,,,,,,,,,,,,,,,,,,
,,,,,,,,,,00001555279,2020-10-23_18h08.15.607,swahili,2020.2.4,Win32,60,,,,,,,,LAWAMA,BLAME,,,,,,,,,,,,,,,,,,,,,,,,,,,,,,,,,,,,,,,,,,6.74449,,,,,,,,,LAWAMA,correct,,,,,,,,,,,,0,14,14,5,1,,,,,,,,,,,,,,,,,,,,,,,,,
,,,,,,,,,,00001555279,2020-10-23_18h08.15.607,swahili,2020.2.4,Win32,60,,,,,,,,KASUKU,PARROT,,,,,,,,,,,,,,,,,,,,,,,,,,,,,,,,,,,,,,,,,,6.178815,,,,,,,,,KASUKU,correct,,,,,,,,,,,,0,15,15,1,1,,,,,,,,,,,,,,,,,,,,,,,,,
,,,,,,,,,,00001555279,2020-10-23_18h08.15.607,swahili,2020.2.4,Win32,60,,,,,,,,KABURI,GRAVE,,,,,,,,,,,,,,,,,,,,,,,,,,,,,,,,,,,,,,,,,,6.72832,,,,,,,,,KABURI,correct,,,,,,,,,,,,0,16,16,12,1,,,,,,,,,,,,,,,,,,,,,,,,,
,,,,,,,,,,00001555279,2020-10-23_18h08.15.607,swahili,2020.2.4,Win32,60,,,,,,,,MSHONI,TAILOR,,,,,,,,,,,,,,,,,,,,,,,,,,,,,,,,,,,,,,,,,,5.978475,,,,,,,,,MSHONI,correct,,,,,,,,,,,,0,17,17,9,1,,,,,,,,,,,,,,,,,,,,,,,,,
,,,,,,,,,,00001555279,2020-10-23_18h08.15.607,swahili,2020.2.4,Win32,60,,,,,,,,YAMINI,OATH,,,,,,,,,,,,,,,,,,,,,,,,,,,,,,,,,,,,,,,,,,7.361255,,,,,,,,,YAMINA,incorrect,,,,,,,,,,,,0,18,18,6,1,,,,,,,,,,,,,,,,,,,,,,,,,
,,,,,,,,,,00001555279,2020-10-23_18h08.15.607,swahili,2020.2.4,Win32,60,,,,,,,,TALAKA,DIVORCE,,,,,,,,,,,,,,,,,,,,,,,,,,,,,,,,,,,,,,,,,,7.527215,,,,,,,,,TILAKA,incorrect,,,,,,,,,,,,0,19,19,17,1,,,,,,,,,,,,,,,,,,,,,,,,,
,,,,,,,,,,00001555279,2020-10-23_18h08.15.607,swahili,2020.2.4,Win32,60,,,,,,,,,,,,,,,,,,,,,,,,,,,,,,,,,,,,,,,,,,,,,,,,,,,,,,,,,,,,,,,,,,,,,,,,,,,,,,0,0,0,0,1,I bought all my goods from the ____ at the market. ,TAJIRI,,,,,,,,,,,,,,,,,,
,,,,,,,,,,00001555279,2020-10-23_18h08.15.607,swahili,2020.2.4,Win32,60,,,,,,,,,,,,,,,,,,,,,,,,,,,,,,,,,,,,,,,,,,,,,,,,,,,,,,,,,,,,,,,,,,,,,,,,,,,,,,0,1,1,1,1,The ____ is a bird that can learn to repeat words.,KASUKU,,,,,,,,,,,,,,,,,,
,,,,,,,,,,00001555279,2020-10-23_18h08.15.607,swahili,2020.2.4,Win32,60,,,,,,,,,,,,,,,,,,,,,,,,,,,,,,,,,,,,,,,,,,,,,,,,,,,,,,,,,,,,,,,,,,,,,,,,,,,,,,0,2,2,2,1,The ____ charged the matador's red cape. ,FAHILI,,,,,,,,,,,,,,,,,,
,,,,,,,,,,00001555279,2020-10-23_18h08.15.607,swahili,2020.2.4,Win32,60,,,,,,,,,,,,,,,,,,,,,,,,,,,,,,,,,,,,,,,,,,,,,,,,,,,,,,,,,,,,,,,,,,,,,,,,,,,,,,0,3,3,3,1,I filled my ____ with food at the buffet. ,SAHANI,,,,,,,,,,,,,,,,,,
,,,,,,,,,,00001555279,2020-10-23_18h08.15.607,swahili,2020.2.4,Win32,60,,,,,,,,,,,,,,,,,,,,,,,,,,,,,,,,,,,,,,,,,,,,,,,,,,,,,,,,,,,,,,,,,,,,,,,,,,,,,,0,4,4,4,1,_____ makes bread rise. ,HAMIRA,,,,,,,,,,,,,,,,,,
,,,,,,,,,,00001555279,2020-10-23_18h08.15.607,swahili,2020.2.4,Win32,60,,,,,,,,,,,,,,,,,,,,,,,,,,,,,,,,,,,,,,,,,,,,,,,,,,,,,,,,,,,,,,,,,,,,,,,,,,,,,,0,5,5,5,1,Shannon had no one else to  ____ for what happened.,LAWAMA,,,,,,,,,,,,,,,,,,
,,,,,,,,,,00001555279,2020-10-23_18h08.15.607,swahili,2020.2.4,Win32,60,,,,,,,,,,,,,,,,,,,,,,,,,,,,,,,,,,,,,,,,,,,,,,,,,,,,,,,,,,,,,,,,,,,,,,,,,,,,,,0,6,6,6,1,The president takes the  ____ of office to uphold the Constitution.,YAMINI,,,,,,,,,,,,,,,,,,
,,,,,,,,,,00001555279,2020-10-23_18h08.15.607,swahili,2020.2.4,Win32,60,,,,,,,,,,,,,,,,,,,,,,,,,,,,,,,,,,,,,,,,,,,,,,,,,,,,,,,,,,,,,,,,,,,,,,,,,,,,,,0,7,7,7,1,Kate doesn't like ____ on the cob because it gets stuck between her teeth. ,NAFAKA,,,,,,,,,,,,,,,,,,
,,,,,,,,,,00001555279,2020-10-23_18h08.15.607,swahili,2020.2.4,Win32,60,,,,,,,,,,,,,,,,,,,,,,,,,,,,,,,,,,,,,,,,,,,,,,,,,,,,,,,,,,,,,,,,,,,,,,,,,,,,,,0,8,8,8,1,David wrote Cynthia a romantic ____  but she thought it rhymed too much.,UTENZI,,,,,,,,,,,,,,,,,,
,,,,,,,,,,00001555279,2020-10-23_18h08.15.607,swahili,2020.2.4,Win32,60,,,,,,,,,,,,,,,,,,,,,,,,,,,,,,,,,,,,,,,,,,,,,,,,,,,,,,,,,,,,,,,,,,,,,,,,,,,,,,0,9,9,9,1,Charles went to the ____ to get his suit adjusted. ,MSHONI,,,,,,,,,,,,,,,,,,
,,,,,,,,,,00001555279,2020-10-23_18h08.15.607,swahili,2020.2.4,Win32,60,,,,,,,,,,,,,,,,,,,,,,,,,,,,,,,,,,,,,,,,,,,,,,,,,,,,,,,,,,,,,,,,,,,,,,,,,,,,,,0,10,10,10,1,Amy cooked a grilled ____ sandwich to go with her tomato soup.,JIBINI,,,,,,,,,,,,,,,,,,
,,,,,,,,,,00001555279,2020-10-23_18h08.15.607,swahili,2020.2.4,Win32,60,,,,,,,,,,,,,,,,,,,,,,,,,,,,,,,,,,,,,,,,,,,,,,,,,,,,,,,,,,,,,,,,,,,,,,,,,,,,,,0,11,11,11,1,Fermented _______ are used to make wine.,ZABIBU,,,,,,,,,,,,,,,,,,
,,,,,,,,,,00001555279,2020-10-23_18h08.15.607,swahili,2020.2.4,Win32,60,,,,,,,,,,,,,,,,,,,,,,,,,,,,,,,,,,,,,,,,,,,,,,,,,,,,,,,,,,,,,,,,,,,,,,,,,,,,,,0,12,12,12,1,She visited her father's ___ on the anniversary of his death. ,KABURI,,,,,,,,,,,,,,,,,,
,,,,,,,,,,00001555279,2020-10-23_18h08.15.607,swahili,2020.2.4,Win32,60,,,,,,,,,,,,,,,,,,,,,,,,,,,,,,,,,,,,,,,,,,,,,,,,,,,,,,,,,,,,,,,,,,,,,,,,,,,,,,0,13,13,13,1,"On a farm, there is a good chance you will step into a pile of ______.",SAMADI,,,,,,,,,,,,,,,,,,
,,,,,,,,,,00001555279,2020-10-23_18h08.15.607,swahili,2020.2.4,Win32,60,,,,,,,,,,,,,,,,,,,,,,,,,,,,,,,,,,,,,,,,,,,,,,,,,,,,,,,,,,,,,,,,,,,,,,,,,,,,,,0,14,14,14,1,"To buy a house, you may need to speak with a real estate ______.",WAKILI,,,,,,,,,,,,,,,,,,
,,,,,,,,,,00001555279,2020-10-23_18h08.15.607,swahili,2020.2.4,Win32,60,,,,,,,,,,,,,,,,,,,,,,,,,,,,,,,,,,,,,,,,,,,,,,,,,,,,,,,,,,,,,,,,,,,,,,,,,,,,,,0,15,15,15,1,The politician was arrested for taking a _____.,RUSHWA,,,,,,,,,,,,,,,,,,
,,,,,,,,,,00001555279,2020-10-23_18h08.15.607,swahili,2020.2.4,Win32,60,,,,,,,,,,,,,,,,,,,,,,,,,,,,,,,,,,,,,,,,,,,,,,,,,,,,,,,,,,,,,,,,,,,,,,,,,,,,,,0,16,16,16,1,The _____ is living with foster parents.,YATIMA,,,,,,,,,,,,,,,,,,
,,,,,,,,,,00001555279,2020-10-23_18h08.15.607,swahili,2020.2.4,Win32,60,,,,,,,,,,,,,,,,,,,,,,,,,,,,,,,,,,,,,,,,,,,,,,,,,,,,,,,,,,,,,,,,,,,,,,,,,,,,,,0,17,17,17,1,My aunt and uncle got a _________ after two years of marriage.,TALAKA,,,,,,,,,,,,,,,,,,
,,,,,,,,,,00001555279,2020-10-23_18h08.15.607,swahili,2020.2.4,Win32,60,,,,,,,,,,,,,,,,,,,,,,,,,,,,,,,,,,,,,,,,,,,,,,,,,,,,,,,,,,,,,,,,,,,,,,,,,,,,,,0,18,18,18,1,You need a ______ to go fishing in the middle of a lake.,MASHUA,,,,,,,,,,,,,,,,,,
,,,,,,,,,,00001555279,2020-10-23_18h08.15.607,swahili,2020.2.4,Win32,60,,,,,,,,,,,,,,,,,,,,,,,,,,,,,,,,,,,,,,,,,,,,,,,,,,,,,,,,,,,,,,,,,,,,,,,,,,,,,,0,19,19,19,1,Pirates looked for buried _________ at the bottom of the sea.,DAFINA,,,,,,,,,,,,,,,,,,
,,,,,,,,,,00001555279,2020-10-23_18h08.15.607,swahili,2020.2.4,Win32,60,,,,,,,,,,,,,,,,,,,,,,,,,,,,,,,,,,,,,,,,,,,,,,,,,,,,,,,,,,,,,,,,,,,,,,,,,,,,,,,,,,,_____ makes bread rise. ,HAMIRA,return,3.55976,HAMIRA,correct,-0.024999971,-0.498148306,1,0,0,5.170445,b,0,0,0,4,1,,
,,,,,,,,,,00001555279,2020-10-23_18h08.15.607,swahili,2020.2.4,Win32,60,,,,,,,,,,,,,,,,,,,,,,,,,,,,,,,,,,,,,,,,,,,,,,,,,,,,,,,,,,,,,,,,,,,,,,,,,,,,,,,,,,,I bought all my goods from the ____ at the market. ,TAJIRI,,,TAJIRI,correct,0.00312503,-0.524074119,1,0,0,15.719605,b,0,1,1,0,1,,
,,,,,,,,,,00001555279,2020-10-23_18h08.15.607,swahili,2020.2.4,Win32,60,,,,,,,,,,,,,,,,,,,,,,,,,,,,,,,,,,,,,,,,,,,,,,,,,,,,,,,,,,,,,,,,,,,,,,,,,,,,,,,,,,,I filled my ____ with food at the buffet. ,SAHANI,,,SAHANI,correct,-0.002083304,-0.542592752,1,0,0,13.67203,b,0,2,2,3,1,,
,,,,,,,,,,00001555279,2020-10-23_18h08.15.607,swahili,2020.2.4,Win32,60,,,,,,,,,,,,,,,,,,,,,,,,,,,,,,,,,,,,,,,,,,,,,,,,,,,,,,,,,,,,,,,,,,,,,,,,,,,,,,,,,,,The ____ is a bird that can learn to repeat words.,KASUKU,,,KASUKU,correct,-0.482291651,-0.525926084,1,0,0,5.17625,a,0,3,3,1,1,,
,,,,,,,,,,00001555279,2020-10-23_18h08.15.607,swahili,2020.2.4,Win32,60,,,,,,,,,,,,,,,,,,,,,,,,,,,,,,,,,,,,,,,,,,,,,,,,,,,,,,,,,,,,,,,,,,,,,,,,,,,,,,,,,,,Pirates looked for buried _________ at the bottom of the sea.,DAFINA,,,DAFINA,correct,-0.499999985,-0.49259275,1,0,0,5.460355,a,0,4,4,19,1,,
,,,,,,,,,,00001555279,2020-10-23_18h08.15.607,swahili,2020.2.4,Win32,60,,,,,,,,,,,,,,,,,,,,,,,,,,,,,,,,,,,,,,,,,,,,,,,,,,,,,,,,,,,,,,,,,,,,,,,,,,,,,,,,,,,The _____ is living with foster parents.,YATIMA,,,YATIMA,correct,-0.458333317,-0.503703862,1,0,0,7.40867,a,0,5,5,16,1,,
,,,,,,,,,,00001555279,2020-10-23_18h08.15.607,swahili,2020.2.4,Win32,60,,,,,,,,,,,,,,,,,,,,,,,,,,,,,,,,,,,,,,,,,,,,,,,,,,,,,,,,,,,,,,,,,,,,,,,,,,,,,,,,,,,The president takes the  ____ of office to uphold the Constitution.,YAMINI,,,YAMINI,correct,-0.057291575,-0.564814974,1,0,0,17.3195,b,0,6,6,6,1,,
,,,,,,,,,,00001555279,2020-10-23_18h08.15.607,swahili,2020.2.4,Win32,60,,,,,,,,,,,,,,,,,,,,,,,,,,,,,,,,,,,,,,,,,,,,,,,,,,,,,,,,,,,,,,,,,,,,,,,,,,,,,,,,,,,David wrote Cynthia a romantic ____  but she thought it rhymed too much.,UTENZI,,,UTENZI,correct,0.496875045,-0.540740787,1,0,0,12.838125,c,0,7,7,8,1,,
,,,,,,,,,,00001555279,2020-10-23_18h08.15.607,swahili,2020.2.4,Win32,60,,,,,,,,,,,,,,,,,,,,,,,,,,,,,,,,,,,,,,,,,,,,,,,,,,,,,,,,,,,,,,,,,,,,,,,,,,,,,,,,,,,The ____ charged the matador's red cape. ,FAHILI,,,FAHILI,correct,-0.417708316,-0.477777822,1,0,0,4.69435,a,0,8,8,2,1,,
,,,,,,,,,,00001555279,2020-10-23_18h08.15.607,swahili,2020.2.4,Win32,60,,,,,,,,,,,,,,,,,,,,,,,,,,,,,,,,,,,,,,,,,,,,,,,,,,,,,,,,,,,,,,,,,,,,,,,,,,,,,,,,,,,She visited her father's ___ on the anniversary of his death. ,KABURI,,,KABURI,correct,0.004166697,-0.511111156,1,0,0,5.061255,b,0,9,9,12,1,,
,,,,,,,,,,00001555279,2020-10-23_18h08.15.607,swahili,2020.2.4,Win32,60,,,,,,,,,,,,,,,,,,,,,,,,,,,,,,,,,,,,,,,,,,,,,,,,,,,,,,,,,,,,,,,,,,,,,,,,,,,,,,,,,,,You need a ______ to go fishing in the middle of a lake.,MASHUA,,,MASHUA,correct,0.421875042,-0.412963005,1,0,0,3.926885,c,0,10,10,18,1,,
,,,,,,,,,,00001555279,2020-10-23_18h08.15.607,swahili,2020.2.4,Win32,60,,,,,,,,,,,,,,,,,,,,,,,,,,,,,,,,,,,,,,,,,,,,,,,,,,,,,,,,,,,,,,,,,,,,,,,,,,,,,,,,,,,Kate doesn't like ____ on the cob because it gets stuck between her teeth. ,NAFAKA,,,NAFAKA,correct,-0.529166653,-0.488888933,1,0,0,5.17664,a,0,11,11,7,1,,
,,,,,,,,,,00001555279,2020-10-23_18h08.15.607,swahili,2020.2.4,Win32,60,,,,,,,,,,,,,,,,,,,,,,,,,,,,,,,,,,,,,,,,,,,,,,,,,,,,,,,,,,,,,,,,,,,,,,,,,,,,,,,,,,,Fermented _______ are used to make wine.,ZABIBU,,,ZABIBU,correct,-0.482291651,-0.511111156,1,0,0,5.04345,a,0,12,12,11,1,,
,,,,,,,,,,00001555279,2020-10-23_18h08.15.607,swahili,2020.2.4,Win32,60,,,,,,,,,,,,,,,,,,,,,,,,,,,,,,,,,,,,,,,,,,,,,,,,,,,,,,,,,,,,,,,,,,,,,,,,,,,,,,,,,,,Charles went to the ____ to get his suit adjusted. ,MSHONI,,,MSHONI,correct,-0.566666654,-0.525926084,1,0,0,7.32485,a,0,13,13,9,1,,
,,,,,,,,,,00001555279,2020-10-23_18h08.15.607,swahili,2020.2.4,Win32,60,,,,,,,,,,,,,,,,,,,,,,,,,,,,,,,,,,,,,,,,,,,,,,,,,,,,,,,,,,,,,,,,,,,,,,,,,,,,,,,,,,,"On a farm, there is a good chance you will step into a pile of ______.",SAMADI,,,SAMADI,correct,0.503125045,-0.46666671,1,0,0,6.24339,c,0,14,14,13,1,,
,,,,,,,,,,00001555279,2020-10-23_18h08.15.607,swahili,2020.2.4,Win32,60,,,,,,,,,,,,,,,,,,,,,,,,,,,,,,,,,,,,,,,,,,,,,,,,,,,,,,,,,,,,,,,,,,,,,,,,,,,,,,,,,,,Amy cooked a grilled ____ sandwich to go with her tomato soup.,JIBINI,,,JIBINI,correct,0.583333381,-0.53148164,1,0,0,5.07697,c,0,15,15,10,1,,
,,,,,,,,,,00001555279,2020-10-23_18h08.15.607,swahili,2020.2.4,Win32,60,,,,,,,,,,,,,,,,,,,,,,,,,,,,,,,,,,,,,,,,,,,,,,,,,,,,,,,,,,,,,,,,,,,,,,,,,,,,,,,,,,,My aunt and uncle got a _________ after two years of marriage.,TALAKA,,,TALAKA,correct,-0.485416651,-0.507407452,1,0,0,7.77588,a,0,16,16,17,1,,
,,,,,,,,,,00001555279,2020-10-23_18h08.15.607,swahili,2020.2.4,Win32,60,,,,,,,,,,,,,,,,,,,,,,,,,,,,,,,,,,,,,,,,,,,,,,,,,,,,,,,,,,,,,,,,,,,,,,,,,,,,,,,,,,,"To buy a house, you may need to speak with a real estate ______.",WAKILI,,,WAKILI,correct,0.477083377,-0.455555599,1,0,0,4.95981,c,0,17,17,14,1,,
,,,,,,,,,,00001555279,2020-10-23_18h08.15.607,swahili,2020.2.4,Win32,60,,,,,,,,,,,,,,,,,,,,,,,,,,,,,,,,,,,,,,,,,,,,,,,,,,,,,,,,,,,,,,,,,,,,,,,,,,,,,,,,,,,Shannon had no one else to  ____ for what happened.,LAWAMA,,,LAWAMA,correct,-0.473958286,-0.522222268,1,0,0,23.298575,a,0,18,18,5,1,,
,,,,,,,,,,00001555279,2020-10-23_18h08.15.607,swahili,2020.2.4,Win32,60,,,,,,,,,,,,,,,,,,,,,,,,,,,,,,,,,,,,,,,,,,,,,,,,,,,,,,,,,,,,,,,,,,,,,,,,,,,,,,,,,,,The politician was arrested for taking a _____.,RUSHWA,,,RUSHWA,correct,-0.463541651,-0.511111156,1,0,0,16.851565,a,0,19,19,15,1,,
,,,,,,,,,,00001555279,2020-10-23_18h08.15.607,swahili,2020.2.4,Win32,60,,,,,,,,,,,,,,,,,,,,,,,,,,,,,,,,,,,,,,,,,,,,,,,,,,,,,,,,,,,,,,,,,,,,,,,,,,,,,,,,,,,,,,,,,,,,,,,,,,,,,return,4.698245
