condition,consent_key.keys,consent_key.rt,done_with_instructions.keys,done_with_instructions.rt,instr_loop.thisRepN,instr_loop.thisTrialN,instr_loop.thisN,instr_loop.thisIndex,instr_loop.ran,Student ID #,date,expName,psychopyVersion,OS,frameRate,instr_learning_key.keys,instr_learning_key.rt,card_gen_loop.thisRepN,card_gen_loop.thisTrialN,card_gen_loop.thisN,card_gen_loop.thisIndex,card_gen_loop.ran,swa,eng,choose_pile.x,choose_pile.y,choose_pile.leftButton,choose_pile.midButton,choose_pile.rightButton,choose_pile.time,choose_pile.clicked_name,choices.thisRepN,choices.thisTrialN,choices.thisN,choices.thisIndex,choices.ran,card_to_show,mouse_pick.x,mouse_pick.y,mouse_pick.leftButton,mouse_pick.midButton,mouse_pick.rightButton,mouse_pick.time,mouse_pick.clicked_name,key_instr_study.keys,key_instr_study.rt,next_study.keys,next_study.rt,study_loop.thisRepN,study_loop.thisTrialN,study_loop.thisN,study_loop.thisIndex,study_loop.ran,key_instr_test.keys,learn_loop.thisRepN,learn_loop.thisTrialN,learn_loop.thisN,learn_loop.thisIndex,learn_loop.ran,trials.thisRepN,trials.thisTrialN,trials.thisN,trials.thisIndex,trials.ran,key_instr_test.rt,duration,yes_or_no.x,yes_or_no.y,yes_or_no.leftButton,yes_or_no.midButton,yes_or_no.rightButton,yes_or_no.time,yes_or_no.clicked_name,test_response.stim,test_response.resp,test_response.eval,test_loop.thisRepN,test_loop.thisTrialN,test_loop.thisN,test_loop.thisIndex,test_loop.ran,instr_movie_key.keys,instr_movie_key.rt,return_to_exp.keys,return_to_exp.rt,instr_assess_key.keys,instr_assess_key.rt,assess_loop.thisRepN,assess_loop.thisTrialN,assess_loop.thisN,assess_loop.thisIndex,assess_loop.ran,ans_gen_loop.thisRepN,ans_gen_loop.thisTrialN,ans_gen_loop.thisN,ans_gen_loop.thisIndex,ans_gen_loop.ran,sen,ans,instr_transfer_key.keys,instr_transfer_key.rt,transfer_response.resp,transfer_response.eval,select_word.x,select_word.y,select_word.leftButton,select_word.midButton,select_word.rightButton,select_word.time,select_word.clicked_name,transfers.thisRepN,transfers.thisTrialN,transfers.thisN,transfers.thisIndex,transfers.ran,end_experiment.keys,end_experiment.rt
2,return,20.39221,return,15.81921,0,0,0,0,1,1584561,2020-10-23_22h28.51.519,swahili,2020.2.4,Win32,60,,,,,,,,,,,,,,,,,,,,,,,,,,,,,,,,,,,,,,,,,,,,,,,,,,,,,,,,,,,,,,,,,,,,,,,,,,,,,,,,,,,,,,,,,,,,,,,,,,,,,,
,,,return,21.125365,1,0,1,0,1,1584561,2020-10-23_22h28.51.519,swahili,2020.2.4,Win32,60,,,,,,,,,,,,,,,,,,,,,,,,,,,,,,,,,,,,,,,,,,,,,,,,,,,,,,,,,,,,,,,,,,,,,,,,,,,,,,,,,,,,,,,,,,,,,,,,,,,,,,
,,,,,,,,,,1584561,2020-10-23_22h28.51.519,swahili,2020.2.4,Win32,60,return,16.75425,0,0,0,0,1,TAJIRI,MERCHANT,,,,,,,,,,,,,,,,,,,,,,,,,,,,,,,,,,,,,,,,,,,,,,,,,,,,,,,,,,,,,,,,,,,,,,,,,,,,,,,,,,,,,,,,,,,,,
,,,,,,,,,,1584561,2020-10-23_22h28.51.519,swahili,2020.2.4,Win32,60,,,0,1,1,1,1,KASUKU,PARROT,,,,,,,,,,,,,,,,,,,,,,,,,,,,,,,,,,,,,,,,,,,,,,,,,,,,,,,,,,,,,,,,,,,,,,,,,,,,,,,,,,,,,,,,,,,,,
,,,,,,,,,,1584561,2020-10-23_22h28.51.519,swahili,2020.2.4,Win32,60,,,0,2,2,2,1,FAHILI,BULL,,,,,,,,,,,,,,,,,,,,,,,,,,,,,,,,,,,,,,,,,,,,,,,,,,,,,,,,,,,,,,,,,,,,,,,,,,,,,,,,,,,,,,,,,,,,,
,,,,,,,,,,1584561,2020-10-23_22h28.51.519,swahili,2020.2.4,Win32,60,,,0,3,3,3,1,SAHANI,PLATE,,,,,,,,,,,,,,,,,,,,,,,,,,,,,,,,,,,,,,,,,,,,,,,,,,,,,,,,,,,,,,,,,,,,,,,,,,,,,,,,,,,,,,,,,,,,,
,,,,,,,,,,1584561,2020-10-23_22h28.51.519,swahili,2020.2.4,Win32,60,,,0,4,4,4,1,HAMIRA,YEAST,,,,,,,,,,,,,,,,,,,,,,,,,,,,,,,,,,,,,,,,,,,,,,,,,,,,,,,,,,,,,,,,,,,,,,,,,,,,,,,,,,,,,,,,,,,,,
,,,,,,,,,,1584561,2020-10-23_22h28.51.519,swahili,2020.2.4,Win32,60,,,0,5,5,5,1,LAWAMA,BLAME,,,,,,,,,,,,,,,,,,,,,,,,,,,,,,,,,,,,,,,,,,,,,,,,,,,,,,,,,,,,,,,,,,,,,,,,,,,,,,,,,,,,,,,,,,,,,
,,,,,,,,,,1584561,2020-10-23_22h28.51.519,swahili,2020.2.4,Win32,60,,,0,6,6,6,1,YAMINI,OATH,,,,,,,,,,,,,,,,,,,,,,,,,,,,,,,,,,,,,,,,,,,,,,,,,,,,,,,,,,,,,,,,,,,,,,,,,,,,,,,,,,,,,,,,,,,,,
,,,,,,,,,,1584561,2020-10-23_22h28.51.519,swahili,2020.2.4,Win32,60,,,0,7,7,7,1,NAFAKA,CORN,,,,,,,,,,,,,,,,,,,,,,,,,,,,,,,,,,,,,,,,,,,,,,,,,,,,,,,,,,,,,,,,,,,,,,,,,,,,,,,,,,,,,,,,,,,,,
,,,,,,,,,,1584561,2020-10-23_22h28.51.519,swahili,2020.2.4,Win32,60,,,0,8,8,8,1,UTENZI,POEM,,,,,,,,,,,,,,,,,,,,,,,,,,,,,,,,,,,,,,,,,,,,,,,,,,,,,,,,,,,,,,,,,,,,,,,,,,,,,,,,,,,,,,,,,,,,,
,,,,,,,,,,1584561,2020-10-23_22h28.51.519,swahili,2020.2.4,Win32,60,,,0,9,9,9,1,MSHONI,TAILOR,,,,,,,,,,,,,,,,,,,,,,,,,,,,,,,,,,,,,,,,,,,,,,,,,,,,,,,,,,,,,,,,,,,,,,,,,,,,,,,,,,,,,,,,,,,,,
,,,,,,,,,,1584561,2020-10-23_22h28.51.519,swahili,2020.2.4,Win32,60,,,0,10,10,10,1,JIBINI,CHEESE,,,,,,,,,,,,,,,,,,,,,,,,,,,,,,,,,,,,,,,,,,,,,,,,,,,,,,,,,,,,,,,,,,,,,,,,,,,,,,,,,,,,,,,,,,,,,
,,,,,,,,,,1584561,2020-10-23_22h28.51.519,swahili,2020.2.4,Win32,60,,,0,11,11,11,1,ZABIBU,GRAPES,,,,,,,,,,,,,,,,,,,,,,,,,,,,,,,,,,,,,,,,,,,,,,,,,,,,,,,,,,,,,,,,,,,,,,,,,,,,,,,,,,,,,,,,,,,,,
,,,,,,,,,,1584561,2020-10-23_22h28.51.519,swahili,2020.2.4,Win32,60,,,0,12,12,12,1,KABURI,GRAVE,,,,,,,,,,,,,,,,,,,,,,,,,,,,,,,,,,,,,,,,,,,,,,,,,,,,,,,,,,,,,,,,,,,,,,,,,,,,,,,,,,,,,,,,,,,,,
,,,,,,,,,,1584561,2020-10-23_22h28.51.519,swahili,2020.2.4,Win32,60,,,0,13,13,13,1,SAMADI,MANURE,,,,,,,,,,,,,,,,,,,,,,,,,,,,,,,,,,,,,,,,,,,,,,,,,,,,,,,,,,,,,,,,,,,,,,,,,,,,,,,,,,,,,,,,,,,,,
,,,,,,,,,,1584561,2020-10-23_22h28.51.519,swahili,2020.2.4,Win32,60,,,0,14,14,14,1,WAKILI,AGENT,,,,,,,,,,,,,,,,,,,,,,,,,,,,,,,,,,,,,,,,,,,,,,,,,,,,,,,,,,,,,,,,,,,,,,,,,,,,,,,,,,,,,,,,,,,,,
,,,,,,,,,,1584561,2020-10-23_22h28.51.519,swahili,2020.2.4,Win32,60,,,0,15,15,15,1,RUSHWA,BRIBE,,,,,,,,,,,,,,,,,,,,,,,,,,,,,,,,,,,,,,,,,,,,,,,,,,,,,,,,,,,,,,,,,,,,,,,,,,,,,,,,,,,,,,,,,,,,,
,,,,,,,,,,1584561,2020-10-23_22h28.51.519,swahili,2020.2.4,Win32,60,,,0,16,16,16,1,YATIMA,ORPHAN,,,,,,,,,,,,,,,,,,,,,,,,,,,,,,,,,,,,,,,,,,,,,,,,,,,,,,,,,,,,,,,,,,,,,,,,,,,,,,,,,,,,,,,,,,,,,
,,,,,,,,,,1584561,2020-10-23_22h28.51.519,swahili,2020.2.4,Win32,60,,,0,17,17,17,1,TALAKA,DIVORCE,,,,,,,,,,,,,,,,,,,,,,,,,,,,,,,,,,,,,,,,,,,,,,,,,,,,,,,,,,,,,,,,,,,,,,,,,,,,,,,,,,,,,,,,,,,,,
,,,,,,,,,,1584561,2020-10-23_22h28.51.519,swahili,2020.2.4,Win32,60,,,0,18,18,18,1,MASHUA,BOAT,,,,,,,,,,,,,,,,,,,,,,,,,,,,,,,,,,,,,,,,,,,,,,,,,,,,,,,,,,,,,,,,,,,,,,,,,,,,,,,,,,,,,,,,,,,,,
,,,,,,,,,,1584561,2020-10-23_22h28.51.519,swahili,2020.2.4,Win32,60,,,0,19,19,19,1,DAFINA,TREASURE,,,,,,,,,,,,,,,,,,,,,,,,,,,,,,,,,,,,,,,,,,,,,,,,,,,,,,,,,,,,,,,,,,,,,,,,,,,,,,,,,,,,,,,,,,,,,
,,,,,,,,,,1584561,2020-10-23_22h28.51.519,swahili,2020.2.4,Win32,60,,,,,,,,,,-0.319148916,0.038883321,1,0,0,9.99522,unsorted_card,0,0,0,0,1,,,,,,,,,,,,,,,,,,,,,,,,,,,,,,,,,,,,,,,,,,,,,,,,,,,,,,,,,,,,,,,,,,,,,,,,,,,,,,,,,
,,,,,,,,,,1584561,2020-10-23_22h28.51.519,swahili,2020.2.4,Win32,60,,,,,,,,,,-0.164893592,-0.008973111,1,0,0,3.67835,unsorted_card,1,0,1,0,1,MERCHANT - TAJIRI,,,,,,,,,,,,,,,,,,,,,,,,,,,,,,,,,,,,,,,,,,,,,,,,,,,,,,,,,,,,,,,,,,,,,,,,,,,,,,,,
,,,,,,,,,,1584561,2020-10-23_22h28.51.519,swahili,2020.2.4,Win32,60,,,,,,,,,,0.340425572,0.504154189,1,0,0,3.664105,study_pile,2,0,2,0,1,MERCHANT - TAJIRI,,,,,,,,,,,,,,,,,,,,,,,,,,,,,,,,,,,,,,,,,,,,,,,,,,,,,,,,,,,,,,,,,,,,,,,,,,,,,,,,
,,,,,,,,,,1584561,2020-10-23_22h28.51.519,swahili,2020.2.4,Win32,60,,,,,,,,,,-0.234929001,0.037553976,1,0,0,1.075245,unsorted_card,3,0,3,0,1,,,,,,,,,,,,,,,,,,,,,,,,,,,,,,,,,,,,,,,,,,,,,,,,,,,,,,,,,,,,,,,,,,,,,,,,,,,,,,,,,
,,,,,,,,,,1584561,2020-10-23_22h28.51.519,swahili,2020.2.4,Win32,60,,,,,,,,,,0.366134792,0.482884664,1,0,0,8.31051,study_pile,4,0,4,0,1,PARROT - KASUKU,,,,,,,,,,,,,,,,,,,,,,,,,,,,,,,,,,,,,,,,,,,,,,,,,,,,,,,,,,,,,,,,,,,,,,,,,,,,,,,,
,,,,,,,,,,1584561,2020-10-23_22h28.51.519,swahili,2020.2.4,Win32,60,,,,,,,,,,-0.178191465,-0.094051212,1,0,0,0.95884,unsorted_card,5,0,5,0,1,,,,,,,,,,,,,,,,,,,,,,,,,,,,,,,,,,,,,,,,,,,,,,,,,,,,,,,,,,,,,,,,,,,,,,,,,,,,,,,,,
,,,,,,,,,,1584561,2020-10-23_22h28.51.519,swahili,2020.2.4,Win32,60,,,,,,,,,,0.293439755,0.424393428,1,0,0,6.128395,study_pile,6,0,6,0,1,BULL - FAHILI,,,,,,,,,,,,,,,,,,,,,,,,,,,,,,,,,,,,,,,,,,,,,,,,,,,,,,,,,,,,,,,,,,,,,,,,,,,,,,,,
,,,,,,,,,,1584561,2020-10-23_22h28.51.519,swahili,2020.2.4,Win32,60,,,,,,,,,,-0.172872316,-0.078099068,1,0,0,0.925945,unsorted_card,7,0,7,0,1,,,,,,,,,,,,,,,,,,,,,,,,,,,,,,,,,,,,,,,,,,,,,,,,,,,,,,,,,,,,,,,,,,,,,,,,,,,,,,,,,
,,,,,,,,,,1584561,2020-10-23_22h28.51.519,swahili,2020.2.4,Win32,60,,,,,,,,,,0.38209224,0.490860736,1,0,0,6.679255,study_pile,8,0,8,0,1,PLATE - SAHANI,,,,,,,,,,,,,,,,,,,,,,,,,,,,,,,,,,,,,,,,,,,,,,,,,,,,,,,,,,,,,,,,,,,,,,,,,,,,,,,,
,,,,,,,,,,1584561,2020-10-23_22h28.51.519,swahili,2020.2.4,Win32,60,,,,,,,,,,-0.141843892,0.077434336,1,0,0,0.659185,unsorted_card,9,0,9,0,1,,,,,,,,,,,,,,,,,,,,,,,,,,,,,,,,,,,,,,,,,,,,,,,,,,,,,,,,,,,,,,,,,,,,,,,,,,,,,,,,,
,,,,,,,,,,1584561,2020-10-23_22h28.51.519,swahili,2020.2.4,Win32,60,,,,,,,,,,0.36790795,0.553339967,1,0,0,3.91274,study_pile,10,0,10,0,1,YEAST - HAMIRA,,,,,,,,,,,,,,,,,,,,,,,,,,,,,,,,,,,,,,,,,,,,,,,,,,,,,,,,,,,,,,,,,,,,,,,,,,,,,,,,
,,,,,,,,,,1584561,2020-10-23_22h28.51.519,swahili,2020.2.4,Win32,60,,,,,,,,,,-0.180851039,0.143901603,1,0,0,0.992615,unsorted_card,11,0,11,0,1,,,,,,,,,,,,,,,,,,,,,,,,,,,,,,,,,,,,,,,,,,,,,,,,,,,,,,,,,,,,,,,,,,,,,,,,,,,,,,,,,
,,,,,,,,,,1584561,2020-10-23_22h28.51.519,swahili,2020.2.4,Win32,60,,,,,,,,,,0.328014224,0.496178117,1,0,0,4.329105,study_pile,12,0,12,0,1,BLAME - LAWAMA,,,,,,,,,,,,,,,,,,,,,,,,,,,,,,,,,,,,,,,,,,,,,,,,,,,,,,,,,,,,,,,,,,,,,,,,,,,,,,,,
,,,,,,,,,,1584561,2020-10-23_22h28.51.519,swahili,2020.2.4,Win32,60,,,,,,,,,,-0.253546023,0.006979033,1,0,0,0.47802,unsorted_card,13,0,13,0,1,,,,,,,,,,,,,,,,,,,,,,,,,,,,,,,,,,,,,,,,,,,,,,,,,,,,,,,,,,,,,,,,,,,,,,,,,,,,,,,,,
,,,,,,,,,,1584561,2020-10-23_22h28.51.519,swahili,2020.2.4,Win32,60,,,,,,,,,,0.320922025,0.461615138,1,0,0,4.930625,study_pile,14,0,14,0,1,OATH - YAMINI,,,,,,,,,,,,,,,,,,,,,,,,,,,,,,,,,,,,,,,,,,,,,,,,,,,,,,,,,,,,,,,,,,,,,,,,,,,,,,,,
,,,,,,,,,,1584561,2020-10-23_22h28.51.519,swahili,2020.2.4,Win32,60,,,,,,,,,,-0.145390045,0.125290768,1,0,0,0.91588,unsorted_card,15,0,15,0,1,,,,,,,,,,,,,,,,,,,,,,,,,,,,,,,,,,,,,,,,,,,,,,,,,,,,,,,,,,,,,,,,,,,,,,,,,,,,,,,,,
,,,,,,,,,,1584561,2020-10-23_22h28.51.519,swahili,2020.2.4,Win32,60,,,,,,,,,,0.382978765,0.472249861,1,0,0,4.77533,study_pile,16,0,16,0,1,CORN - NAFAKA,,,,,,,,,,,,,,,,,,,,,,,,,,,,,,,,,,,,,,,,,,,,,,,,,,,,,,,,,,,,,,,,,,,,,,,,,,,,,,,,
,,,,,,,,,,1584561,2020-10-23_22h28.51.519,swahili,2020.2.4,Win32,60,,,,,,,,,,-0.268616999,0.024260523,1,0,0,0.760435,unsorted_card,17,0,17,0,1,,,,,,,,,,,,,,,,,,,,,,,,,,,,,,,,,,,,,,,,,,,,,,,,,,,,,,,,,,,,,,,,,,,,,,,,,,,,,,,,,
,,,,,,,,,,1584561,2020-10-23_22h28.51.519,swahili,2020.2.4,Win32,60,,,,,,,,,,0.301418479,0.542705204,1,0,0,5.345315,study_pile,18,0,18,0,1,POEM - UTENZI,,,,,,,,,,,,,,,,,,,,,,,,,,,,,,,,,,,,,,,,,,,,,,,,,,,,,,,,,,,,,,,,,,,,,,,,,,,,,,,,
,,,,,,,,,,1584561,2020-10-23_22h28.51.519,swahili,2020.2.4,Win32,60,,,,,,,,,,-0.197694957,0.127949459,1,0,0,0.62907,unsorted_card,19,0,19,0,1,,,,,,,,,,,,,,,,,,,,,,,,,,,,,,,,,,,,,,,,,,,,,,,,,,,,,,,,,,,,,,,,,,,,,,,,,,,,,,,,,
,,,,,,,,,,1584561,2020-10-23_22h28.51.519,swahili,2020.2.4,Win32,60,,,,,,,,,,0.401595786,0.488202005,1,0,0,9.513095,study_pile,20,0,20,0,1,TAILOR - MSHONI,,,,,,,,,,,,,,,,,,,,,,,,,,,,,,,,,,,,,,,,,,,,,,,,,,,,,,,,,,,,,,,,,,,,,,,,,,,,,,,,
,,,,,,,,,,1584561,2020-10-23_22h28.51.519,swahili,2020.2.4,Win32,60,,,,,,,,,,-0.161347493,0.094715825,1,0,0,1.37796,unsorted_card,21,0,21,0,1,,,,,,,,,,,,,,,,,,,,,,,,,,,,,,,,,,,,,,,,,,,,,,,,,,,,,,,,,,,,,,,,,,,,,,,,,,,,,,,,,
,,,,,,,,,,1584561,2020-10-23_22h28.51.519,swahili,2020.2.4,Win32,60,,,,,,,,,,0.324468125,0.461615138,1,0,0,1.66311,study_pile,22,0,22,0,1,CHEESE - JIBINI,,,,,,,,,,,,,,,,,,,,,,,,,,,,,,,,,,,,,,,,,,,,,,,,,,,,,,,,,,,,,,,,,,,,,,,,,,,,,,,,
,,,,,,,,,,1584561,2020-10-23_22h28.51.519,swahili,2020.2.4,Win32,60,,,,,,,,,,-0.20656026,0.046859393,1,0,0,0.79669,unsorted_card,23,0,23,0,1,,,,,,,,,,,,,,,,,,,,,,,,,,,,,,,,,,,,,,,,,,,,,,,,,,,,,,,,,,,,,,,,,,,,,,,,,,,,,,,,,
,,,,,,,,,,1584561,2020-10-23_22h28.51.519,swahili,2020.2.4,Win32,60,,,,,,,,,,0.353723445,0.465603175,1,0,0,8.945975,study_pile,24,0,24,0,1,GRAPES - ZABIBU,,,,,,,,,,,,,,,,,,,,,,,,,,,,,,,,,,,,,,,,,,,,,,,,,,,,,,,,,,,,,,,,,,,,,,,,,,,,,,,,
,,,,,,,,,,1584561,2020-10-23_22h28.51.519,swahili,2020.2.4,Win32,60,,,,,,,,,,-0.132092173,0.108009279,1,0,0,0.994235,unsorted_card,25,0,25,0,1,,,,,,,,,,,,,,,,,,,,,,,,,,,,,,,,,,,,,,,,,,,,,,,,,,,,,,,,,,,,,,,,,,,,,,,,,,,,,,,,,
,,,,,,,,,,1584561,2020-10-23_22h28.51.519,swahili,2020.2.4,Win32,60,,,,,,,,,,0.432624156,0.533399787,1,0,0,3.02931,study_pile,26,0,26,0,1,GRAVE - KABURI,,,,,,,,,,,,,,,,,,,,,,,,,,,,,,,,,,,,,,,,,,,,,,,,,,,,,,,,,,,,,,,,,,,,,,,,,,,,,,,,
,,,,,,,,,,1584561,2020-10-23_22h28.51.519,swahili,2020.2.4,Win32,60,,,,,,,,,,-0.191489338,0.070787609,1,0,0,0.86143,unsorted_card,27,0,27,0,1,,,,,,,,,,,,,,,,,,,,,,,,,,,,,,,,,,,,,,,,,,,,,,,,,,,,,,,,,,,,,,,,,,,,,,,,,,,,,,,,,
,,,,,,,,,,1584561,2020-10-23_22h28.51.519,swahili,2020.2.4,Win32,60,,,,,,,,,,0.391844121,0.485543355,1,0,0,3.579125,study_pile,28,0,28,0,1,MANURE - SAMADI,,,,,,,,,,,,,,,,,,,,,,,,,,,,,,,,,,,,,,,,,,,,,,,,,,,,,,,,,,,,,,,,,,,,,,,,,,,,,,,,
,,,,,,,,,,1584561,2020-10-23_22h28.51.519,swahili,2020.2.4,Win32,60,,,,,,,,,,-0.200354532,0.143901603,1,0,0,0.744845,unsorted_card,29,0,29,0,1,,,,,,,,,,,,,,,,,,,,,,,,,,,,,,,,,,,,,,,,,,,,,,,,,,,,,,,,,,,,,,,,,,,,,,,,,,,,,,,,,
,,,,,,,,,,1584561,2020-10-23_22h28.51.519,swahili,2020.2.4,Win32,60,,,,,,,,,,0.368794367,0.540046513,1,0,0,3.68023,study_pile,30,0,30,0,1,AGENT - WAKILI,,,,,,,,,,,,,,,,,,,,,,,,,,,,,,,,,,,,,,,,,,,,,,,,,,,,,,,,,,,,,,,,,,,,,,,,,,,,,,,,
,,,,,,,,,,1584561,2020-10-23_22h28.51.519,swahili,2020.2.4,Win32,60,,,,,,,,,,-0.17730494,0.166500474,1,0,0,0.560925,unsorted_card,31,0,31,0,1,,,,,,,,,,,,,,,,,,,,,,,,,,,,,,,,,,,,,,,,,,,,,,,,,,,,,,,,,,,,,,,,,,,,,,,,,,,,,,,,,
,,,,,,,,,,1584561,2020-10-23_22h28.51.519,swahili,2020.2.4,Win32,60,,,,,,,,,,0.423759016,0.492190081,1,0,0,6.313405,study_pile,32,0,32,0,1,BRIBE - RUSHWA,,,,,,,,,,,,,,,,,,,,,,,,,,,,,,,,,,,,,,,,,,,,,,,,,,,,,,,,,,,,,,,,,,,,,,,,,,,,,,,,
,,,,,,,,,,1584561,2020-10-23_22h28.51.519,swahili,2020.2.4,Win32,60,,,,,,,,,,-0.357269484,-0.072781687,1,0,0,1.36196,unsorted_card,33,0,33,0,1,,,,,,,,,,,,,,,,,,,,,,,,,,,,,,,,,,,,,,,,,,,,,,,,,,,,,,,,,,,,,,,,,,,,,,,,,,,,,,,,,
,,,,,,,,,,1584561,2020-10-23_22h28.51.519,swahili,2020.2.4,Win32,60,,,,,,,,,,0.343971671,0.450980376,1,0,0,2.81366,study_pile,34,0,34,0,1,ORPHAN - YATIMA,,,,,,,,,,,,,,,,,,,,,,,,,,,,,,,,,,,,,,,,,,,,,,,,,,,,,,,,,,,,,,,,,,,,,,,,,,,,,,,,
,,,,,,,,,,1584561,2020-10-23_22h28.51.519,swahili,2020.2.4,Win32,60,,,,,,,,,,-0.355496435,-0.076769723,1,0,0,0.696055,unsorted_card,35,0,35,0,1,,,,,,,,,,,,,,,,,,,,,,,,,,,,,,,,,,,,,,,,,,,,,,,,,,,,,,,,,,,,,,,,,,,,,,,,,,,,,,,,,
,,,,,,,,,,1584561,2020-10-23_22h28.51.519,swahili,2020.2.4,Win32,60,,,,,,,,,,0.417553234,0.489531391,1,0,0,3.49635,study_pile,36,0,36,0,1,DIVORCE - TALAKA,,,,,,,,,,,,,,,,,,,,,,,,,,,,,,,,,,,,,,,,,,,,,,,,,,,,,,,,,,,,,,,,,,,,,,,,,,,,,,,,
,,,,,,,,,,1584561,2020-10-23_22h28.51.519,swahili,2020.2.4,Win32,60,,,,,,,,,,-0.218085083,0.034895285,1,0,0,0.661955,unsorted_card,37,0,37,0,1,,,,,,,,,,,,,,,,,,,,,,,,,,,,,,,,,,,,,,,,,,,,,,,,,,,,,,,,,,,,,,,,,,,,,,,,,,,,,,,,,
,,,,,,,,,,1584561,2020-10-23_22h28.51.519,swahili,2020.2.4,Win32,60,,,,,,,,,,0.399822845,0.492190081,1,0,0,3.34666,study_pile,38,0,38,0,1,BOAT - MASHUA,,,,,,,,,,,,,,,,,,,,,,,,,,,,,,,,,,,,,,,,,,,,,,,,,,,,,,,,,,,,,,,,,,,,,,,,,,,,,,,,
,,,,,,,,,,1584561,2020-10-23_22h28.51.519,swahili,2020.2.4,Win32,60,,,,,,,,,,-0.264184321,0.032236595,1,0,0,0.545065,unsorted_card,39,0,39,0,1,,,,,,,,,,,,,,,,,,,,,,,,,,,,,,,,,,,,,,,,,,,,,,,,,,,,,,,,,,,,,,,,,,,,,,,,,,,,,,,,,
,,,,,,,,,,1584561,2020-10-23_22h28.51.519,swahili,2020.2.4,Win32,60,,,,,,,,,,0.391844121,0.478896628,1,0,0,1.915755,study_pile,40,0,40,0,1,TREASURE - DAFINA,,,,,,,,,,,,,,,,,,,,,,,,,,,,,,,,,,,,,,,,,,,,,,,,,,,,,,,,,,,,,,,,,,,,,,,,,,,,,,,,
,,,,,,,,,,1584561,2020-10-23_22h28.51.519,swahili,2020.2.4,Win32,60,,,,,,,,,,,,,,,,,,,,,,POEM - UTENZI,,,,,,,,return,6.15538,return,16.180795,0,0,0,0,1,,,,,,,,,,,,,,,,,,,,,,,,,,,,,,,,,,,,,,,,,,,,,,,,,,,,,,,,,,,,,,,,
,,,,,,,,,,1584561,2020-10-23_22h28.51.519,swahili,2020.2.4,Win32,60,,,,,,,,,,,,,,,,,,,,,,TAILOR - MSHONI,,,,,,,,,,return,27.798225,1,0,1,0,1,,,,,,,,,,,,,,,,,,,,,,,,,,,,,,,,,,,,,,,,,,,,,,,,,,,,,,,,,,,,,,,,
,,,,,,,,,,1584561,2020-10-23_22h28.51.519,swahili,2020.2.4,Win32,60,,,,,,,,,,,,,,,,,,,,,,PARROT - KASUKU,,,,,,,,,,return,31.840835,2,0,2,0,1,,,,,,,,,,,,,,,,,,,,,,,,,,,,,,,,,,,,,,,,,,,,,,,,,,,,,,,,,,,,,,,,
,,,,,,,,,,1584561,2020-10-23_22h28.51.519,swahili,2020.2.4,Win32,60,,,,,,,,,,,,,,,,,,,,,,MERCHANT - TAJIRI,,,,,,,,,,return,6.8006,3,0,3,0,1,,,,,,,,,,,,,,,,,,,,,,,,,,,,,,,,,,,,,,,,,,,,,,,,,,,,,,,,,,,,,,,,
,,,,,,,,,,1584561,2020-10-23_22h28.51.519,swahili,2020.2.4,Win32,60,,,,,,,,,,,,,,,,,,,,,,CORN - NAFAKA,,,,,,,,,,return,12.524935,4,0,4,0,1,,,,,,,,,,,,,,,,,,,,,,,,,,,,,,,,,,,,,,,,,,,,,,,,,,,,,,,,,,,,,,,,
,,,,,,,,,,1584561,2020-10-23_22h28.51.519,swahili,2020.2.4,Win32,60,,,,,,,,,,,,,,,,,,,,,,DIVORCE - TALAKA,,,,,,,,,,return,10.83307,5,0,5,0,1,,,,,,,,,,,,,,,,,,,,,,,,,,,,,,,,,,,,,,,,,,,,,,,,,,,,,,,,,,,,,,,,
,,,,,,,,,,1584561,2020-10-23_22h28.51.519,swahili,2020.2.4,Win32,60,,,,,,,,,,,,,,,,,,,,,,YEAST - HAMIRA,,,,,,,,,,return,17.888545,6,0,6,0,1,,,,,,,,,,,,,,,,,,,,,,,,,,,,,,,,,,,,,,,,,,,,,,,,,,,,,,,,,,,,,,,,
,,,,,,,,,,1584561,2020-10-23_22h28.51.519,swahili,2020.2.4,Win32,60,,,,,,,,,,,,,,,,,,,,,,BOAT - MASHUA,,,,,,,,,,return,7.890695,7,0,7,0,1,,,,,,,,,,,,,,,,,,,,,,,,,,,,,,,,,,,,,,,,,,,,,,,,,,,,,,,,,,,,,,,,
,,,,,,,,,,1584561,2020-10-23_22h28.51.519,swahili,2020.2.4,Win32,60,,,,,,,,,,,,,,,,,,,,,,OATH - YAMINI,,,,,,,,,,return,9.651115,8,0,8,0,1,,,,,,,,,,,,,,,,,,,,,,,,,,,,,,,,,,,,,,,,,,,,,,,,,,,,,,,,,,,,,,,,
,,,,,,,,,,1584561,2020-10-23_22h28.51.519,swahili,2020.2.4,Win32,60,,,,,,,,,,,,,,,,,,,,,,BRIBE - RUSHWA,,,,,,,,,,return,3.31683,9,0,9,0,1,,,,,,,,,,,,,,,,,,,,,,,,,,,,,,,,,,,,,,,,,,,,,,,,,,,,,,,,,,,,,,,,
,,,,,,,,,,1584561,2020-10-23_22h28.51.519,swahili,2020.2.4,Win32,60,,,,,,,,,,,,,,,,,,,,,,TREASURE - DAFINA,,,,,,,,,,return,11.13898,10,0,10,0,1,,,,,,,,,,,,,,,,,,,,,,,,,,,,,,,,,,,,,,,,,,,,,,,,,,,,,,,,,,,,,,,,
,,,,,,,,,,1584561,2020-10-23_22h28.51.519,swahili,2020.2.4,Win32,60,,,,,,,,,,,,,,,,,,,,,,BLAME - LAWAMA,,,,,,,,,,return,12.816005,11,0,11,0,1,,,,,,,,,,,,,,,,,,,,,,,,,,,,,,,,,,,,,,,,,,,,,,,,,,,,,,,,,,,,,,,,
,,,,,,,,,,1584561,2020-10-23_22h28.51.519,swahili,2020.2.4,Win32,60,,,,,,,,,,,,,,,,,,,,,,GRAPES - ZABIBU,,,,,,,,,,return,7.550275,12,0,12,0,1,,,,,,,,,,,,,,,,,,,,,,,,,,,,,,,,,,,,,,,,,,,,,,,,,,,,,,,,,,,,,,,,
,,,,,,,,,,1584561,2020-10-23_22h28.51.519,swahili,2020.2.4,Win32,60,,,,,,,,,,,,,,,,,,,,,,AGENT - WAKILI,,,,,,,,,,return,7.333195,13,0,13,0,1,,,,,,,,,,,,,,,,,,,,,,,,,,,,,,,,,,,,,,,,,,,,,,,,,,,,,,,,,,,,,,,,
,,,,,,,,,,1584561,2020-10-23_22h28.51.519,swahili,2020.2.4,Win32,60,,,,,,,,,,,,,,,,,,,,,,MANURE - SAMADI,,,,,,,,,,return,6.68394,14,0,14,0,1,,,,,,,,,,,,,,,,,,,,,,,,,,,,,,,,,,,,,,,,,,,,,,,,,,,,,,,,,,,,,,,,
,,,,,,,,,,1584561,2020-10-23_22h28.51.519,swahili,2020.2.4,Win32,60,,,,,,,,,,,,,,,,,,,,,,PLATE - SAHANI,,,,,,,,,,return,11.55418,15,0,15,0,1,,,,,,,,,,,,,,,,,,,,,,,,,,,,,,,,,,,,,,,,,,,,,,,,,,,,,,,,,,,,,,,,
,,,,,,,,,,1584561,2020-10-23_22h28.51.519,swahili,2020.2.4,Win32,60,,,,,,,,,,,,,,,,,,,,,,GRAVE - KABURI,,,,,,,,,,return,3.42383,16,0,16,0,1,,,,,,,,,,,,,,,,,,,,,,,,,,,,,,,,,,,,,,,,,,,,,,,,,,,,,,,,,,,,,,,,
,,,,,,,,,,1584561,2020-10-23_22h28.51.519,swahili,2020.2.4,Win32,60,,,,,,,,,,,,,,,,,,,,,,BULL - FAHILI,,,,,,,,,,return,7.781895,17,0,17,0,1,,,,,,,,,,,,,,,,,,,,,,,,,,,,,,,,,,,,,,,,,,,,,,,,,,,,,,,,,,,,,,,,
,,,,,,,,,,1584561,2020-10-23_22h28.51.519,swahili,2020.2.4,Win32,60,,,,,,,,,,,,,,,,,,,,,,ORPHAN - YATIMA,,,,,,,,,,return,9.182155,18,0,18,0,1,,,,,,,,,,,,,,,,,,,,,,,,,,,,,,,,,,,,,,,,,,,,,,,,,,,,,,,,,,,,,,,,
,,,,,,,,,,1584561,2020-10-23_22h28.51.519,swahili,2020.2.4,Win32,60,,,,,,,,,,,,,,,,,,,,,,CHEESE - JIBINI,,,,,,,,,,return,44.433435,19,0,19,0,1,,,,,,,,,,,,,,,,,,,,,,,,,,,,,,,,,,,,,,,,,,,,,,,,,,,,,,,,,,,,,,,,
,,,,,,,,,,1584561,2020-10-23_22h28.51.519,swahili,2020.2.4,Win32,60,,,,,,,,,,,,,,,,,,,,,,,,,,,,,,,,,,,,,,,,0,0,0,0,1,,,,,,,,,,,,,,,,,,,,,,,,,,,,,,,,,,,,,,,,,,,,,,,,,,,,,,,,,,
,,,,,,,,,,1584561,2020-10-23_22h28.51.519,swahili,2020.2.4,Win32,60,,,,,,,,,,,,,,,,,,,,,,,,,,,,,,,,,,,,,,,,1,0,1,0,1,,,,,,,,,,,,,,,,,,,,,,,,,,,,,,,,,,,,,,,,,,,,,,,,,,,,,,,,,,
,,,,,,,,,,1584561,2020-10-23_22h28.51.519,swahili,2020.2.4,Win32,60,,,,,,,,,,,,,,,,,,,,,,,,,,,,,,,,,,,,,,,,,,,,,0,0,0,0,1,,,,,,,,,,,,,,,,,,,,,,,,,,,,,,,,,,,,,,,,,,,,,,,,,,,,,
,,,,,,,,,,1584561,2020-10-23_22h28.51.519,swahili,2020.2.4,Win32,60,,,,,,,,,,-0.2650709,0.036224631,1,0,0,18.51609,unsorted_card,0,0,0,0,1,,,,,,,,,,,,,,,,,,,,,,,,,,,,,,,,,,,,,,,,,,,,,,,,,,,,,,,,,,,,,,,,,,,,,,,,,,,,,,,,,
,,,,,,,,,,1584561,2020-10-23_22h28.51.519,swahili,2020.2.4,Win32,60,,,,,,,,,,0.44060288,-0.094051212,1,0,0,6.44534,test_pile,1,0,1,0,1,MERCHANT - TAJIRI,,,,,,,,,,,,,,,,,,,,,,,,,,,,,,,,,,,,,,,,,,,,,,,,,,,,,,,,,,,,,,,,,,,,,,,,,,,,,,,,
,,,,,,,,,,1584561,2020-10-23_22h28.51.519,swahili,2020.2.4,Win32,60,,,,,,,,,,-0.431737572,-0.058158888,1,0,0,1.144135,unsorted_card,2,0,2,0,1,,,,,,,,,,,,,,,,,,,,,,,,,,,,,,,,,,,,,,,,,,,,,,,,,,,,,,,,,,,,,,,,,,,,,,,,,,,,,,,,,
,,,,,,,,,,1584561,2020-10-23_22h28.51.519,swahili,2020.2.4,Win32,60,,,,,,,,,,0.472517774,0.096045171,1,0,0,4.64708,test_pile,3,0,3,0,1,PARROT - KASUKU,,,,,,,,,,,,,,,,,,,,,,,,,,,,,,,,,,,,,,,,,,,,,,,,,,,,,,,,,,,,,,,,,,,,,,,,,,,,,,,,
,,,,,,,,,,1584561,2020-10-23_22h28.51.519,swahili,2020.2.4,Win32,60,,,,,,,,,,-0.443262395,0.061482192,1,0,0,0.795315,unsorted_card,4,0,4,0,1,,,,,,,,,,,,,,,,,,,,,,,,,,,,,,,,,,,,,,,,,,,,,,,,,,,,,,,,,,,,,,,,,,,,,,,,,,,,,,,,,
,,,,,,,,,,1584561,2020-10-23_22h28.51.519,swahili,2020.2.4,Win32,60,,,,,,,,,,0.494680896,0.443004304,1,0,0,2.530515,study_pile,5,0,5,0,1,BULL - FAHILI,,,,,,,,,,,,,,,,,,,,,,,,,,,,,,,,,,,,,,,,,,,,,,,,,,,,,,,,,,,,,,,,,,,,,,,,,,,,,,,,
,,,,,,,,,,1584561,2020-10-23_22h28.51.519,swahili,2020.2.4,Win32,60,,,,,,,,,,-0.333333313,-0.038218708,1,0,0,0.94651,unsorted_card,6,0,6,0,1,,,,,,,,,,,,,,,,,,,,,,,,,,,,,,,,,,,,,,,,,,,,,,,,,,,,,,,,,,,,,,,,,,,,,,,,,,,,,,,,,
,,,,,,,,,,1584561,2020-10-23_22h28.51.519,swahili,2020.2.4,Win32,60,,,,,,,,,,0.406914936,0.504154189,1,0,0,2.78035,study_pile,7,0,7,0,1,PLATE - SAHANI,,,,,,,,,,,,,,,,,,,,,,,,,,,,,,,,,,,,,,,,,,,,,,,,,,,,,,,,,,,,,,,,,,,,,,,,,,,,,,,,
,,,,,,,,,,1584561,2020-10-23_22h28.51.519,swahili,2020.2.4,Win32,60,,,,,,,,,,-0.382978705,0.123961423,1,0,0,1.61264,unsorted_card,8,0,8,0,1,,,,,,,,,,,,,,,,,,,,,,,,,,,,,,,,,,,,,,,,,,,,,,,,,,,,,,,,,,,,,,,,,,,,,,,,,,,,,,,,,
,,,,,,,,,,1584561,2020-10-23_22h28.51.519,swahili,2020.2.4,Win32,60,,,,,,,,,,0.38209224,0.025589868,1,0,0,3.763785,test_pile,9,0,9,0,1,YEAST - HAMIRA,,,,,,,,,,,,,,,,,,,,,,,,,,,,,,,,,,,,,,,,,,,,,,,,,,,,,,,,,,,,,,,,,,,,,,,,,,,,,,,,
,,,,,,,,,,1584561,2020-10-23_22h28.51.519,swahili,2020.2.4,Win32,60,,,,,,,,,,-0.533687929,-0.08607514,1,0,0,0.72576,unsorted_card,10,0,10,0,1,,,,,,,,,,,,,,,,,,,,,,,,,,,,,,,,,,,,,,,,,,,,,,,,,,,,,,,,,,,,,,,,,,,,,,,,,,,,,,,,,
,,,,,,,,,,1584561,2020-10-23_22h28.51.519,swahili,2020.2.4,Win32,60,,,,,,,,,,0.390070963,0.012296415,1,0,0,3.86378,test_pile,11,0,11,0,1,BLAME - LAWAMA,,,,,,,,,,,,,,,,,,,,,,,,,,,,,,,,,,,,,,,,,,,,,,,,,,,,,,,,,,,,,,,,,,,,,,,,,,,,,,,,
,,,,,,,,,,1584561,2020-10-23_22h28.51.519,swahili,2020.2.4,Win32,60,,,,,,,,,,-0.24024815,-0.078099068,1,0,0,0.76182,unsorted_card,12,0,12,0,1,,,,,,,,,,,,,,,,,,,,,,,,,,,,,,,,,,,,,,,,,,,,,,,,,,,,,,,,,,,,,,,,,,,,,,,,,,,,,,,,,
,,,,,,,,,,1584561,2020-10-23_22h28.51.519,swahili,2020.2.4,Win32,60,,,,,,,,,,0.507092243,0.44965103,1,0,0,2.49706,study_pile,13,0,13,0,1,OATH - YAMINI,,,,,,,,,,,,,,,,,,,,,,,,,,,,,,,,,,,,,,,,,,,,,,,,,,,,,,,,,,,,,,,,,,,,,,,,,,,,,,,,
,,,,,,,,,,1584561,2020-10-23_22h28.51.519,swahili,2020.2.4,Win32,60,,,,,,,,,,-0.286347496,0.09338648,1,0,0,0.79601,unsorted_card,14,0,14,0,1,,,,,,,,,,,,,,,,,,,,,,,,,,,,,,,,,,,,,,,,,,,,,,,,,,,,,,,,,,,,,,,,,,,,,,,,,,,,,,,,,
,,,,,,,,,,1584561,2020-10-23_22h28.51.519,swahili,2020.2.4,Win32,60,,,,,,,,,,0.346631246,0.464273789,1,0,0,2.48049,study_pile,15,0,15,0,1,CORN - NAFAKA,,,,,,,,,,,,,,,,,,,,,,,,,,,,,,,,,,,,,,,,,,,,,,,,,,,,,,,,,,,,,,,,,,,,,,,,,,,,,,,,
,,,,,,,,,,1584561,2020-10-23_22h28.51.519,swahili,2020.2.4,Win32,60,,,,,,,,,,-0.415780124,-0.014290492,1,0,0,0.56319,unsorted_card,16,0,16,0,1,,,,,,,,,,,,,,,,,,,,,,,,,,,,,,,,,,,,,,,,,,,,,,,,,,,,,,,,,,,,,,,,,,,,,,,,,,,,,,,,,
,,,,,,,,,,1584561,2020-10-23_22h28.51.519,swahili,2020.2.4,Win32,60,,,,,,,,,,0.577127707,0.408441284,1,0,0,6.212935,study_pile,17,0,17,0,1,POEM - UTENZI,,,,,,,,,,,,,,,,,,,,,,,,,,,,,,,,,,,,,,,,,,,,,,,,,,,,,,,,,,,,,,,,,,,,,,,,,,,,,,,,
,,,,,,,,,,1584561,2020-10-23_22h28.51.519,swahili,2020.2.4,Win32,60,,,,,,,,,,-0.40957445,-0.012961147,1,0,0,0.62743,unsorted_card,18,0,18,0,1,,,,,,,,,,,,,,,,,,,,,,,,,,,,,,,,,,,,,,,,,,,,,,,,,,,,,,,,,,,,,,,,,,,,,,,,,,,,,,,,,
,,,,,,,,,,1584561,2020-10-23_22h28.51.519,swahili,2020.2.4,Win32,60,,,,,,,,,,0.652482427,0.361914238,1,0,0,8.729795,study_pile,19,0,19,0,1,TAILOR - MSHONI,,,,,,,,,,,,,,,,,,,,,,,,,,,,,,,,,,,,,,,,,,,,,,,,,,,,,,,,,,,,,,,,,,,,,,,,,,,,,,,,
,,,,,,,,,,1584561,2020-10-23_22h28.51.519,swahili,2020.2.4,Win32,60,,,,,,,,,,-0.296985795,0.026919213,1,0,0,0.493565,unsorted_card,20,0,20,0,1,,,,,,,,,,,,,,,,,,,,,,,,,,,,,,,,,,,,,,,,,,,,,,,,,,,,,,,,,,,,,,,,,,,,,,,,,,,,,,,,,
,,,,,,,,,,1584561,2020-10-23_22h28.51.519,swahili,2020.2.4,Win32,60,,,,,,,,,,0.467198625,0.423064124,1,0,0,1.263835,study_pile,21,0,21,0,1,CHEESE - JIBINI,,,,,,,,,,,,,,,,,,,,,,,,,,,,,,,,,,,,,,,,,,,,,,,,,,,,,,,,,,,,,,,,,,,,,,,,,,,,,,,,
,,,,,,,,,,1584561,2020-10-23_22h28.51.519,swahili,2020.2.4,Win32,60,,,,,,,,,,-0.061170185,0.139913567,1,0,0,0.49693,unsorted_card,22,0,22,0,1,,,,,,,,,,,,,,,,,,,,,,,,,,,,,,,,,,,,,,,,,,,,,,,,,,,,,,,,,,,,,,,,,,,,,,,,,,,,,,,,,
,,,,,,,,,,1584561,2020-10-23_22h28.51.519,swahili,2020.2.4,Win32,60,,,,,,,,,,0.43173774,0.437686922,1,0,0,1.71247,study_pile,23,0,23,0,1,GRAPES - ZABIBU,,,,,,,,,,,,,,,,,,,,,,,,,,,,,,,,,,,,,,,,,,,,,,,,,,,,,,,,,,,,,,,,,,,,,,,,,,,,,,,,
,,,,,,,,,,1584561,2020-10-23_22h28.51.519,swahili,2020.2.4,Win32,60,,,,,,,,,,-0.197694957,0.086739753,1,0,0,0.59566,unsorted_card,24,0,24,0,1,,,,,,,,,,,,,,,,,,,,,,,,,,,,,,,,,,,,,,,,,,,,,,,,,,,,,,,,,,,,,,,,,,,,,,,,,,,,,,,,,
,,,,,,,,,,1584561,2020-10-23_22h28.51.519,swahili,2020.2.4,Win32,60,,,,,,,,,,0.401595786,0.057494156,1,0,0,1.64667,test_pile,25,0,25,0,1,GRAVE - KABURI,,,,,,,,,,,,,,,,,,,,,,,,,,,,,,,,,,,,,,,,,,,,,,,,,,,,,,,,,,,,,,,,,,,,,,,,,,,,,,,,
,,,,,,,,,,1584561,2020-10-23_22h28.51.519,swahili,2020.2.4,Win32,60,,,,,,,,,,-0.279255298,-0.052841507,1,0,0,1.16031,unsorted_card,26,0,26,0,1,,,,,,,,,,,,,,,,,,,,,,,,,,,,,,,,,,,,,,,,,,,,,,,,,,,,,,,,,,,,,,,,,,,,,,,,,,,,,,,,,
,,,,,,,,,,1584561,2020-10-23_22h28.51.519,swahili,2020.2.4,Win32,60,,,,,,,,,,0.35283692,-0.002326384,1,0,0,2.64258,test_pile,27,0,27,0,1,MANURE - SAMADI,,,,,,,,,,,,,,,,,,,,,,,,,,,,,,,,,,,,,,,,,,,,,,,,,,,,,,,,,,,,,,,,,,,,,,,,,,,,,,,,
,,,,,,,,,,1584561,2020-10-23_22h28.51.519,swahili,2020.2.4,Win32,60,,,,,,,,,,-0.187943238,-0.079428495,1,0,0,0.59473,unsorted_card,28,0,28,0,1,,,,,,,,,,,,,,,,,,,,,,,,,,,,,,,,,,,,,,,,,,,,,,,,,,,,,,,,,,,,,,,,,,,,,,,,,,,,,,,,,
,,,,,,,,,,1584561,2020-10-23_22h28.51.519,swahili,2020.2.4,Win32,60,,,,,,,,,,0.581560331,0.022931177,1,0,0,5.39683,test_pile,29,0,29,0,1,AGENT - WAKILI,,,,,,,,,,,,,,,,,,,,,,,,,,,,,,,,,,,,,,,,,,,,,,,,,,,,,,,,,,,,,,,,,,,,,,,,,,,,,,,,
,,,,,,,,,,1584561,2020-10-23_22h28.51.519,swahili,2020.2.4,Win32,60,,,,,,,,,,-0.233156006,-0.028913291,1,0,0,0.57885,unsorted_card,30,0,30,0,1,,,,,,,,,,,,,,,,,,,,,,,,,,,,,,,,,,,,,,,,,,,,,,,,,,,,,,,,,,,,,,,,,,,,,,,,,,,,,,,,,
,,,,,,,,,,1584561,2020-10-23_22h28.51.519,swahili,2020.2.4,Win32,60,,,,,,,,,,0.470744725,-0.014290492,1,0,0,1.23052,test_pile,31,0,31,0,1,BRIBE - RUSHWA,,,,,,,,,,,,,,,,,,,,,,,,,,,,,,,,,,,,,,,,,,,,,,,,,,,,,,,,,,,,,,,,,,,,,,,,,,,,,,,,
,,,,,,,,,,1584561,2020-10-23_22h28.51.519,swahili,2020.2.4,Win32,60,,,,,,,,,,-0.275709198,-0.054170852,1,0,0,0.430135,unsorted_card,32,0,32,0,1,,,,,,,,,,,,,,,,,,,,,,,,,,,,,,,,,,,,,,,,,,,,,,,,,,,,,,,,,,,,,,,,,,,,,,,,,,,,,,,,,
,,,,,,,,,,1584561,2020-10-23_22h28.51.519,swahili,2020.2.4,Win32,60,,,,,,,,,,0.38209224,0.538717168,1,0,0,1.67897,study_pile,33,0,33,0,1,ORPHAN - YATIMA,,,,,,,,,,,,,,,,,,,,,,,,,,,,,,,,,,,,,,,,,,,,,,,,,,,,,,,,,,,,,,,,,,,,,,,,,,,,,,,,
,,,,,,,,,,1584561,2020-10-23_22h28.51.519,swahili,2020.2.4,Win32,60,,,,,,,,,,-0.468085091,0.032236595,1,0,0,0.44647,unsorted_card,34,0,34,0,1,,,,,,,,,,,,,,,,,,,,,,,,,,,,,,,,,,,,,,,,,,,,,,,,,,,,,,,,,,,,,,,,,,,,,,,,,,,,,,,,,
,,,,,,,,,,1584561,2020-10-23_22h28.51.519,swahili,2020.2.4,Win32,60,,,,,,,,,,0.389184547,0.012296415,1,0,0,1.414055,test_pile,35,0,35,0,1,DIVORCE - TALAKA,,,,,,,,,,,,,,,,,,,,,,,,,,,,,,,,,,,,,,,,,,,,,,,,,,,,,,,,,,,,,,,,,,,,,,,,,,,,,,,,
,,,,,,,,,,1584561,2020-10-23_22h28.51.519,swahili,2020.2.4,Win32,60,,,,,,,,,,-0.214538984,-0.020937219,1,0,0,0.49649,unsorted_card,36,0,36,0,1,,,,,,,,,,,,,,,,,,,,,,,,,,,,,,,,,,,,,,,,,,,,,,,,,,,,,,,,,,,,,,,,,,,,,,,,,,,,,,,,,
,,,,,,,,,,1584561,2020-10-23_22h28.51.519,swahili,2020.2.4,Win32,60,,,,,,,,,,0.336879472,0.480225933,1,0,0,1.38051,study_pile,37,0,37,0,1,BOAT - MASHUA,,,,,,,,,,,,,,,,,,,,,,,,,,,,,,,,,,,,,,,,,,,,,,,,,,,,,,,,,,,,,,,,,,,,,,,,,,,,,,,,
,,,,,,,,,,1584561,2020-10-23_22h28.51.519,swahili,2020.2.4,Win32,60,,,,,,,,,,-0.232269427,-0.023595991,1,0,0,0.496745,unsorted_card,38,0,38,0,1,,,,,,,,,,,,,,,,,,,,,,,,,,,,,,,,,,,,,,,,,,,,,,,,,,,,,,,,,,,,,,,,,,,,,,,,,,,,,,,,,
,,,,,,,,,,1584561,2020-10-23_22h28.51.519,swahili,2020.2.4,Win32,60,,,,,,,,,,0.398936212,0.454968412,1,0,0,2.947655,study_pile,39,0,39,0,1,TREASURE - DAFINA,,,,,,,,,,,,,,,,,,,,,,,,,,,,,,,,,,,,,,,,,,,,,,,,,,,,,,,,,,,,,,,,,,,,,,,,,,,,,,,,
,,,,,,,,,,1584561,2020-10-23_22h28.51.519,swahili,2020.2.4,Win32,60,,,,,,,,,,,,,,,,,,,,,,,0.424645433,-0.008973111,1,0,0,3.314925,test_first,,,,,0,0,0,0,1,,,,,,,,,,,,,,,,,,,,,,,,,,,,,,,,,,,,,,,,,,,,,,,,,,,,,,,,,,,,,,,,
,,,,,,,,,,1584561,2020-10-23_22h28.51.519,swahili,2020.2.4,Win32,60,,,,,,,,,,,,,,,,,,,,,,,,,,,,,,,,,,,,,,,return,,,,,,,,,,,5.318935,30.797425,0.424645433,-0.008973111,1,0,0,3.59808,yes,MANURE,SAHALI,incorrect,0,0,0,0,1,,,,,,,,,,,,,,,,,,,,,,,,,,,,,,,,,,,,
,,,,,,,,,,1584561,2020-10-23_22h28.51.519,swahili,2020.2.4,Win32,60,,,,,,,,,,,,,,,,,,,,,,,,,,,,,,,,,,,,,,,,,,,,,,,,,,,6.944885,0.442376038,0.03356594,1,0,0,1.11713,yes,MERCHANT,TAJHADI,incorrect,1,0,1,0,1,,,,,,,,,,,,,,,,,,,,,,,,,,,,,,,,,,,,
,,,,,,,,,,1584561,2020-10-23_22h28.51.519,swahili,2020.2.4,Win32,60,,,,,,,,,,,,,,,,,,,,,,,,,,,,,,,,,,,,,,,,,,,,,,,,,,,3.46147,0.442376038,0.03356594,1,0,0,1.383525,yes,BRIBE,RUSHWA,incorrect,2,0,2,0,1,,,,,,,,,,,,,,,,,,,,,,,,,,,,,,,,,,,,
,,,,,,,,,,1584561,2020-10-23_22h28.51.519,swahili,2020.2.4,Win32,60,,,,,,,,,,,,,,,,,,,,,,,,,,,,,,,,,,,,,,,,,,,,,,,,,,,5.913195,0.449468128,0.040212667,1,0,0,1.43389,yes,YEAST,HAMARA,incorrect,3,0,3,0,1,,,,,,,,,,,,,,,,,,,,,,,,,,,,,,,,,,,,
,,,,,,,,,,1584561,2020-10-23_22h28.51.519,swahili,2020.2.4,Win32,60,,,,,,,,,,,,,,,,,,,,,,,,,,,,,,,,,,,,,,,,,,,,,,,,,,,23.344835,0.433510681,-0.031572063,1,0,0,0.9337,yes,GRAVE,KABURI,incorrect,4,0,4,0,1,,,,,,,,,,,,,,,,,,,,,,,,,,,,,,,,,,,,
,,,,,,,,,,1584561,2020-10-23_22h28.51.519,swahili,2020.2.4,Win32,60,,,,,,,,,,,,,,,,,,,,,,,,,,,,,,,,,,,,,,,,,,,,,,,,,,,7.42832,0.436170256,-0.04619478,1,0,0,1.00142,yes,PARROT,KASUKU,incorrect,5,0,5,0,1,,,,,,,,,,,,,,,,,,,,,,,,,,,,,,,,,,,,
,,,,,,,,,,1584561,2020-10-23_22h28.51.519,swahili,2020.2.4,Win32,60,,,,,,,,,,,,,,,,,,,,,,,,,,,,,,,,,,,,,,,,,,,,,,,,,,,3.24503,0.465425576,-0.117979428,1,0,0,0.700595,yes,AGENT,WAKILI,incorrect,6,0,6,0,1,,,,,,,,,,,,,,,,,,,,,,,,,,,,,,,,,,,,
,,,,,,,,,,1584561,2020-10-23_22h28.51.519,swahili,2020.2.4,Win32,60,,,,,,,,,,,,,,,,,,,,,,,,,,,,,,,,,,,,,,,,,,,,,,,,,,,7.112315,0.465425576,-0.117979428,1,0,0,0.71721,yes,DIVORCE,TALAKA,incorrect,7,0,7,0,1,,,,,,,,,,,,,,,,,,,,,,,,,,,,,,,,,,,,
,,,,,,,,,,1584561,2020-10-23_22h28.51.519,swahili,2020.2.4,Win32,60,,,,,,,,,,,,,,,,,,,,,,,,,,,,,,,,,,,,,,,,,,,,,,,,,,,10.51058,0.465425576,-0.117979428,1,0,0,0.76733,yes,BLAME,SAHANI,incorrect,8,0,8,0,1,,,,,,,,,,,,,,,,,,,,,,,,,,,,,,,,,,,,
,,,,,,,,,,1584561,2020-10-23_22h28.51.519,swahili,2020.2.4,Win32,60,,,,,,,,,,,,,,,,,,,,,,,,,,,,,,,,,,,,,,,,0,0,0,0,1,,,,,,,,,,,,,,,,,,,,,,,,,,,,,,,,,,,,,,,,,,,,,,,,,,,,,,,,,,
,,,,,,,,,,1584561,2020-10-23_22h28.51.519,swahili,2020.2.4,Win32,60,,,,,,,,,,,,,,,,,,,,,,TREASURE - DAFINA,,,,,,,,return,2.32004,return,6.219815,0,0,0,0,1,,,,,,,,,,,,,,,,,,,,,,,,,,,,,,,,,,,,,,,,,,,,,,,,,,,,,,,,,,,,,,,,
,,,,,,,,,,1584561,2020-10-23_22h28.51.519,swahili,2020.2.4,Win32,60,,,,,,,,,,,,,,,,,,,,,,POEM - UTENZI,,,,,,,,,,return,3.86608,1,0,1,0,1,,,,,,,,,,,,,,,,,,,,,,,,,,,,,,,,,,,,,,,,,,,,,,,,,,,,,,,,,,,,,,,,
,,,,,,,,,,1584561,2020-10-23_22h28.51.519,swahili,2020.2.4,Win32,60,,,,,,,,,,,,,,,,,,,,,,TAILOR - MSHONI,,,,,,,,,,return,7.63183,2,0,2,0,1,,,,,,,,,,,,,,,,,,,,,,,,,,,,,,,,,,,,,,,,,,,,,,,,,,,,,,,,,,,,,,,,
,,,,,,,,,,1584561,2020-10-23_22h28.51.519,swahili,2020.2.4,Win32,60,,,,,,,,,,,,,,,,,,,,,,BULL - FAHILI,,,,,,,,,,return,5.31876,3,0,3,0,1,,,,,,,,,,,,,,,,,,,,,,,,,,,,,,,,,,,,,,,,,,,,,,,,,,,,,,,,,,,,,,,,
,,,,,,,,,,1584561,2020-10-23_22h28.51.519,swahili,2020.2.4,Win32,60,,,,,,,,,,,,,,,,,,,,,,PLATE - SAHANI,,,,,,,,,,return,10.205805,4,0,4,0,1,,,,,,,,,,,,,,,,,,,,,,,,,,,,,,,,,,,,,,,,,,,,,,,,,,,,,,,,,,,,,,,,
,,,,,,,,,,1584561,2020-10-23_22h28.51.519,swahili,2020.2.4,Win32,60,,,,,,,,,,,,,,,,,,,,,,CHEESE - JIBINI,,,,,,,,,,return,4.90012,5,0,5,0,1,,,,,,,,,,,,,,,,,,,,,,,,,,,,,,,,,,,,,,,,,,,,,,,,,,,,,,,,,,,,,,,,
,,,,,,,,,,1584561,2020-10-23_22h28.51.519,swahili,2020.2.4,Win32,60,,,,,,,,,,,,,,,,,,,,,,ORPHAN - YATIMA,,,,,,,,,,return,7.93393,6,0,6,0,1,,,,,,,,,,,,,,,,,,,,,,,,,,,,,,,,,,,,,,,,,,,,,,,,,,,,,,,,,,,,,,,,
,,,,,,,,,,1584561,2020-10-23_22h28.51.519,swahili,2020.2.4,Win32,60,,,,,,,,,,,,,,,,,,,,,,BOAT - MASHUA,,,,,,,,,,return,2.35203,7,0,7,0,1,,,,,,,,,,,,,,,,,,,,,,,,,,,,,,,,,,,,,,,,,,,,,,,,,,,,,,,,,,,,,,,,
,,,,,,,,,,1584561,2020-10-23_22h28.51.519,swahili,2020.2.4,Win32,60,,,,,,,,,,,,,,,,,,,,,,CORN - NAFAKA,,,,,,,,,,return,3.82176,8,0,8,0,1,,,,,,,,,,,,,,,,,,,,,,,,,,,,,,,,,,,,,,,,,,,,,,,,,,,,,,,,,,,,,,,,
,,,,,,,,,,1584561,2020-10-23_22h28.51.519,swahili,2020.2.4,Win32,60,,,,,,,,,,,,,,,,,,,,,,OATH - YAMINI,,,,,,,,,,return,7.98764,9,0,9,0,1,,,,,,,,,,,,,,,,,,,,,,,,,,,,,,,,,,,,,,,,,,,,,,,,,,,,,,,,,,,,,,,,
,,,,,,,,,,1584561,2020-10-23_22h28.51.519,swahili,2020.2.4,Win32,60,,,,,,,,,,,,,,,,,,,,,,GRAPES - ZABIBU,,,,,,,,,,return,4.18179,10,0,10,0,1,,,,,,,,,,,,,,,,,,,,,,,,,,,,,,,,,,,,,,,,,,,,,,,,,,,,,,,,,,,,,,,,
,,,,,,,,,,1584561,2020-10-23_22h28.51.519,swahili,2020.2.4,Win32,60,,,,,,,,,,,,,,,,,,,,,,,,,,,,,,,,,,,,,,,,1,0,1,0,1,,,,,,,,,,,,,,,,,,,,,,,,,,,,,,,,,,,,,,,,,,,,,,,,,,,,,,,,,,
,,,,,,,,,,1584561,2020-10-23_22h28.51.519,swahili,2020.2.4,Win32,60,,,,,,,,,,,,,,,,,,,,,,,,,,,,,,,,,,,,,,,,,,,,,1,0,1,0,1,,,,,,,,,,,,,,,,,,,,,,,,,,,,,,,,,,,,,,,,,,,,,,,,,,,,,
,,,,,,,,,,1584561,2020-10-23_22h28.51.519,swahili,2020.2.4,Win32,60,,,,,,,,,,-0.172872316,0.048188739,1,0,0,2.82069,unsorted_card,0,0,0,0,1,,,,,,,,,,,,,,,,,,,,,,,,,,,,,,,,,,,,,,,,,,,,,,,,,,,,,,,,,,,,,,,,,,,,,,,,,,,,,,,,,
,,,,,,,,,,1584561,2020-10-23_22h28.51.519,swahili,2020.2.4,Win32,60,,,,,,,,,,0.366134792,0.123961423,1,0,0,8.095775,test_pile,1,0,1,0,1,MERCHANT - TAJIRI,,,,,,,,,,,,,,,,,,,,,,,,,,,,,,,,,,,,,,,,,,,,,,,,,,,,,,,,,,,,,,,,,,,,,,,,,,,,,,,,
,,,,,,,,,,1584561,2020-10-23_22h28.51.519,swahili,2020.2.4,Win32,60,,,,,,,,,,-0.15248219,0.054835465,1,0,0,0.974655,unsorted_card,2,0,2,0,1,,,,,,,,,,,,,,,,,,,,,,,,,,,,,,,,,,,,,,,,,,,,,,,,,,,,,,,,,,,,,,,,,,,,,,,,,,,,,,,,,
,,,,,,,,,,1584561,2020-10-23_22h28.51.519,swahili,2020.2.4,Win32,60,,,,,,,,,,0.470744725,-0.397141949,1,0,0,3.54827,done_pile,3,0,3,0,1,PARROT - KASUKU,,,,,,,,,,,,,,,,,,,,,,,,,,,,,,,,,,,,,,,,,,,,,,,,,,,,,,,,,,,,,,,,,,,,,,,,,,,,,,,,
,,,,,,,,,,1584561,2020-10-23_22h28.51.519,swahili,2020.2.4,Win32,60,,,,,,,,,,-0.286347496,-0.060817579,1,0,0,0.661995,unsorted_card,4,0,4,0,1,,,,,,,,,,,,,,,,,,,,,,,,,,,,,,,,,,,,,,,,,,,,,,,,,,,,,,,,,,,,,,,,,,,,,,,,,,,,,,,,,
,,,,,,,,,,1584561,2020-10-23_22h28.51.519,swahili,2020.2.4,Win32,60,,,,,,,,,,0.419326283,0.415088052,1,0,0,2.93072,study_pile,5,0,5,0,1,BULL - FAHILI,,,,,,,,,,,,,,,,,,,,,,,,,,,,,,,,,,,,,,,,,,,,,,,,,,,,,,,,,,,,,,,,,,,,,,,,,,,,,,,,
,,,,,,,,,,1584561,2020-10-23_22h28.51.519,swahili,2020.2.4,Win32,60,,,,,,,,,,-0.491134737,-0.111332783,1,0,0,2.011375,unsorted_card,6,0,6,0,1,,,,,,,,,,,,,,,,,,,,,,,,,,,,,,,,,,,,,,,,,,,,,,,,,,,,,,,,,,,,,,,,,,,,,,,,,,,,,,,,,
,,,,,,,,,,1584561,2020-10-23_22h28.51.519,swahili,2020.2.4,Win32,60,,,,,,,,,,0.572695191,-0.050182816,1,0,0,2.89807,test_pile,7,0,7,0,1,PLATE - SAHANI,,,,,,,,,,,,,,,,,,,,,,,,,,,,,,,,,,,,,,,,,,,,,,,,,,,,,,,,,,,,,,,,,,,,,,,,,,,,,,,,
,,,,,,,,,,1584561,2020-10-23_22h28.51.519,swahili,2020.2.4,Win32,60,,,,,,,,,,-0.548758852,-0.06613496,1,0,0,0.89661,unsorted_card,8,0,8,0,1,,,,,,,,,,,,,,,,,,,,,,,,,,,,,,,,,,,,,,,,,,,,,,,,,,,,,,,,,,,,,,,,,,,,,,,,,,,,,,,,,
,,,,,,,,,,1584561,2020-10-23_22h28.51.519,swahili,2020.2.4,Win32,60,,,,,,,,,,0.398936212,0.3871718,1,0,0,6.280565,study_pile,9,0,9,0,1,YEAST - HAMIRA,,,,,,,,,,,,,,,,,,,,,,,,,,,,,,,,,,,,,,,,,,,,,,,,,,,,,,,,,,,,,,,,,,,,,,,,,,,,,,,,
,,,,,,,,,,1584561,2020-10-23_22h28.51.519,swahili,2020.2.4,Win32,60,,,,,,,,,,-0.434397146,-0.051512243,1,0,0,0.66163,unsorted_card,10,0,10,0,1,,,,,,,,,,,,,,,,,,,,,,,,,,,,,,,,,,,,,,,,,,,,,,,,,,,,,,,,,,,,,,,,,,,,,,,,,,,,,,,,,
,,,,,,,,,,1584561,2020-10-23_22h28.51.519,swahili,2020.2.4,Win32,60,,,,,,,,,,0.443262454,0.469591211,1,0,0,1.36393,study_pile,11,0,11,0,1,BLAME - LAWAMA,,,,,,,,,,,,,,,,,,,,,,,,,,,,,,,,,,,,,,,,,,,,,,,,,,,,,,,,,,,,,,,,,,,,,,,,,,,,,,,,
,,,,,,,,,,1584561,2020-10-23_22h28.51.519,swahili,2020.2.4,Win32,60,,,,,,,,,,-0.257978701,0.042871357,1,0,0,0.84588,unsorted_card,12,0,12,0,1,,,,,,,,,,,,,,,,,,,,,,,,,,,,,,,,,,,,,,,,,,,,,,,,,,,,,,,,,,,,,,,,,,,,,,,,,,,,,,,,,
,,,,,,,,,,1584561,2020-10-23_22h28.51.519,swahili,2020.2.4,Win32,60,,,,,,,,,,0.379432665,0.421734778,1,0,0,1.414245,study_pile,13,0,13,0,1,OATH - YAMINI,,,,,,,,,,,,,,,,,,,,,,,,,,,,,,,,,,,,,,,,,,,,,,,,,,,,,,,,,,,,,,,,,,,,,,,,,,,,,,,,
,,,,,,,,,,1584561,2020-10-23_22h28.51.519,swahili,2020.2.4,Win32,60,,,,,,,,,,-0.535460979,0.020272487,1,0,0,0.58056,unsorted_card,14,0,14,0,1,,,,,,,,,,,,,,,,,,,,,,,,,,,,,,,,,,,,,,,,,,,,,,,,,,,,,,,,,,,,,,,,,,,,,,,,,,,,,,,,,
,,,,,,,,,,1584561,2020-10-23_22h28.51.519,swahili,2020.2.4,Win32,60,,,,,,,,,,0.363475218,0.419076088,1,0,0,1.46438,study_pile,15,0,15,0,1,CORN - NAFAKA,,,,,,,,,,,,,,,,,,,,,,,,,,,,,,,,,,,,,,,,,,,,,,,,,,,,,,,,,,,,,,,,,,,,,,,,,,,,,,,,
,,,,,,,,,,1584561,2020-10-23_22h28.51.519,swahili,2020.2.4,Win32,60,,,,,,,,,,-0.47340424,-0.020937219,1,0,0,0.410745,unsorted_card,16,0,16,0,1,,,,,,,,,,,,,,,,,,,,,,,,,,,,,,,,,,,,,,,,,,,,,,,,,,,,,,,,,,,,,,,,,,,,,,,,,,,,,,,,,
,,,,,,,,,,1584561,2020-10-23_22h28.51.519,swahili,2020.2.4,Win32,60,,,,,,,,,,0.346631246,0.017613796,1,0,0,1.51347,test_pile,17,0,17,0,1,POEM - UTENZI,,,,,,,,,,,,,,,,,,,,,,,,,,,,,,,,,,,,,,,,,,,,,,,,,,,,,,,,,,,,,,,,,,,,,,,,,,,,,,,,
,,,,,,,,,,1584561,2020-10-23_22h28.51.519,swahili,2020.2.4,Win32,60,,,,,,,,,,-0.167553167,-0.019607874,1,0,0,2.26353,unsorted_card,18,0,18,0,1,,,,,,,,,,,,,,,,,,,,,,,,,,,,,,,,,,,,,,,,,,,,,,,,,,,,,,,,,,,,,,,,,,,,,,,,,,,,,,,,,
,,,,,,,,,,1584561,2020-10-23_22h28.51.519,swahili,2020.2.4,Win32,60,,,,,,,,,,0.38031919,0.417746742,1,0,0,2.64716,study_pile,19,0,19,0,1,TAILOR - MSHONI,,,,,,,,,,,,,,,,,,,,,,,,,,,,,,,,,,,,,,,,,,,,,,,,,,,,,,,,,,,,,,,,,,,,,,,,,,,,,,,,
,,,,,,,,,,1584561,2020-10-23_22h28.51.519,swahili,2020.2.4,Win32,60,,,,,,,,,,-0.268616999,0.032236595,1,0,0,0.663495,unsorted_card,20,0,20,0,1,,,,,,,,,,,,,,,,,,,,,,,,,,,,,,,,,,,,,,,,,,,,,,,,,,,,,,,,,,,,,,,,,,,,,,,,,,,,,,,,,
,,,,,,,,,,1584561,2020-10-23_22h28.51.519,swahili,2020.2.4,Win32,60,,,,,,,,,,0.369680892,0.376536996,1,0,0,1.61448,study_pile,21,0,21,0,1,CHEESE - JIBINI,,,,,,,,,,,,,,,,,,,,,,,,,,,,,,,,,,,,,,,,,,,,,,,,,,,,,,,,,,,,,,,,,,,,,,,,,,,,,,,,
,,,,,,,,,,1584561,2020-10-23_22h28.51.519,swahili,2020.2.4,Win32,60,,,,,,,,,,-0.576241095,-0.051512243,1,0,0,0.52983,unsorted_card,22,0,22,0,1,,,,,,,,,,,,,,,,,,,,,,,,,,,,,,,,,,,,,,,,,,,,,,,,,,,,,,,,,,,,,,,,,,,,,,,,,,,,,,,,,
,,,,,,,,,,1584561,2020-10-23_22h28.51.519,swahili,2020.2.4,Win32,60,,,,,,,,,,0.449468128,0.501495499,1,0,0,1.7471,study_pile,23,0,23,0,1,GRAPES - ZABIBU,,,,,,,,,,,,,,,,,,,,,,,,,,,,,,,,,,,,,,,,,,,,,,,,,,,,,,,,,,,,,,,,,,,,,,,,,,,,,,,,
,,,,,,,,,,1584561,2020-10-23_22h28.51.519,swahili,2020.2.4,Win32,60,,,,,,,,,,-0.245567299,0.0734463,1,0,0,0.69703,unsorted_card,24,0,24,0,1,,,,,,,,,,,,,,,,,,,,,,,,,,,,,,,,,,,,,,,,,,,,,,,,,,,,,,,,,,,,,,,,,,,,,,,,,,,,,,,,,
,,,,,,,,,,1584561,2020-10-23_22h28.51.519,swahili,2020.2.4,Win32,60,,,,,,,,,,0.416666709,0.001661652,1,0,0,4.213835,test_pile,25,0,25,0,1,GRAVE - KABURI,,,,,,,,,,,,,,,,,,,,,,,,,,,,,,,,,,,,,,,,,,,,,,,,,,,,,,,,,,,,,,,,,,,,,,,,,,,,,,,,
,,,,,,,,,,1584561,2020-10-23_22h28.51.519,swahili,2020.2.4,Win32,60,,,,,,,,,,-0.273936149,-0.063476351,1,0,0,0.42867,unsorted_card,26,0,26,0,1,,,,,,,,,,,,,,,,,,,,,,,,,,,,,,,,,,,,,,,,,,,,,,,,,,,,,,,,,,,,,,,,,,,,,,,,,,,,,,,,,
,,,,,,,,,,1584561,2020-10-23_22h28.51.519,swahili,2020.2.4,Win32,60,,,,,,,,,,0.353723445,0.439016268,1,0,0,3.01489,study_pile,27,0,27,0,1,MANURE - SAMADI,,,,,,,,,,,,,,,,,,,,,,,,,,,,,,,,,,,,,,,,,,,,,,,,,,,,,,,,,,,,,,,,,,,,,,,,,,,,,,,,
,,,,,,,,,,1584561,2020-10-23_22h28.51.519,swahili,2020.2.4,Win32,60,,,,,,,,,,-0.179077936,0.064140883,1,0,0,0.49457,unsorted_card,28,0,28,0,1,,,,,,,,,,,,,,,,,,,,,,,,,,,,,,,,,,,,,,,,,,,,,,,,,,,,,,,,,,,,,,,,,,,,,,,,,,,,,,,,,
,,,,,,,,,,1584561,2020-10-23_22h28.51.519,swahili,2020.2.4,Win32,60,,,,,,,,,,0.441489405,-0.518112375,1,0,0,3.86429,done_pile,29,0,29,0,1,AGENT - WAKILI,,,,,,,,,,,,,,,,,,,,,,,,,,,,,,,,,,,,,,,,,,,,,,,,,,,,,,,,,,,,,,,,,,,,,,,,,,,,,,,,
,,,,,,,,,,1584561,2020-10-23_22h28.51.519,swahili,2020.2.4,Win32,60,,,,,,,,,,-0.273936149,-0.136590263,1,0,0,0.56205,unsorted_card,30,0,30,0,1,,,,,,,,,,,,,,,,,,,,,,,,,,,,,,,,,,,,,,,,,,,,,,,,,,,,,,,,,,,,,,,,,,,,,,,,,,,,,,,,,
,,,,,,,,,,1584561,2020-10-23_22h28.51.519,swahili,2020.2.4,Win32,60,,,,,,,,,,0.467198625,-0.353273553,1,0,0,1.230785,done_pile,31,0,31,0,1,BRIBE - RUSHWA,,,,,,,,,,,,,,,,,,,,,,,,,,,,,,,,,,,,,,,,,,,,,,,,,,,,,,,,,,,,,,,,,,,,,,,,,,,,,,,,
,,,,,,,,,,1584561,2020-10-23_22h28.51.519,swahili,2020.2.4,Win32,60,,,,,,,,,,-0.182624089,-0.167165287,1,0,0,0.59613,unsorted_card,32,0,32,0,1,,,,,,,,,,,,,,,,,,,,,,,,,,,,,,,,,,,,,,,,,,,,,,,,,,,,,,,,,,,,,,,,,,,,,,,,,,,,,,,,,
,,,,,,,,,,1584561,2020-10-23_22h28.51.519,swahili,2020.2.4,Win32,60,,,,,,,,,,0.368794367,0.472249861,1,0,0,1.54768,study_pile,33,0,33,0,1,ORPHAN - YATIMA,,,,,,,,,,,,,,,,,,,,,,,,,,,,,,,,,,,,,,,,,,,,,,,,,,,,,,,,,,,,,,,,,,,,,,,,,,,,,,,,
,,,,,,,,,,1584561,2020-10-23_22h28.51.519,swahili,2020.2.4,Win32,60,,,,,,,,,,-0.164007067,0.03356594,1,0,0,0.52981,unsorted_card,34,0,34,0,1,,,,,,,,,,,,,,,,,,,,,,,,,,,,,,,,,,,,,,,,,,,,,,,,,,,,,,,,,,,,,,,,,,,,,,,,,,,,,,,,,
,,,,,,,,,,1584561,2020-10-23_22h28.51.519,swahili,2020.2.4,Win32,60,,,,,,,,,,0.46808515,0.037553976,1,0,0,2.26442,test_pile,35,0,35,0,1,DIVORCE - TALAKA,,,,,,,,,,,,,,,,,,,,,,,,,,,,,,,,,,,,,,,,,,,,,,,,,,,,,,,,,,,,,,,,,,,,,,,,,,,,,,,,
,,,,,,,,,,1584561,2020-10-23_22h28.51.519,swahili,2020.2.4,Win32,60,,,,,,,,,,-0.203900685,0.012296415,1,0,0,0.678565,unsorted_card,36,0,36,0,1,,,,,,,,,,,,,,,,,,,,,,,,,,,,,,,,,,,,,,,,,,,,,,,,,,,,,,,,,,,,,,,,,,,,,,,,,,,,,,,,,
,,,,,,,,,,1584561,2020-10-23_22h28.51.519,swahili,2020.2.4,Win32,60,,,,,,,,,,0.363475218,0.050847429,1,0,0,1.743465,test_pile,37,0,37,0,1,BOAT - MASHUA,,,,,,,,,,,,,,,,,,,,,,,,,,,,,,,,,,,,,,,,,,,,,,,,,,,,,,,,,,,,,,,,,,,,,,,,,,,,,,,,
,,,,,,,,,,1584561,2020-10-23_22h28.51.519,swahili,2020.2.4,Win32,60,,,,,,,,,,-0.26950347,-0.004985075,1,0,0,1.34648,unsorted_card,38,0,38,0,1,,,,,,,,,,,,,,,,,,,,,,,,,,,,,,,,,,,,,,,,,,,,,,,,,,,,,,,,,,,,,,,,,,,,,,,,,,,,,,,,,
,,,,,,,,,,1584561,2020-10-23_22h28.51.519,swahili,2020.2.4,Win32,60,,,,,,,,,,0.334219898,0.37254896,1,0,0,2.013895,study_pile,39,0,39,0,1,TREASURE - DAFINA,,,,,,,,,,,,,,,,,,,,,,,,,,,,,,,,,,,,,,,,,,,,,,,,,,,,,,,,,,,,,,,,,,,,,,,,,,,,,,,,
,,,,,,,,,,1584561,2020-10-23_22h28.51.519,swahili,2020.2.4,Win32,60,,,,,,,,,,,,,,,,,,,,,,,0.38209224,0.062811537,1,0,0,0.897065,test_first,,,,,0,0,0,0,1,,,,,,,,,,,,,,,,,,,,,,,,,,,,,,,,,,,,,,,,,,,,,,,,,,,,,,,,,,,,,,,,
,,,,,,,,,,1584561,2020-10-23_22h28.51.519,swahili,2020.2.4,Win32,60,,,,,,,,,,,,,,,,,,,,,,,,,,,,,,,,,,,,,,,return,,,,,,,,,,,2.662645,3.2799,0.382978765,0.062811537,1,0,0,0.83383,yes,POEM,UTENZI,incorrect,0,0,0,0,1,,,,,,,,,,,,,,,,,,,,,,,,,,,,,,,,,,,,
,,,,,,,,,,1584561,2020-10-23_22h28.51.519,swahili,2020.2.4,Win32,60,,,,,,,,,,,,,,,,,,,,,,,,,,,,,,,,,,,,,,,,,,,,,,,,,,,2.86232,0.382978765,0.062811537,1,0,0,0.851585,yes,PLATE,SAHANI,incorrect,1,0,1,0,1,,,,,,,,,,,,,,,,,,,,,,,,,,,,,,,,,,,,
,,,,,,,,,,1584561,2020-10-23_22h28.51.519,swahili,2020.2.4,Win32,60,,,,,,,,,,,,,,,,,,,,,,,,,,,,,,,,,,,,,,,,,,,,,,,,,,,2.47869,0.382978765,0.062811537,1,0,0,1.950685,yes,BOAT,MASHUA,incorrect,2,0,2,0,1,,,,,,,,,,,,,,,,,,,,,,,,,,,,,,,,,,,,
,,,,,,,,,,1584561,2020-10-23_22h28.51.519,swahili,2020.2.4,Win32,60,,,,,,,,,,,,,,,,,,,,,,,,,,,,,,,,,,,,,,,,,,,,,,,,,,,3.44519,0.382978765,0.062811537,1,0,0,0.9007,yes,GRAVE,WAKILI,incorrect,3,0,3,0,1,,,,,,,,,,,,,,,,,,,,,,,,,,,,,,,,,,,,
,,,,,,,,,,1584561,2020-10-23_22h28.51.519,swahili,2020.2.4,Win32,60,,,,,,,,,,,,,,,,,,,,,,,,,,,,,,,,,,,,,,,,,,,,,,,,,,,5.794965,0.377659616,0.046859393,1,0,0,0.917955,yes,MERCHANT,TAJIRI,incorrect,4,0,4,0,1,,,,,,,,,,,,,,,,,,,,,,,,,,,,,,,,,,,,
,,,,,,,,,,1584561,2020-10-23_22h28.51.519,swahili,2020.2.4,Win32,60,,,,,,,,,,,,,,,,,,,,,,,,,,,,,,,,,,,,,,,,,,,,,,,,,,,4.712525,0.375000041,0.040212667,1,0,0,0.70024,yes,DIVORCE,TALAKA,incorrect,5,0,5,0,1,,,,,,,,,,,,,,,,,,,,,,,,,,,,,,,,,,,,
,,,,,,,,,,1584561,2020-10-23_22h28.51.519,swahili,2020.2.4,Win32,60,,,,,,,,,,,,,,,,,,,,,,,,,,,,,,,,,,,,,,,,0,0,0,0,1,,,,,,,,,,,,,,,,,,,,,,,,,,,,,,,,,,,,,,,,,,,,,,,,,,,,,,,,,,
,,,,,,,,,,1584561,2020-10-23_22h28.51.519,swahili,2020.2.4,Win32,60,,,,,,,,,,,,,,,,,,,,,,CORN - NAFAKA,,,,,,,,return,4.580395,return,4.32111,0,0,0,0,1,,,,,,,,,,,,,,,,,,,,,,,,,,,,,,,,,,,,,,,,,,,,,,,,,,,,,,,,,,,,,,,,
,,,,,,,,,,1584561,2020-10-23_22h28.51.519,swahili,2020.2.4,Win32,60,,,,,,,,,,,,,,,,,,,,,,BLAME - LAWAMA,,,,,,,,,,return,12.549835,1,0,1,0,1,,,,,,,,,,,,,,,,,,,,,,,,,,,,,,,,,,,,,,,,,,,,,,,,,,,,,,,,,,,,,,,,
,,,,,,,,,,1584561,2020-10-23_22h28.51.519,swahili,2020.2.4,Win32,60,,,,,,,,,,,,,,,,,,,,,,BULL - FAHILI,,,,,,,,,,return,5.62236,2,0,2,0,1,,,,,,,,,,,,,,,,,,,,,,,,,,,,,,,,,,,,,,,,,,,,,,,,,,,,,,,,,,,,,,,,
,,,,,,,,,,1584561,2020-10-23_22h28.51.519,swahili,2020.2.4,Win32,60,,,,,,,,,,,,,,,,,,,,,,CHEESE - JIBINI,,,,,,,,,,return,3.400075,3,0,3,0,1,,,,,,,,,,,,,,,,,,,,,,,,,,,,,,,,,,,,,,,,,,,,,,,,,,,,,,,,,,,,,,,,
,,,,,,,,,,1584561,2020-10-23_22h28.51.519,swahili,2020.2.4,Win32,60,,,,,,,,,,,,,,,,,,,,,,ORPHAN - YATIMA,,,,,,,,,,return,7.616945,4,0,4,0,1,,,,,,,,,,,,,,,,,,,,,,,,,,,,,,,,,,,,,,,,,,,,,,,,,,,,,,,,,,,,,,,,
,,,,,,,,,,1584561,2020-10-23_22h28.51.519,swahili,2020.2.4,Win32,60,,,,,,,,,,,,,,,,,,,,,,OATH - YAMINI,,,,,,,,,,return,2.35431,5,0,5,0,1,,,,,,,,,,,,,,,,,,,,,,,,,,,,,,,,,,,,,,,,,,,,,,,,,,,,,,,,,,,,,,,,
,,,,,,,,,,1584561,2020-10-23_22h28.51.519,swahili,2020.2.4,Win32,60,,,,,,,,,,,,,,,,,,,,,,MANURE - SAMADI,,,,,,,,,,return,4.59276,6,0,6,0,1,,,,,,,,,,,,,,,,,,,,,,,,,,,,,,,,,,,,,,,,,,,,,,,,,,,,,,,,,,,,,,,,
,,,,,,,,,,1584561,2020-10-23_22h28.51.519,swahili,2020.2.4,Win32,60,,,,,,,,,,,,,,,,,,,,,,YEAST - HAMIRA,,,,,,,,,,return,4.66694,7,0,7,0,1,,,,,,,,,,,,,,,,,,,,,,,,,,,,,,,,,,,,,,,,,,,,,,,,,,,,,,,,,,,,,,,,
,,,,,,,,,,1584561,2020-10-23_22h28.51.519,swahili,2020.2.4,Win32,60,,,,,,,,,,,,,,,,,,,,,,GRAPES - ZABIBU,,,,,,,,,,return,1.49134,8,0,8,0,1,,,,,,,,,,,,,,,,,,,,,,,,,,,,,,,,,,,,,,,,,,,,,,,,,,,,,,,,,,,,,,,,
,,,,,,,,,,1584561,2020-10-23_22h28.51.519,swahili,2020.2.4,Win32,60,,,,,,,,,,,,,,,,,,,,,,TREASURE - DAFINA,,,,,,,,,,return,4.68214,9,0,9,0,1,,,,,,,,,,,,,,,,,,,,,,,,,,,,,,,,,,,,,,,,,,,,,,,,,,,,,,,,,,,,,,,,
,,,,,,,,,,1584561,2020-10-23_22h28.51.519,swahili,2020.2.4,Win32,60,,,,,,,,,,,,,,,,,,,,,,TAILOR - MSHONI,,,,,,,,,,return,2.6679,10,0,10,0,1,,,,,,,,,,,,,,,,,,,,,,,,,,,,,,,,,,,,,,,,,,,,,,,,,,,,,,,,,,,,,,,,
,,,,,,,,,,1584561,2020-10-23_22h28.51.519,swahili,2020.2.4,Win32,60,,,,,,,,,,,,,,,,,,,,,,,,,,,,,,,,,,,,,,,,1,0,1,0,1,,,,,,,,,,,,,,,,,,,,,,,,,,,,,,,,,,,,,,,,,,,,,,,,,,,,,,,,,,
,,,,,,,,,,1584561,2020-10-23_22h28.51.519,swahili,2020.2.4,Win32,60,,,,,,,,,,,,,,,,,,,,,,,,,,,,,,,,,,,,,,,,,,,,,2,0,2,0,1,,,,,,,,,,,,,,,,,,,,,,,,,,,,,,,,,,,,,,,,,,,,,,,,,,,,,
,,,,,,,,,,1584561,2020-10-23_22h28.51.519,swahili,2020.2.4,Win32,60,,,,,,,,,,-0.226063807,-0.042206744,1,0,0,3.19209,unsorted_card,0,0,0,0,1,,,,,,,,,,,,,,,,,,,,,,,,,,,,,,,,,,,,,,,,,,,,,,,,,,,,,,,,,,,,,,,,,,,,,,,,,,,,,,,,,
,,,,,,,,,,1584561,2020-10-23_22h28.51.519,swahili,2020.2.4,Win32,60,,,,,,,,,,0.385638339,-0.022266564,1,0,0,3.47904,test_pile,1,0,1,0,1,MERCHANT - TAJIRI,,,,,,,,,,,,,,,,,,,,,,,,,,,,,,,,,,,,,,,,,,,,,,,,,,,,,,,,,,,,,,,,,,,,,,,,,,,,,,,,
,,,,,,,,,,1584561,2020-10-23_22h28.51.519,swahili,2020.2.4,Win32,60,,,,,,,,,,-0.164893592,-0.099368675,1,0,0,0.59317,unsorted_card,2,0,2,0,1,,,,,,,,,,,,,,,,,,,,,,,,,,,,,,,,,,,,,,,,,,,,,,,,,,,,,,,,,,,,,,,,,,,,,,,,,,,,,,,,,
,,,,,,,,,,1584561,2020-10-23_22h28.51.519,swahili,2020.2.4,Win32,60,,,,,,,,,,0.517730542,0.621136579,1,0,0,5.08039,study_pile,3,0,3,0,1,BULL - FAHILI,,,,,,,,,,,,,,,,,,,,,,,,,,,,,,,,,,,,,,,,,,,,,,,,,,,,,,,,,,,,,,,,,,,,,,,,,,,,,,,,
,,,,,,,,,,1584561,2020-10-23_22h28.51.519,swahili,2020.2.4,Win32,60,,,,,,,,,,-0.14804962,0.11066797,1,0,0,0.54529,unsorted_card,4,0,4,0,1,,,,,,,,,,,,,,,,,,,,,,,,,,,,,,,,,,,,,,,,,,,,,,,,,,,,,,,,,,,,,,,,,,,,,,,,,,,,,,,,,
,,,,,,,,,,1584561,2020-10-23_22h28.51.519,swahili,2020.2.4,Win32,60,,,,,,,,,,0.492907954,0.066799573,1,0,0,2.047155,test_pile,5,0,5,0,1,PLATE - SAHANI,,,,,,,,,,,,,,,,,,,,,,,,,,,,,,,,,,,,,,,,,,,,,,,,,,,,,,,,,,,,,,,,,,,,,,,,,,,,,,,,
,,,,,,,,,,1584561,2020-10-23_22h28.51.519,swahili,2020.2.4,Win32,60,,,,,,,,,,-0.211879409,0.008308379,1,0,0,0.495185,unsorted_card,6,0,6,0,1,,,,,,,,,,,,,,,,,,,,,,,,,,,,,,,,,,,,,,,,,,,,,,,,,,,,,,,,,,,,,,,,,,,,,,,,,,,,,,,,,
,,,,,,,,,,1584561,2020-10-23_22h28.51.519,swahili,2020.2.4,Win32,60,,,,,,,,,,0.423759016,0.026919213,1,0,0,3.51464,test_pile,7,0,7,0,1,YEAST - HAMIRA,,,,,,,,,,,,,,,,,,,,,,,,,,,,,,,,,,,,,,,,,,,,,,,,,,,,,,,,,,,,,,,,,,,,,,,,,,,,,,,,
,,,,,,,,,,1584561,2020-10-23_22h28.51.519,swahili,2020.2.4,Win32,60,,,,,,,,,,-0.155141765,-0.003655729,1,0,0,0.77761,unsorted_card,8,0,8,0,1,,,,,,,,,,,,,,,,,,,,,,,,,,,,,,,,,,,,,,,,,,,,,,,,,,,,,,,,,,,,,,,,,,,,,,,,,,,,,,,,,
,,,,,,,,,,1584561,2020-10-23_22h28.51.519,swahili,2020.2.4,Win32,60,,,,,,,,,,0.439716463,0.010967069,1,0,0,2.0807,test_pile,9,0,9,0,1,BLAME - LAWAMA,,,,,,,,,,,,,,,,,,,,,,,,,,,,,,,,,,,,,,,,,,,,,,,,,,,,,,,,,,,,,,,,,,,,,,,,,,,,,,,,
,,,,,,,,,,1584561,2020-10-23_22h28.51.519,swahili,2020.2.4,Win32,60,,,,,,,,,,-0.154255294,-0.023595991,1,0,0,1.01323,unsorted_card,10,0,10,0,1,,,,,,,,,,,,,,,,,,,,,,,,,,,,,,,,,,,,,,,,,,,,,,,,,,,,,,,,,,,,,,,,,,,,,,,,,,,,,,,,,
,,,,,,,,,,1584561,2020-10-23_22h28.51.519,swahili,2020.2.4,Win32,60,,,,,,,,,,0.473404299,0.391159836,1,0,0,1.497565,study_pile,11,0,11,0,1,OATH - YAMINI,,,,,,,,,,,,,,,,,,,,,,,,,,,,,,,,,,,,,,,,,,,,,,,,,,,,,,,,,,,,,,,,,,,,,,,,,,,,,,,,
,,,,,,,,,,1584561,2020-10-23_22h28.51.519,swahili,2020.2.4,Win32,60,,,,,,,,,,-0.139184317,0.115985351,1,0,0,0.54703,unsorted_card,12,0,12,0,1,,,,,,,,,,,,,,,,,,,,,,,,,,,,,,,,,,,,,,,,,,,,,,,,,,,,,,,,,,,,,,,,,,,,,,,,,,,,,,,,,
,,,,,,,,,,1584561,2020-10-23_22h28.51.519,swahili,2020.2.4,Win32,60,,,,,,,,,,0.462766001,0.469591211,1,0,0,1.347425,study_pile,13,0,13,0,1,CORN - NAFAKA,,,,,,,,,,,,,,,,,,,,,,,,,,,,,,,,,,,,,,,,,,,,,,,,,,,,,,,,,,,,,,,,,,,,,,,,,,,,,,,,
,,,,,,,,,,1584561,2020-10-23_22h28.51.519,swahili,2020.2.4,Win32,60,,,,,,,,,,-0.260638276,0.088069099,1,0,0,0.41408,unsorted_card,14,0,14,0,1,,,,,,,,,,,,,,,,,,,,,,,,,,,,,,,,,,,,,,,,,,,,,,,,,,,,,,,,,,,,,,,,,,,,,,,,,,,,,,,,,
,,,,,,,,,,1584561,2020-10-23_22h28.51.519,swahili,2020.2.4,Win32,60,,,,,,,,,,0.404255361,0.056164811,1,0,0,0.947465,test_pile,15,0,15,0,1,POEM - UTENZI,,,,,,,,,,,,,,,,,,,,,,,,,,,,,,,,,,,,,,,,,,,,,,,,,,,,,,,,,,,,,,,,,,,,,,,,,,,,,,,,
,,,,,,,,,,1584561,2020-10-23_22h28.51.519,swahili,2020.2.4,Win32,60,,,,,,,,,,-0.238475155,0.004320343,1,0,0,0.46353,unsorted_card,16,0,16,0,1,,,,,,,,,,,,,,,,,,,,,,,,,,,,,,,,,,,,,,,,,,,,,,,,,,,,,,,,,,,,,,,,,,,,,,,,,,,,,,,,,
,,,,,,,,,,1584561,2020-10-23_22h28.51.519,swahili,2020.2.4,Win32,60,,,,,,,,,,0.453014336,0.030907249,1,0,0,2.03113,test_pile,17,0,17,0,1,TAILOR - MSHONI,,,,,,,,,,,,,,,,,,,,,,,,,,,,,,,,,,,,,,,,,,,,,,,,,,,,,,,,,,,,,,,,,,,,,,,,,,,,,,,,
,,,,,,,,,,1584561,2020-10-23_22h28.51.519,swahili,2020.2.4,Win32,60,,,,,,,,,,-0.382978705,0.032236595,1,0,0,0.89625,unsorted_card,18,0,18,0,1,,,,,,,,,,,,,,,,,,,,,,,,,,,,,,,,,,,,,,,,,,,,,,,,,,,,,,,,,,,,,,,,,,,,,,,,,,,,,,,,,
,,,,,,,,,,1584561,2020-10-23_22h28.51.519,swahili,2020.2.4,Win32,60,,,,,,,,,,0.421099441,0.425722814,1,0,0,1.59777,study_pile,19,0,19,0,1,CHEESE - JIBINI,,,,,,,,,,,,,,,,,,,,,,,,,,,,,,,,,,,,,,,,,,,,,,,,,,,,,,,,,,,,,,,,,,,,,,,,,,,,,,,,
,,,,,,,,,,1584561,2020-10-23_22h28.51.519,swahili,2020.2.4,Win32,60,,,,,,,,,,-0.281914872,0.012296415,1,0,0,0.38106,unsorted_card,20,0,20,0,1,,,,,,,,,,,,,,,,,,,,,,,,,,,,,,,,,,,,,,,,,,,,,,,,,,,,,,,,,,,,,,,,,,,,,,,,,,,,,,,,,
,,,,,,,,,,1584561,2020-10-23_22h28.51.519,swahili,2020.2.4,Win32,60,,,,,,,,,,0.322695075,0.385842454,1,0,0,1.147985,study_pile,21,0,21,0,1,GRAPES - ZABIBU,,,,,,,,,,,,,,,,,,,,,,,,,,,,,,,,,,,,,,,,,,,,,,,,,,,,,,,,,,,,,,,,,,,,,,,,,,,,,,,,
,,,,,,,,,,1584561,2020-10-23_22h28.51.519,swahili,2020.2.4,Win32,60,,,,,,,,,,-0.414007075,-0.038218708,1,0,0,0.380125,unsorted_card,22,0,22,0,1,,,,,,,,,,,,,,,,,,,,,,,,,,,,,,,,,,,,,,,,,,,,,,,,,,,,,,,,,,,,,,,,,,,,,,,,,,,,,,,,,
,,,,,,,,,,1584561,2020-10-23_22h28.51.519,swahili,2020.2.4,Win32,60,,,,,,,,,,0.314716351,0.041542012,1,0,0,3.73203,test_pile,23,0,23,0,1,GRAVE - KABURI,,,,,,,,,,,,,,,,,,,,,,,,,,,,,,,,,,,,,,,,,,,,,,,,,,,,,,,,,,,,,,,,,,,,,,,,,,,,,,,,
,,,,,,,,,,1584561,2020-10-23_22h28.51.519,swahili,2020.2.4,Win32,60,,,,,,,,,,-0.243794304,0.036224631,1,0,0,0.744515,unsorted_card,24,0,24,0,1,,,,,,,,,,,,,,,,,,,,,,,,,,,,,,,,,,,,,,,,,,,,,,,,,,,,,,,,,,,,,,,,,,,,,,,,,,,,,,,,,
,,,,,,,,,,1584561,2020-10-23_22h28.51.519,swahili,2020.2.4,Win32,60,,,,,,,,,,0.273049683,0.373878346,1,0,0,1.63136,study_pile,25,0,25,0,1,MANURE - SAMADI,,,,,,,,,,,,,,,,,,,,,,,,,,,,,,,,,,,,,,,,,,,,,,,,,,,,,,,,,,,,,,,,,,,,,,,,,,,,,,,,
,,,,,,,,,,1584561,2020-10-23_22h28.51.519,swahili,2020.2.4,Win32,60,,,,,,,,,,-0.317375812,-0.058158888,1,0,0,0.36343,unsorted_card,26,0,26,0,1,,,,,,,,,,,,,,,,,,,,,,,,,,,,,,,,,,,,,,,,,,,,,,,,,,,,,,,,,,,,,,,,,,,,,,,,,,,,,,,,,
,,,,,,,,,,1584561,2020-10-23_22h28.51.519,swahili,2020.2.4,Win32,60,,,,,,,,,,0.343085146,0.40711198,1,0,0,1.630335,study_pile,27,0,27,0,1,ORPHAN - YATIMA,,,,,,,,,,,,,,,,,,,,,,,,,,,,,,,,,,,,,,,,,,,,,,,,,,,,,,,,,,,,,,,,,,,,,,,,,,,,,,,,
,,,,,,,,,,1584561,2020-10-23_22h28.51.519,swahili,2020.2.4,Win32,60,,,,,,,,,,-0.315602816,0.010967069,1,0,0,2.51374,unsorted_card,28,0,28,0,1,,,,,,,,,,,,,,,,,,,,,,,,,,,,,,,,,,,,,,,,,,,,,,,,,,,,,,,,,,,,,,,,,,,,,,,,,,,,,,,,,
,,,,,,,,,,1584561,2020-10-23_22h28.51.519,swahili,2020.2.4,Win32,60,,,,,,,,,,0.394503696,0.024260523,1,0,0,1.214245,test_pile,29,0,29,0,1,DIVORCE - TALAKA,,,,,,,,,,,,,,,,,,,,,,,,,,,,,,,,,,,,,,,,,,,,,,,,,,,,,,,,,,,,,,,,,,,,,,,,,,,,,,,,
,,,,,,,,,,1584561,2020-10-23_22h28.51.519,swahili,2020.2.4,Win32,60,,,,,,,,,,-0.074468058,-0.0262546,1,0,0,0.51303,unsorted_card,30,0,30,0,1,,,,,,,,,,,,,,,,,,,,,,,,,,,,,,,,,,,,,,,,,,,,,,,,,,,,,,,,,,,,,,,,,,,,,,,,,,,,,,,,,
,,,,,,,,,,1584561,2020-10-23_22h28.51.519,swahili,2020.2.4,Win32,60,,,,,,,,,,0.412234085,0.000332307,1,0,0,1.04593,test_pile,31,0,31,0,1,BOAT - MASHUA,,,,,,,,,,,,,,,,,,,,,,,,,,,,,,,,,,,,,,,,,,,,,,,,,,,,,,,,,,,,,,,,,,,,,,,,,,,,,,,,
,,,,,,,,,,1584561,2020-10-23_22h28.51.519,swahili,2020.2.4,Win32,60,,,,,,,,,,-0.255319127,-0.014290492,1,0,0,0.41467,unsorted_card,32,0,32,0,1,,,,,,,,,,,,,,,,,,,,,,,,,,,,,,,,,,,,,,,,,,,,,,,,,,,,,,,,,,,,,,,,,,,,,,,,,,,,,,,,,
,,,,,,,,,,1584561,2020-10-23_22h28.51.519,swahili,2020.2.4,Win32,60,,,,,,,,,,0.410461143,0.070787609,1,0,0,1.513715,test_pile,33,0,33,0,1,TREASURE - DAFINA,,,,,,,,,,,,,,,,,,,,,,,,,,,,,,,,,,,,,,,,,,,,,,,,,,,,,,,,,,,,,,,,,,,,,,,,,,,,,,,,
,,,,,,,,,,1584561,2020-10-23_22h28.51.519,swahili,2020.2.4,Win32,60,,,,,,,,,,,,,,,,,,,,,,,0.460106426,0.029577904,1,0,0,0.69839,test_first,,,,,0,0,0,0,1,,,,,,,,,,,,,,,,,,,,,,,,,,,,,,,,,,,,,,,,,,,,,,,,,,,,,,,,,,,,,,,,
,,,,,,,,,,1584561,2020-10-23_22h28.51.519,swahili,2020.2.4,Win32,60,,,,,,,,,,,,,,,,,,,,,,,,,,,,,,,,,,,,,,,return,,,,,,,,,,,1.723525,2.44877,0.458333485,0.05350612,1,0,0,1.017855,yes,BOAT,MASHUA,incorrect,0,0,0,0,1,,,,,,,,,,,,,,,,,,,,,,,,,,,,,,,,,,,,
,,,,,,,,,,1584561,2020-10-23_22h28.51.519,swahili,2020.2.4,Win32,60,,,,,,,,,,,,,,,,,,,,,,,,,,,,,,,,,,,,,,,,,,,,,,,,,,,2.212965,0.484042597,0.089398444,1,0,0,0.801165,yes,DIVORCE,TALAKA,incorrect,1,0,1,0,1,,,,,,,,,,,,,,,,,,,,,,,,,,,,,,,,,,,,
,,,,,,,,,,1584561,2020-10-23_22h28.51.519,swahili,2020.2.4,Win32,60,,,,,,,,,,,,,,,,,,,,,,,,,,,,,,,,,,,,,,,,,,,,,,,,,,,2.22938,0.698581611,0.13326684,1,0,0,2.18369,yes,TREASURE,DAFINA,incorrect,2,0,2,0,1,,,,,,,,,,,,,,,,,,,,,,,,,,,,,,,,,,,,
,,,,,,,,,,1584561,2020-10-23_22h28.51.519,swahili,2020.2.4,Win32,60,,,,,,,,,,,,,,,,,,,,,,,,,,,,,,,,,,,,,,,,,,,,,,,,,,,2.862845,0.688829838,0.118644042,1,0,0,0.88451,yes,POEM,UTENZI,incorrect,3,0,3,0,1,,,,,,,,,,,,,,,,,,,,,,,,,,,,,,,,,,,,
,,,,,,,,,,1584561,2020-10-23_22h28.51.519,swahili,2020.2.4,Win32,60,,,,,,,,,,,,,,,,,,,,,,,,,,,,,,,,,,,,,,,,,,,,,,,,,,,11.028325,0.571808557,-0.209704257,1,0,0,1.08404,yes,PLATE,MSHONI,incorrect,4,0,4,0,1,,,,,,,,,,,,,,,,,,,,,,,,,,,,,,,,,,,,
,,,,,,,,,,1584561,2020-10-23_22h28.51.519,swahili,2020.2.4,Win32,60,,,,,,,,,,,,,,,,,,,,,,,,,,,,,,,,,,,,,,,,,,,,,,,,,,,5.028905,0.571808557,-0.209704257,1,0,0,0.68444,yes,MERCHANT,TAJINI,incorrect,5,0,5,0,1,,,,,,,,,,,,,,,,,,,,,,,,,,,,,,,,,,,,
,,,,,,,,,,1584561,2020-10-23_22h28.51.519,swahili,2020.2.4,Win32,60,,,,,,,,,,,,,,,,,,,,,,,,,,,,,,,,,,,,,,,,,,,,,,,,,,,10.645735,0.551418594,-0.200398839,1,0,0,1.53429,yes,YEAST,HAMIRA,incorrect,6,0,6,0,1,,,,,,,,,,,,,,,,,,,,,,,,,,,,,,,,,,,,
,,,,,,,,,,1584561,2020-10-23_22h28.51.519,swahili,2020.2.4,Win32,60,,,,,,,,,,,,,,,,,,,,,,,,,,,,,,,,,,,,,,,,,,,,,,,,,,,4.89549,0.551418594,-0.200398839,1,0,0,1.033865,yes,TAILOR,MSHONI,incorrect,7,0,7,0,1,,,,,,,,,,,,,,,,,,,,,,,,,,,,,,,,,,,,
,,,,,,,,,,1584561,2020-10-23_22h28.51.519,swahili,2020.2.4,Win32,60,,,,,,,,,,,,,,,,,,,,,,,,,,,,,,,,,,,,,,,,,,,,,,,,,,,7.228795,0.565602884,-0.177799969,1,0,0,0.80055,yes,GRAVE,KABURI,incorrect,8,0,8,0,1,,,,,,,,,,,,,,,,,,,,,,,,,,,,,,,,,,,,
,,,,,,,,,,1584561,2020-10-23_22h28.51.519,swahili,2020.2.4,Win32,60,,,,,,,,,,,,,,,,,,,,,,,,,,,,,,,,,,,,,,,,,,,,,,,,,,,3.24501,0.565602884,-0.177799969,1,0,0,0.98409,yes,BLAME,LAWAMA,incorrect,9,0,9,0,1,,,,,,,,,,,,,,,,,,,,,,,,,,,,,,,,,,,,
,,,,,,,,,,1584561,2020-10-23_22h28.51.519,swahili,2020.2.4,Win32,60,,,,,,,,,,,,,,,,,,,,,,,,,,,,,,,,,,,,,,,,0,0,0,0,1,,,,,,,,,,,,,,,,,,,,,,,,,,,,,,,,,,,,,,,,,,,,,,,,,,,,,,,,,,
,,,,,,,,,,1584561,2020-10-23_22h28.51.519,swahili,2020.2.4,Win32,60,,,,,,,,,,,,,,,,,,,,,,GRAPES - ZABIBU,,,,,,,,return,0.930525,return,3.18777,0,0,0,0,1,,,,,,,,,,,,,,,,,,,,,,,,,,,,,,,,,,,,,,,,,,,,,,,,,,,,,,,,,,,,,,,,
,,,,,,,,,,1584561,2020-10-23_22h28.51.519,swahili,2020.2.4,Win32,60,,,,,,,,,,,,,,,,,,,,,,CORN - NAFAKA,,,,,,,,,,return,4.88286,1,0,1,0,1,,,,,,,,,,,,,,,,,,,,,,,,,,,,,,,,,,,,,,,,,,,,,,,,,,,,,,,,,,,,,,,,
,,,,,,,,,,1584561,2020-10-23_22h28.51.519,swahili,2020.2.4,Win32,60,,,,,,,,,,,,,,,,,,,,,,BULL - FAHILI,,,,,,,,,,return,2.015695,2,0,2,0,1,,,,,,,,,,,,,,,,,,,,,,,,,,,,,,,,,,,,,,,,,,,,,,,,,,,,,,,,,,,,,,,,
,,,,,,,,,,1584561,2020-10-23_22h28.51.519,swahili,2020.2.4,Win32,60,,,,,,,,,,,,,,,,,,,,,,OATH - YAMINI,,,,,,,,,,return,1.900095,3,0,3,0,1,,,,,,,,,,,,,,,,,,,,,,,,,,,,,,,,,,,,,,,,,,,,,,,,,,,,,,,,,,,,,,,,
,,,,,,,,,,1584561,2020-10-23_22h28.51.519,swahili,2020.2.4,Win32,60,,,,,,,,,,,,,,,,,,,,,,CHEESE - JIBINI,,,,,,,,,,return,8.908975,4,0,4,0,1,,,,,,,,,,,,,,,,,,,,,,,,,,,,,,,,,,,,,,,,,,,,,,,,,,,,,,,,,,,,,,,,
,,,,,,,,,,1584561,2020-10-23_22h28.51.519,swahili,2020.2.4,Win32,60,,,,,,,,,,,,,,,,,,,,,,ORPHAN - YATIMA,,,,,,,,,,return,6.940295,5,0,5,0,1,,,,,,,,,,,,,,,,,,,,,,,,,,,,,,,,,,,,,,,,,,,,,,,,,,,,,,,,,,,,,,,,
,,,,,,,,,,1584561,2020-10-23_22h28.51.519,swahili,2020.2.4,Win32,60,,,,,,,,,,,,,,,,,,,,,,MANURE - SAMADI,,,,,,,,,,return,1.459215,6,0,6,0,1,,,,,,,,,,,,,,,,,,,,,,,,,,,,,,,,,,,,,,,,,,,,,,,,,,,,,,,,,,,,,,,,
,,,,,,,,,,1584561,2020-10-23_22h28.51.519,swahili,2020.2.4,Win32,60,,,,,,,,,,,,,,,,,,,,,,,,,,,,,,,,,,,,,,,,1,0,1,0,1,,,,,,,,,,,,,,,,,,,,,,,,,,,,,,,,,,,,,,,,,,,,,,,,,,,,,,,,,,
,,,,,,,,,,1584561,2020-10-23_22h28.51.519,swahili,2020.2.4,Win32,60,,,,,,,,,,,,,,,,,,,,,,,,,,,,,,,,,,,,,,,,,,,,,3,0,3,0,1,,,,,,,,,,,,,,,,,,,,,,,,,,,,,,,,,,,,,,,,,,,,,,,,,,,,,
,,,,,,,,,,1584561,2020-10-23_22h28.51.519,swahili,2020.2.4,Win32,60,,,,,,,,,,-0.242907725,-0.063476351,1,0,0,1.75571,unsorted_card,0,0,0,0,1,,,,,,,,,,,,,,,,,,,,,,,,,,,,,,,,,,,,,,,,,,,,,,,,,,,,,,,,,,,,,,,,,,,,,,,,,,,,,,,,,
,,,,,,,,,,1584561,2020-10-23_22h28.51.519,swahili,2020.2.4,Win32,60,,,,,,,,,,0.444148979,0.004320343,1,0,0,1.165275,test_pile,1,0,1,0,1,MERCHANT - TAJIRI,,,,,,,,,,,,,,,,,,,,,,,,,,,,,,,,,,,,,,,,,,,,,,,,,,,,,,,,,,,,,,,,,,,,,,,,,,,,,,,,
,,,,,,,,,,1584561,2020-10-23_22h28.51.519,swahili,2020.2.4,Win32,60,,,,,,,,,,-0.305851043,-0.004985075,1,0,0,0.578505,unsorted_card,2,0,2,0,1,,,,,,,,,,,,,,,,,,,,,,,,,,,,,,,,,,,,,,,,,,,,,,,,,,,,,,,,,,,,,,,,,,,,,,,,,,,,,,,,,
,,,,,,,,,,1584561,2020-10-23_22h28.51.519,swahili,2020.2.4,Win32,60,,,,,,,,,,0.481383023,0.441674958,1,0,0,1.04779,study_pile,3,0,3,0,1,BULL - FAHILI,,,,,,,,,,,,,,,,,,,,,,,,,,,,,,,,,,,,,,,,,,,,,,,,,,,,,,,,,,,,,,,,,,,,,,,,,,,,,,,,
,,,,,,,,,,1584561,2020-10-23_22h28.51.519,swahili,2020.2.4,Win32,60,,,,,,,,,,-0.303191469,0.052176775,1,0,0,0.397585,unsorted_card,4,0,4,0,1,,,,,,,,,,,,,,,,,,,,,,,,,,,,,,,,,,,,,,,,,,,,,,,,,,,,,,,,,,,,,,,,,,,,,,,,,,,,,,,,,
,,,,,,,,,,1584561,2020-10-23_22h28.51.519,swahili,2020.2.4,Win32,60,,,,,,,,,,0.427305007,0.46693252,1,0,0,3.86323,study_pile,5,0,5,0,1,PLATE - SAHANI,,,,,,,,,,,,,,,,,,,,,,,,,,,,,,,,,,,,,,,,,,,,,,,,,,,,,,,,,,,,,,,,,,,,,,,,,,,,,,,,
,,,,,,,,,,1584561,2020-10-23_22h28.51.519,swahili,2020.2.4,Win32,60,,,,,,,,,,-0.270390049,0.117314696,1,0,0,0.42791,unsorted_card,6,0,6,0,1,,,,,,,,,,,,,,,,,,,,,,,,,,,,,,,,,,,,,,,,,,,,,,,,,,,,,,,,,,,,,,,,,,,,,,,,,,,,,,,,,
,,,,,,,,,,1584561,2020-10-23_22h28.51.519,swahili,2020.2.4,Win32,60,,,,,,,,,,0.390957488,0.054835465,1,0,0,1.49803,test_pile,7,0,7,0,1,YEAST - HAMIRA,,,,,,,,,,,,,,,,,,,,,,,,,,,,,,,,,,,,,,,,,,,,,,,,,,,,,,,,,,,,,,,,,,,,,,,,,,,,,,,,
,,,,,,,,,,1584561,2020-10-23_22h28.51.519,swahili,2020.2.4,Win32,60,,,,,,,,,,-0.165780063,-0.027584027,1,0,0,0.497255,unsorted_card,8,0,8,0,1,,,,,,,,,,,,,,,,,,,,,,,,,,,,,,,,,,,,,,,,,,,,,,,,,,,,,,,,,,,,,,,,,,,,,,,,,,,,,,,,,
,,,,,,,,,,1584561,2020-10-23_22h28.51.519,swahili,2020.2.4,Win32,60,,,,,,,,,,0.392730538,0.020272487,1,0,0,1.43112,test_pile,9,0,9,0,1,BLAME - LAWAMA,,,,,,,,,,,,,,,,,,,,,,,,,,,,,,,,,,,,,,,,,,,,,,,,,,,,,,,,,,,,,,,,,,,,,,,,,,,,,,,,
,,,,,,,,,,1584561,2020-10-23_22h28.51.519,swahili,2020.2.4,Win32,60,,,,,,,,,,-0.375886506,-0.035560099,1,0,0,0.6807,unsorted_card,10,0,10,0,1,,,,,,,,,,,,,,,,,,,,,,,,,,,,,,,,,,,,,,,,,,,,,,,,,,,,,,,,,,,,,,,,,,,,,,,,,,,,,,,,,
,,,,,,,,,,1584561,2020-10-23_22h28.51.519,swahili,2020.2.4,Win32,60,,,,,,,,,,0.381205823,0.017613796,1,0,0,1.464585,test_pile,11,0,11,0,1,OATH - YAMINI,,,,,,,,,,,,,,,,,,,,,,,,,,,,,,,,,,,,,,,,,,,,,,,,,,,,,,,,,,,,,,,,,,,,,,,,,,,,,,,,
,,,,,,,,,,1584561,2020-10-23_22h28.51.519,swahili,2020.2.4,Win32,60,,,,,,,,,,-0.389184379,-0.047524207,1,0,0,0.429645,unsorted_card,12,0,12,0,1,,,,,,,,,,,,,,,,,,,,,,,,,,,,,,,,,,,,,,,,,,,,,,,,,,,,,,,,,,,,,,,,,,,,,,,,,,,,,,,,,
,,,,,,,,,,1584561,2020-10-23_22h28.51.519,swahili,2020.2.4,Win32,60,,,,,,,,,,0.329787274,0.420405392,1,0,0,2.547305,study_pile,13,0,13,0,1,CORN - NAFAKA,,,,,,,,,,,,,,,,,,,,,,,,,,,,,,,,,,,,,,,,,,,,,,,,,,,,,,,,,,,,,,,,,,,,,,,,,,,,,,,,
,,,,,,,,,,1584561,2020-10-23_22h28.51.519,swahili,2020.2.4,Win32,60,,,,,,,,,,-0.281028347,0.03356594,1,0,0,0.395095,unsorted_card,14,0,14,0,1,,,,,,,,,,,,,,,,,,,,,,,,,,,,,,,,,,,,,,,,,,,,,,,,,,,,,,,,,,,,,,,,,,,,,,,,,,,,,,,,,
,,,,,,,,,,1584561,2020-10-23_22h28.51.519,swahili,2020.2.4,Win32,60,,,,,,,,,,0.418439867,0.069458264,1,0,0,1.264405,test_pile,15,0,15,0,1,POEM - UTENZI,,,,,,,,,,,,,,,,,,,,,,,,,,,,,,,,,,,,,,,,,,,,,,,,,,,,,,,,,,,,,,,,,,,,,,,,,,,,,,,,
,,,,,,,,,,1584561,2020-10-23_22h28.51.519,swahili,2020.2.4,Win32,60,,,,,,,,,,-0.178191465,-0.010302456,1,0,0,0.375635,unsorted_card,16,0,16,0,1,,,,,,,,,,,,,,,,,,,,,,,,,,,,,,,,,,,,,,,,,,,,,,,,,,,,,,,,,,,,,,,,,,,,,,,,,,,,,,,,,
,,,,,,,,,,1584561,2020-10-23_22h28.51.519,swahili,2020.2.4,Win32,60,,,,,,,,,,0.384751814,0.028248559,1,0,0,1.71479,test_pile,17,0,17,0,1,TAILOR - MSHONI,,,,,,,,,,,,,,,,,,,,,,,,,,,,,,,,,,,,,,,,,,,,,,,,,,,,,,,,,,,,,,,,,,,,,,,,,,,,,,,,
,,,,,,,,,,1584561,2020-10-23_22h28.51.519,swahili,2020.2.4,Win32,60,,,,,,,,,,-0.273049624,-0.020937219,1,0,0,0.36384,unsorted_card,18,0,18,0,1,,,,,,,,,,,,,,,,,,,,,,,,,,,,,,,,,,,,,,,,,,,,,,,,,,,,,,,,,,,,,,,,,,,,,,,,,,,,,,,,,
,,,,,,,,,,1584561,2020-10-23_22h28.51.519,swahili,2020.2.4,Win32,60,,,,,,,,,,0.375000041,0.343303403,1,0,0,0.914585,study_pile,19,0,19,0,1,CHEESE - JIBINI,,,,,,,,,,,,,,,,,,,,,,,,,,,,,,,,,,,,,,,,,,,,,,,,,,,,,,,,,,,,,,,,,,,,,,,,,,,,,,,,
,,,,,,,,,,1584561,2020-10-23_22h28.51.519,swahili,2020.2.4,Win32,60,,,,,,,,,,-0.361702109,-0.014290492,1,0,0,0.430725,unsorted_card,20,0,20,0,1,,,,,,,,,,,,,,,,,,,,,,,,,,,,,,,,,,,,,,,,,,,,,,,,,,,,,,,,,,,,,,,,,,,,,,,,,,,,,,,,,
,,,,,,,,,,1584561,2020-10-23_22h28.51.519,swahili,2020.2.4,Win32,60,,,,,,,,,,0.337765997,0.437686922,1,0,0,1.36459,study_pile,21,0,21,0,1,GRAPES - ZABIBU,,,,,,,,,,,,,,,,,,,,,,,,,,,,,,,,,,,,,,,,,,,,,,,,,,,,,,,,,,,,,,,,,,,,,,,,,,,,,,,,
,,,,,,,,,,1584561,2020-10-23_22h28.51.519,swahili,2020.2.4,Win32,60,,,,,,,,,,-0.44237587,-0.038218708,1,0,0,0.39715,unsorted_card,22,0,22,0,1,,,,,,,,,,,,,,,,,,,,,,,,,,,,,,,,,,,,,,,,,,,,,,,,,,,,,,,,,,,,,,,,,,,,,,,,,,,,,,,,,
,,,,,,,,,,1584561,2020-10-23_22h28.51.519,swahili,2020.2.4,Win32,60,,,,,,,,,,0.378546249,-0.002326384,1,0,0,1.86465,test_pile,23,0,23,0,1,GRAVE - KABURI,,,,,,,,,,,,,,,,,,,,,,,,,,,,,,,,,,,,,,,,,,,,,,,,,,,,,,,,,,,,,,,,,,,,,,,,,,,,,,,,
,,,,,,,,,,1584561,2020-10-23_22h28.51.519,swahili,2020.2.4,Win32,60,,,,,,,,,,-0.190602813,-0.054170852,1,0,0,0.6971,unsorted_card,24,0,24,0,1,,,,,,,,,,,,,,,,,,,,,,,,,,,,,,,,,,,,,,,,,,,,,,,,,,,,,,,,,,,,,,,,,,,,,,,,,,,,,,,,,
,,,,,,,,,,1584561,2020-10-23_22h28.51.519,swahili,2020.2.4,Win32,60,,,,,,,,,,0.565602884,0.452309681,1,0,0,1.664285,study_pile,25,0,25,0,1,MANURE - SAMADI,,,,,,,,,,,,,,,,,,,,,,,,,,,,,,,,,,,,,,,,,,,,,,,,,,,,,,,,,,,,,,,,,,,,,,,,,,,,,,,,
,,,,,,,,,,1584561,2020-10-23_22h28.51.519,swahili,2020.2.4,Win32,60,,,,,,,,,,-0.293439641,-0.011631802,1,0,0,0.448565,unsorted_card,26,0,26,0,1,,,,,,,,,,,,,,,,,,,,,,,,,,,,,,,,,,,,,,,,,,,,,,,,,,,,,,,,,,,,,,,,,,,,,,,,,,,,,,,,,
,,,,,,,,,,1584561,2020-10-23_22h28.51.519,swahili,2020.2.4,Win32,60,,,,,,,,,,0.370567525,0.044200703,1,0,0,1.19591,test_pile,27,0,27,0,1,ORPHAN - YATIMA,,,,,,,,,,,,,,,,,,,,,,,,,,,,,,,,,,,,,,,,,,,,,,,,,,,,,,,,,,,,,,,,,,,,,,,,,,,,,,,,
,,,,,,,,,,1584561,2020-10-23_22h28.51.519,swahili,2020.2.4,Win32,60,,,,,,,,,,-0.309397088,-0.060817579,1,0,0,0.396935,unsorted_card,28,0,28,0,1,,,,,,,,,,,,,,,,,,,,,,,,,,,,,,,,,,,,,,,,,,,,,,,,,,,,,,,,,,,,,,,,,,,,,,,,,,,,,,,,,
,,,,,,,,,,1584561,2020-10-23_22h28.51.519,swahili,2020.2.4,Win32,60,,,,,,,,,,0.448581603,0.054835465,1,0,0,0.81441,test_pile,29,0,29,0,1,DIVORCE - TALAKA,,,,,,,,,,,,,,,,,,,,,,,,,,,,,,,,,,,,,,,,,,,,,,,,,,,,,,,,,,,,,,,,,,,,,,,,,,,,,,,,
,,,,,,,,,,1584561,2020-10-23_22h28.51.519,swahili,2020.2.4,Win32,60,,,,,,,,,,-0.114361676,-0.060817579,1,0,0,0.46366,unsorted_card,30,0,30,0,1,,,,,,,,,,,,,,,,,,,,,,,,,,,,,,,,,,,,,,,,,,,,,,,,,,,,,,,,,,,,,,,,,,,,,,,,,,,,,,,,,
,,,,,,,,,,1584561,2020-10-23_22h28.51.519,swahili,2020.2.4,Win32,60,,,,,,,,,,0.360815643,-0.000997039,1,0,0,0.897925,test_pile,31,0,31,0,1,BOAT - MASHUA,,,,,,,,,,,,,,,,,,,,,,,,,,,,,,,,,,,,,,,,,,,,,,,,,,,,,,,,,,,,,,,,,,,,,,,,,,,,,,,,
,,,,,,,,,,1584561,2020-10-23_22h28.51.519,swahili,2020.2.4,Win32,60,,,,,,,,,,-0.379432606,-0.058158888,1,0,0,0.58073,unsorted_card,32,0,32,0,1,,,,,,,,,,,,,,,,,,,,,,,,,,,,,,,,,,,,,,,,,,,,,,,,,,,,,,,,,,,,,,,,,,,,,,,,,,,,,,,,,
,,,,,,,,,,1584561,2020-10-23_22h28.51.519,swahili,2020.2.4,Win32,60,,,,,,,,,,0.302305003,0.001661652,1,0,0,0.94796,test_pile,33,0,33,0,1,TREASURE - DAFINA,,,,,,,,,,,,,,,,,,,,,,,,,,,,,,,,,,,,,,,,,,,,,,,,,,,,,,,,,,,,,,,,,,,,,,,,,,,,,,,,
,,,,,,,,,,1584561,2020-10-23_22h28.51.519,swahili,2020.2.4,Win32,60,,,,,,,,,,,,,,,,,,,,,,PLATE - SAHANI,-0.492907786,-0.004985075,1,0,0,1.398855,study_first,return,1.131215,return,7.64988,0,0,0,0,1,,,,,,,,,,,,,,,,,,,,,,,,,,,,,,,,,,,,,,,,,,,,,,,,,,,,,,,,,,,,,,,,
,,,,,,,,,,1584561,2020-10-23_22h28.51.519,swahili,2020.2.4,Win32,60,,,,,,,,,,,,,,,,,,,,,,GRAPES - ZABIBU,,,,,,,,,,return,7.33338,1,0,1,0,1,,,,,,,,,,,,,,,,,,,,,,,,,,,,,,,,,,,,,,,,,,,,,,,,,,,,,,,,,,,,,,,,
,,,,,,,,,,1584561,2020-10-23_22h28.51.519,swahili,2020.2.4,Win32,60,,,,,,,,,,,,,,,,,,,,,,BULL - FAHILI,,,,,,,,,,return,7.60261,2,0,2,0,1,,,,,,,,,,,,,,,,,,,,,,,,,,,,,,,,,,,,,,,,,,,,,,,,,,,,,,,,,,,,,,,,
,,,,,,,,,,1584561,2020-10-23_22h28.51.519,swahili,2020.2.4,Win32,60,,,,,,,,,,,,,,,,,,,,,,CORN - NAFAKA,,,,,,,,,,return,6.822395,3,0,3,0,1,,,,,,,,,,,,,,,,,,,,,,,,,,,,,,,,,,,,,,,,,,,,,,,,,,,,,,,,,,,,,,,,
,,,,,,,,,,1584561,2020-10-23_22h28.51.519,swahili,2020.2.4,Win32,60,,,,,,,,,,,,,,,,,,,,,,CHEESE - JIBINI,,,,,,,,,,return,2.876385,4,0,4,0,1,,,,,,,,,,,,,,,,,,,,,,,,,,,,,,,,,,,,,,,,,,,,,,,,,,,,,,,,,,,,,,,,
,,,,,,,,,,1584561,2020-10-23_22h28.51.519,swahili,2020.2.4,Win32,60,,,,,,,,,,,,,,,,,,,,,,MANURE - SAMADI,,,,,,,,,,return,5.63624,5,0,5,0,1,,,,,,,,,,,,,,,,,,,,,,,,,,,,,,,,,,,,,,,,,,,,,,,,,,,,,,,,,,,,,,,,
,,,,,,,,,,1584561,2020-10-23_22h28.51.519,swahili,2020.2.4,Win32,60,,,,,,,,,,,,,,,,,,,,,,,,,,,,,,,,,,,,,,,,0,0,0,0,1,,,,,,,,,,,,,,,,,,,,,,,,,,,,,,,,,,,,,,,,,,,,,,,,,,,,,,,,,,
,,,,,,,,,,1584561,2020-10-23_22h28.51.519,swahili,2020.2.4,Win32,60,,,,,,,,,,,,,,,,,,,,,,,,,,,,,,,,,,0,0,0,0,1,,,,,,,,,,,,,,,,,,,,,,,,,,,,,,,,,,,,,,,,,,,,,,,,,,,,,,,,,,,,,,,,
,,,,,,,,,,1584561,2020-10-23_22h28.51.519,swahili,2020.2.4,Win32,60,,,,,,,,,,,,,,,,,,,,,,,,,,,,,,,,,,,,,,,return,,,,,,,,,,,0.532515,5.265635,0.688829838,0.052176775,1,0,0,2.050585,yes,BLAME,LAWAMA,incorrect,0,0,0,0,1,,,,,,,,,,,,,,,,,,,,,,,,,,,,,,,,,,,,
,,,,,,,,,,1584561,2020-10-23_22h28.51.519,swahili,2020.2.4,Win32,60,,,,,,,,,,,,,,,,,,,,,,,,,,,,,,,,,,,,,,,,,,,,,,,,,,,3.045165,0.687943313,0.052176775,1,0,0,1.20072,yes,BOAT,MASHUA,incorrect,1,0,1,0,1,,,,,,,,,,,,,,,,,,,,,,,,,,,,,,,,,,,,
,,,,,,,,,,1584561,2020-10-23_22h28.51.519,swahili,2020.2.4,Win32,60,,,,,,,,,,,,,,,,,,,,,,,,,,,,,,,,,,,,,,,,,,,,,,,,,,,1.895555,0.67464544,0.052176775,1,0,0,0.86744,yes,POEM,UTENZI,incorrect,2,0,2,0,1,,,,,,,,,,,,,,,,,,,,,,,,,,,,,,,,,,,,
,,,,,,,,,,1584561,2020-10-23_22h28.51.519,swahili,2020.2.4,Win32,60,,,,,,,,,,,,,,,,,,,,,,,,,,,,,,,,,,,,,,,,,,,,,,,,,,,4.729055,0.682624164,0.056164811,1,0,0,2.33405,yes,YEAST,HAMIRA,incorrect,3,0,3,0,1,,,,,,,,,,,,,,,,,,,,,,,,,,,,,,,,,,,,
,,,,,,,,,,1584561,2020-10-23_22h28.51.519,swahili,2020.2.4,Win32,60,,,,,,,,,,,,,,,,,,,,,,,,,,,,,,,,,,,,,,,,,,,,,,,,,,,2.179045,0.686170263,0.058823501,1,0,0,0.817665,yes,MERCHANT,TAJIRI,incorrect,4,0,4,0,1,,,,,,,,,,,,,,,,,,,,,,,,,,,,,,,,,,,,
,,,,,,,,,,1584561,2020-10-23_22h28.51.519,swahili,2020.2.4,Win32,60,,,,,,,,,,,,,,,,,,,,,,,,,,,,,,,,,,,,,,,,,,,,,,,,,,,8.263725,0.709219909,0.080093027,1,0,0,0.800175,yes,ORPHAN,YATIMA,incorrect,5,0,5,0,1,,,,,,,,,,,,,,,,,,,,,,,,,,,,,,,,,,,,
,,,,,,,,,,1584561,2020-10-23_22h28.51.519,swahili,2020.2.4,Win32,60,,,,,,,,,,,,,,,,,,,,,,,,,,,,,,,,,,,,,,,,,,,,,,,,,,,2.262195,0.710106434,0.081422372,1,0,0,0.73437,yes,TREASURE,DAFINA,incorrect,6,0,6,0,1,,,,,,,,,,,,,,,,,,,,,,,,,,,,,,,,,,,,
,,,,,,,,,,1584561,2020-10-23_22h28.51.519,swahili,2020.2.4,Win32,60,,,,,,,,,,,,,,,,,,,,,,,,,,,,,,,,,,,,,,,,,,,,,,,,,,,2.77941,0.710993067,0.082751717,1,0,0,0.68415,yes,GRAVE,KABURI,incorrect,7,0,7,0,1,,,,,,,,,,,,,,,,,,,,,,,,,,,,,,,,,,,,
,,,,,,,,,,1584561,2020-10-23_22h28.51.519,swahili,2020.2.4,Win32,60,,,,,,,,,,,,,,,,,,,,,,,,,,,,,,,,,,,,,,,,,,,,,,,,,,,2.24542,0.713652642,0.088069099,1,0,0,0.650335,yes,TAILOR,MSHONI,incorrect,8,0,8,0,1,,,,,,,,,,,,,,,,,,,,,,,,,,,,,,,,,,,,
,,,,,,,,,,1584561,2020-10-23_22h28.51.519,swahili,2020.2.4,Win32,60,,,,,,,,,,,,,,,,,,,,,,,,,,,,,,,,,,,,,,,,,,,,,,,,,,,5.796015,0.713652642,0.088069099,1,0,0,0.950615,yes,OATH,YAHAMA,incorrect,9,0,9,0,1,,,,,,,,,,,,,,,,,,,,,,,,,,,,,,,,,,,,
,,,,,,,,,,1584561,2020-10-23_22h28.51.519,swahili,2020.2.4,Win32,60,,,,,,,,,,,,,,,,,,,,,,,,,,,,,,,,,,,,,,,,,,,,,,,,,,,6.428665,0.524822849,0.038883321,1,0,0,0.667715,yes,DIVORCE,TALAKA,incorrect,10,0,10,0,1,,,,,,,,,,,,,,,,,,,,,,,,,,,,,,,,,,,,
,,,,,,,,,,1584561,2020-10-23_22h28.51.519,swahili,2020.2.4,Win32,60,,,,,,,,,,,,,,,,,,,,,,,,,,,,,,,,,,,,,,,,1,0,1,0,1,,,,,,,,,,,,,,,,,,,,,,,,,,,,,,,,,,,,,,,,,,,,,,,,,,,,,,,,,,
,,,,,,,,,,1584561,2020-10-23_22h28.51.519,swahili,2020.2.4,Win32,60,,,,,,,,,,,,,,,,,,,,,,,,,,,,,,,,,,,,,,,,,,,,,4,0,4,0,1,,,,,,,,,,,,,,,,,,,,,,,,,,,,,,,,,,,,,,,,,,,,,,,,,,,,,
,,,,,,,,,,1584561,2020-10-23_22h28.51.519,swahili,2020.2.4,Win32,60,,,,,,,,,,-0.29432622,0.094715825,1,0,0,1.709385,unsorted_card,0,0,0,0,1,,,,,,,,,,,,,,,,,,,,,,,,,,,,,,,,,,,,,,,,,,,,,,,,,,,,,,,,,,,,,,,,,,,,,,,,,,,,,,,,,
,,,,,,,,,,1584561,2020-10-23_22h28.51.519,swahili,2020.2.4,Win32,60,,,,,,,,,,0.414893659,-0.131272963,1,0,0,2.297615,test_pile,1,0,1,0,1,MERCHANT - TAJIRI,,,,,,,,,,,,,,,,,,,,,,,,,,,,,,,,,,,,,,,,,,,,,,,,,,,,,,,,,,,,,,,,,,,,,,,,,,,,,,,,
,,,,,,,,,,1584561,2020-10-23_22h28.51.519,swahili,2020.2.4,Win32,60,,,,,,,,,,-0.340425512,-0.100697939,1,0,0,0.49736,unsorted_card,2,0,2,0,1,,,,,,,,,,,,,,,,,,,,,,,,,,,,,,,,,,,,,,,,,,,,,,,,,,,,,,,,,,,,,,,,,,,,,,,,,,,,,,,,,
,,,,,,,,,,1584561,2020-10-23_22h28.51.519,swahili,2020.2.4,Win32,60,,,,,,,,,,0.472517774,0.488202005,1,0,0,1.09712,study_pile,3,0,3,0,1,BULL - FAHILI,,,,,,,,,,,,,,,,,,,,,,,,,,,,,,,,,,,,,,,,,,,,,,,,,,,,,,,,,,,,,,,,,,,,,,,,,,,,,,,,
,,,,,,,,,,1584561,2020-10-23_22h28.51.519,swahili,2020.2.4,Win32,60,,,,,,,,,,-0.283687922,0.141242912,1,0,0,0.49554,unsorted_card,4,0,4,0,1,,,,,,,,,,,,,,,,,,,,,,,,,,,,,,,,,,,,,,,,,,,,,,,,,,,,,,,,,,,,,,,,,,,,,,,,,,,,,,,,,
,,,,,,,,,,1584561,2020-10-23_22h28.51.519,swahili,2020.2.4,Win32,60,,,,,,,,,,0.448581603,0.533399787,1,0,0,1.015505,study_pile,5,0,5,0,1,PLATE - SAHANI,,,,,,,,,,,,,,,,,,,,,,,,,,,,,,,,,,,,,,,,,,,,,,,,,,,,,,,,,,,,,,,,,,,,,,,,,,,,,,,,
,,,,,,,,,,1584561,2020-10-23_22h28.51.519,swahili,2020.2.4,Win32,60,,,,,,,,,,-0.062943234,0.167829819,1,0,0,0.462255,unsorted_card,6,0,6,0,1,,,,,,,,,,,,,,,,,,,,,,,,,,,,,,,,,,,,,,,,,,,,,,,,,,,,,,,,,,,,,,,,,,,,,,,,,,,,,,,,,
,,,,,,,,,,1584561,2020-10-23_22h28.51.519,swahili,2020.2.4,Win32,60,,,,,,,,,,0.381205823,0.025589868,1,0,0,1.6141,test_pile,7,0,7,0,1,YEAST - HAMIRA,,,,,,,,,,,,,,,,,,,,,,,,,,,,,,,,,,,,,,,,,,,,,,,,,,,,,,,,,,,,,,,,,,,,,,,,,,,,,,,,
,,,,,,,,,,1584561,2020-10-23_22h28.51.519,swahili,2020.2.4,Win32,60,,,,,,,,,,-0.285460918,-0.008973111,1,0,0,0.613335,unsorted_card,8,0,8,0,1,,,,,,,,,,,,,,,,,,,,,,,,,,,,,,,,,,,,,,,,,,,,,,,,,,,,,,,,,,,,,,,,,,,,,,,,,,,,,,,,,
,,,,,,,,,,1584561,2020-10-23_22h28.51.519,swahili,2020.2.4,Win32,60,,,,,,,,,,0.348404296,-0.437022309,1,0,0,1.41453,done_pile,9,0,9,0,1,BLAME - LAWAMA,,,,,,,,,,,,,,,,,,,,,,,,,,,,,,,,,,,,,,,,,,,,,,,,,,,,,,,,,,,,,,,,,,,,,,,,,,,,,,,,
,,,,,,,,,,1584561,2020-10-23_22h28.51.519,swahili,2020.2.4,Win32,60,,,,,,,,,,-0.367021258,-0.010302456,1,0,0,0.496875,unsorted_card,10,0,10,0,1,,,,,,,,,,,,,,,,,,,,,,,,,,,,,,,,,,,,,,,,,,,,,,,,,,,,,,,,,,,,,,,,,,,,,,,,,,,,,,,,,
,,,,,,,,,,1584561,2020-10-23_22h28.51.519,swahili,2020.2.4,Win32,60,,,,,,,,,,0.363475218,-0.004985075,1,0,0,1.11434,test_pile,11,0,11,0,1,OATH - YAMINI,,,,,,,,,,,,,,,,,,,,,,,,,,,,,,,,,,,,,,,,,,,,,,,,,,,,,,,,,,,,,,,,,,,,,,,,,,,,,,,,
,,,,,,,,,,1584561,2020-10-23_22h28.51.519,swahili,2020.2.4,Win32,60,,,,,,,,,,-0.173758787,-0.058158888,1,0,0,0.447615,unsorted_card,12,0,12,0,1,,,,,,,,,,,,,,,,,,,,,,,,,,,,,,,,,,,,,,,,,,,,,,,,,,,,,,,,,,,,,,,,,,,,,,,,,,,,,,,,,
,,,,,,,,,,1584561,2020-10-23_22h28.51.519,swahili,2020.2.4,Win32,60,,,,,,,,,,0.357269544,0.548022585,1,0,0,1.41469,study_pile,13,0,13,0,1,CORN - NAFAKA,,,,,,,,,,,,,,,,,,,,,,,,,,,,,,,,,,,,,,,,,,,,,,,,,,,,,,,,,,,,,,,,,,,,,,,,,,,,,,,,
,,,,,,,,,,1584561,2020-10-23_22h28.51.519,swahili,2020.2.4,Win32,60,,,,,,,,,,-0.257978701,0.086739753,1,0,0,0.38028,unsorted_card,14,0,14,0,1,,,,,,,,,,,,,,,,,,,,,,,,,,,,,,,,,,,,,,,,,,,,,,,,,,,,,,,,,,,,,,,,,,,,,,,,,,,,,,,,,
,,,,,,,,,,1584561,2020-10-23_22h28.51.519,swahili,2020.2.4,Win32,60,,,,,,,,,,0.355496494,-0.375872424,1,0,0,2.997535,done_pile,15,0,15,0,1,POEM - UTENZI,,,,,,,,,,,,,,,,,,,,,,,,,,,,,,,,,,,,,,,,,,,,,,,,,,,,,,,,,,,,,,,,,,,,,,,,,,,,,,,,
,,,,,,,,,,1584561,2020-10-23_22h28.51.519,swahili,2020.2.4,Win32,60,,,,,,,,,,-0.286347496,-0.120638119,1,0,0,0.514455,unsorted_card,16,0,16,0,1,,,,,,,,,,,,,,,,,,,,,,,,,,,,,,,,,,,,,,,,,,,,,,,,,,,,,,,,,,,,,,,,,,,,,,,,,,,,,,,,,
,,,,,,,,,,1584561,2020-10-23_22h28.51.519,swahili,2020.2.4,Win32,60,,,,,,,,,,0.389184547,-0.530076483,1,0,0,1.580915,done_pile,17,0,17,0,1,TAILOR - MSHONI,,,,,,,,,,,,,,,,,,,,,,,,,,,,,,,,,,,,,,,,,,,,,,,,,,,,,,,,,,,,,,,,,,,,,,,,,,,,,,,,
,,,,,,,,,,1584561,2020-10-23_22h28.51.519,swahili,2020.2.4,Win32,60,,,,,,,,,,-0.139184317,-0.245596581,1,0,0,0.430705,unsorted_card,18,0,18,0,1,,,,,,,,,,,,,,,,,,,,,,,,,,,,,,,,,,,,,,,,,,,,,,,,,,,,,,,,,,,,,,,,,,,,,,,,,,,,,,,,,
,,,,,,,,,,1584561,2020-10-23_22h28.51.519,swahili,2020.2.4,Win32,60,,,,,,,,,,0.335106423,0.44965103,1,0,0,1.263565,study_pile,19,0,19,0,1,CHEESE - JIBINI,,,,,,,,,,,,,,,,,,,,,,,,,,,,,,,,,,,,,,,,,,,,,,,,,,,,,,,,,,,,,,,,,,,,,,,,,,,,,,,,
,,,,,,,,,,1584561,2020-10-23_22h28.51.519,swahili,2020.2.4,Win32,60,,,,,,,,,,-0.198581536,0.109338624,1,0,0,2.480845,unsorted_card,20,0,20,0,1,,,,,,,,,,,,,,,,,,,,,,,,,,,,,,,,,,,,,,,,,,,,,,,,,,,,,,,,,,,,,,,,,,,,,,,,,,,,,,,,,
,,,,,,,,,,1584561,2020-10-23_22h28.51.519,swahili,2020.2.4,Win32,60,,,,,,,,,,0.359042594,0.045530048,1,0,0,1.16444,test_pile,21,0,21,0,1,GRAPES - ZABIBU,,,,,,,,,,,,,,,,,,,,,,,,,,,,,,,,,,,,,,,,,,,,,,,,,,,,,,,,,,,,,,,,,,,,,,,,,,,,,,,,
,,,,,,,,,,1584561,2020-10-23_22h28.51.519,swahili,2020.2.4,Win32,60,,,,,,,,,,-0.373226932,-0.00631442,1,0,0,0.446945,unsorted_card,22,0,22,0,1,,,,,,,,,,,,,,,,,,,,,,,,,,,,,,,,,,,,,,,,,,,,,,,,,,,,,,,,,,,,,,,,,,,,,,,,,,,,,,,,,
,,,,,,,,,,1584561,2020-10-23_22h28.51.519,swahili,2020.2.4,Win32,60,,,,,,,,,,0.385638339,-0.427716892,1,0,0,1.88141,done_pile,23,0,23,0,1,GRAVE - KABURI,,,,,,,,,,,,,,,,,,,,,,,,,,,,,,,,,,,,,,,,,,,,,,,,,,,,,,,,,,,,,,,,,,,,,,,,,,,,,,,,
,,,,,,,,,,1584561,2020-10-23_22h28.51.519,swahili,2020.2.4,Win32,60,,,,,,,,,,-0.29787232,0.006979033,1,0,0,0.44674,unsorted_card,24,0,24,0,1,,,,,,,,,,,,,,,,,,,,,,,,,,,,,,,,,,,,,,,,,,,,,,,,,,,,,,,,,,,,,,,,,,,,,,,,,,,,,,,,,
,,,,,,,,,,1584561,2020-10-23_22h28.51.519,swahili,2020.2.4,Win32,60,,,,,,,,,,0.342198622,0.404453248,1,0,0,1.464545,study_pile,25,0,25,0,1,MANURE - SAMADI,,,,,,,,,,,,,,,,,,,,,,,,,,,,,,,,,,,,,,,,,,,,,,,,,,,,,,,,,,,,,,,,,,,,,,,,,,,,,,,,
,,,,,,,,,,1584561,2020-10-23_22h28.51.519,swahili,2020.2.4,Win32,60,,,,,,,,,,-0.343971612,-0.094051212,1,0,0,0.414325,unsorted_card,26,0,26,0,1,,,,,,,,,,,,,,,,,,,,,,,,,,,,,,,,,,,,,,,,,,,,,,,,,,,,,,,,,,,,,,,,,,,,,,,,,,,,,,,,,
,,,,,,,,,,1584561,2020-10-23_22h28.51.519,swahili,2020.2.4,Win32,60,,,,,,,,,,0.335106423,-0.00631442,1,0,0,1.248455,test_pile,27,0,27,0,1,ORPHAN - YATIMA,,,,,,,,,,,,,,,,,,,,,,,,,,,,,,,,,,,,,,,,,,,,,,,,,,,,,,,,,,,,,,,,,,,,,,,,,,,,,,,,
,,,,,,,,,,1584561,2020-10-23_22h28.51.519,swahili,2020.2.4,Win32,60,,,,,,,,,,-0.382978705,-0.095380639,1,0,0,0.530025,unsorted_card,28,0,28,0,1,,,,,,,,,,,,,,,,,,,,,,,,,,,,,,,,,,,,,,,,,,,,,,,,,,,,,,,,,,,,,,,,,,,,,,,,,,,,,,,,,
,,,,,,,,,,1584561,2020-10-23_22h28.51.519,swahili,2020.2.4,Win32,60,,,,,,,,,,0.361702168,-0.371884388,1,0,0,1.146105,done_pile,29,0,29,0,1,DIVORCE - TALAKA,,,,,,,,,,,,,,,,,,,,,,,,,,,,,,,,,,,,,,,,,,,,,,,,,,,,,,,,,,,,,,,,,,,,,,,,,,,,,,,,
,,,,,,,,,,1584561,2020-10-23_22h28.51.519,swahili,2020.2.4,Win32,60,,,,,,,,,,-0.176418361,-0.048853471,1,0,0,0.447315,unsorted_card,30,0,30,0,1,,,,,,,,,,,,,,,,,,,,,,,,,,,,,,,,,,,,,,,,,,,,,,,,,,,,,,,,,,,,,,,,,,,,,,,,,,,,,,,,,
,,,,,,,,,,1584561,2020-10-23_22h28.51.519,swahili,2020.2.4,Win32,60,,,,,,,,,,0.425531957,-0.472914633,1,0,0,0.8979,done_pile,31,0,31,0,1,BOAT - MASHUA,,,,,,,,,,,,,,,,,,,,,,,,,,,,,,,,,,,,,,,,,,,,,,,,,,,,,,,,,,,,,,,,,,,,,,,,,,,,,,,,
,,,,,,,,,,1584561,2020-10-23_22h28.51.519,swahili,2020.2.4,Win32,60,,,,,,,,,,-0.158687918,-0.082087104,1,0,0,0.74754,unsorted_card,32,0,32,0,1,,,,,,,,,,,,,,,,,,,,,,,,,,,,,,,,,,,,,,,,,,,,,,,,,,,,,,,,,,,,,,,,,,,,,,,,,,,,,,,,,
,,,,,,,,,,1584561,2020-10-23_22h28.51.519,swahili,2020.2.4,Win32,60,,,,,,,,,,0.383865398,-0.478232015,1,0,0,1.248185,done_pile,33,0,33,0,1,TREASURE - DAFINA,,,,,,,,,,,,,,,,,,,,,,,,,,,,,,,,,,,,,,,,,,,,,,,,,,,,,,,,,,,,,,,,,,,,,,,,,,,,,,,,
,,,,,,,,,,1584561,2020-10-23_22h28.51.519,swahili,2020.2.4,Win32,60,,,,,,,,,,,,,,,,,,,,,,,0.309397202,0.001661652,1,0,0,1.998955,test_first,,,,,0,0,0,0,1,,,,,,,,,,,,,,,,,,,,,,,,,,,,,,,,,,,,,,,,,,,,,,,,,,,,,,,,,,,,,,,,
,,,,,,,,,,1584561,2020-10-23_22h28.51.519,swahili,2020.2.4,Win32,60,,,,,,,,,,,,,,,,,,,,,,,,,,,,,,,,,,,,,,,return,,,,,,,,,,,0.944055,3.23228,0.320922025,0.025589868,1,0,0,0.735085,yes,MERCHANT,TAJIRI,incorrect,0,0,0,0,1,,,,,,,,,,,,,,,,,,,,,,,,,,,,,,,,,,,,
,,,,,,,,,,1584561,2020-10-23_22h28.51.519,swahili,2020.2.4,Win32,60,,,,,,,,,,,,,,,,,,,,,,,,,,,,,,,,,,,,,,,,,,,,,,,,,,,2.12901,0.305851103,0.001661652,1,0,0,1.000815,yes,ORPHAN,YATIMA,incorrect,1,0,1,0,1,,,,,,,,,,,,,,,,,,,,,,,,,,,,,,,,,,,,
,,,,,,,,,,1584561,2020-10-23_22h28.51.519,swahili,2020.2.4,Win32,60,,,,,,,,,,,,,,,,,,,,,,,,,,,,,,,,,,,,,,,,,,,,,,,,,,,6.178295,0.309397202,0.000332307,1,0,0,0.834245,yes,YEAST,HAMIRA,incorrect,2,0,2,0,1,,,,,,,,,,,,,,,,,,,,,,,,,,,,,,,,,,,,
,,,,,,,,,,1584561,2020-10-23_22h28.51.519,swahili,2020.2.4,Win32,60,,,,,,,,,,,,,,,,,,,,,,,,,,,,,,,,,,,,,,,,,,,,,,,,,,,3.1786,0.314716351,0.009637724,1,0,0,0.667475,yes,GRAPES,ZABIBU,incorrect,3,0,3,0,1,,,,,,,,,,,,,,,,,,,,,,,,,,,,,,,,,,,,
,,,,,,,,,,1584561,2020-10-23_22h28.51.519,swahili,2020.2.4,Win32,60,,,,,,,,,,,,,,,,,,,,,,,,,,,,,,,,,,,,,,,,,,,,,,,,,,,2.67963,0.312943302,0.005649688,1,0,0,1.00064,yes,OATH,YAMINI,incorrect,4,0,4,0,1,,,,,,,,,,,,,,,,,,,,,,,,,,,,,,,,,,,,
,,,,,,,,,,1584561,2020-10-23_22h28.51.519,swahili,2020.2.4,Win32,60,,,,,,,,,,,,,,,,,,,,,,,,,,,,,,,,,,,,,,,,0,0,0,0,1,,,,,,,,,,,,,,,,,,,,,,,,,,,,,,,,,,,,,,,,,,,,,,,,,,,,,,,,,,
,,,,,,,,,,1584561,2020-10-23_22h28.51.519,swahili,2020.2.4,Win32,60,,,,,,,,,,,,,,,,,,,,,,MANURE - SAMADI,,,,,,,,return,0.605805,return,3.149615,0,0,0,0,1,,,,,,,,,,,,,,,,,,,,,,,,,,,,,,,,,,,,,,,,,,,,,,,,,,,,,,,,,,,,,,,,
,,,,,,,,,,1584561,2020-10-23_22h28.51.519,swahili,2020.2.4,Win32,60,,,,,,,,,,,,,,,,,,,,,,PLATE - SAHANI,,,,,,,,,,return,16.45397,1,0,1,0,1,,,,,,,,,,,,,,,,,,,,,,,,,,,,,,,,,,,,,,,,,,,,,,,,,,,,,,,,,,,,,,,,
,,,,,,,,,,1584561,2020-10-23_22h28.51.519,swahili,2020.2.4,Win32,60,,,,,,,,,,,,,,,,,,,,,,CHEESE - JIBINI,,,,,,,,,,return,2.8162,2,0,2,0,1,,,,,,,,,,,,,,,,,,,,,,,,,,,,,,,,,,,,,,,,,,,,,,,,,,,,,,,,,,,,,,,,
,,,,,,,,,,1584561,2020-10-23_22h28.51.519,swahili,2020.2.4,Win32,60,,,,,,,,,,,,,,,,,,,,,,BULL - FAHILI,,,,,,,,,,return,6.5822,3,0,3,0,1,,,,,,,,,,,,,,,,,,,,,,,,,,,,,,,,,,,,,,,,,,,,,,,,,,,,,,,,,,,,,,,,
,,,,,,,,,,1584561,2020-10-23_22h28.51.519,swahili,2020.2.4,Win32,60,,,,,,,,,,,,,,,,,,,,,,CORN - NAFAKA,,,,,,,,,,return,2.64041,4,0,4,0,1,,,,,,,,,,,,,,,,,,,,,,,,,,,,,,,,,,,,,,,,,,,,,,,,,,,,,,,,,,,,,,,,
,,,,,,,,,,1584561,2020-10-23_22h28.51.519,swahili,2020.2.4,Win32,60,,,,,,,,,,,,,,,,,,,,,,,,,,,,,,,,,,,,,,,,1,0,1,0,1,,,,,,,,,,,,,,,,,,,,,,,,,,,,,,,,,,,,,,,,,,,,,,,,,,,,,,,,,,
,,,,,,,,,,1584561,2020-10-23_22h28.51.519,swahili,2020.2.4,Win32,60,,,,,,,,,,,,,,,,,,,,,,,,,,,,,,,,,,,,,,,,,,,,,5,0,5,0,1,,,,,,,,,,,,,,,,,,,,,,,,,,,,,,,,,,,,,,,,,,,,,,,,,,,,,
,,,,,,,,,,1584561,2020-10-23_22h28.51.519,swahili,2020.2.4,Win32,60,,,,,,,,,,-0.412234025,-0.099368675,1,0,0,1.839475,unsorted_card,0,0,0,0,1,,,,,,,,,,,,,,,,,,,,,,,,,,,,,,,,,,,,,,,,,,,,,,,,,,,,,,,,,,,,,,,,,,,,,,,,,,,,,,,,,
,,,,,,,,,,1584561,2020-10-23_22h28.51.519,swahili,2020.2.4,Win32,60,,,,,,,,,,0.632978772,-0.504818922,1,0,0,1.280115,done_pile,1,0,1,0,1,MERCHANT - TAJIRI,,,,,,,,,,,,,,,,,,,,,,,,,,,,,,,,,,,,,,,,,,,,,,,,,,,,,,,,,,,,,,,,,,,,,,,,,,,,,,,,
,,,,,,,,,,1584561,2020-10-23_22h28.51.519,swahili,2020.2.4,Win32,60,,,,,,,,,,-0.377659556,-0.080757759,1,0,0,0.61359,unsorted_card,2,0,2,0,1,,,,,,,,,,,,,,,,,,,,,,,,,,,,,,,,,,,,,,,,,,,,,,,,,,,,,,,,,,,,,,,,,,,,,,,,,,,,,,,,,
,,,,,,,,,,1584561,2020-10-23_22h28.51.519,swahili,2020.2.4,Win32,60,,,,,,,,,,0.413120718,0.046859393,1,0,0,1.447775,test_pile,3,0,3,0,1,BULL - FAHILI,,,,,,,,,,,,,,,,,,,,,,,,,,,,,,,,,,,,,,,,,,,,,,,,,,,,,,,,,,,,,,,,,,,,,,,,,,,,,,,,
,,,,,,,,,,1584561,2020-10-23_22h28.51.519,swahili,2020.2.4,Win32,60,,,,,,,,,,-0.453900693,0.03356594,1,0,0,0.446305,unsorted_card,4,0,4,0,1,,,,,,,,,,,,,,,,,,,,,,,,,,,,,,,,,,,,,,,,,,,,,,,,,,,,,,,,,,,,,,,,,,,,,,,,,,,,,,,,,
,,,,,,,,,,1584561,2020-10-23_22h28.51.519,swahili,2020.2.4,Win32,60,,,,,,,,,,0.389184547,0.048188739,1,0,0,1.36463,test_pile,5,0,5,0,1,PLATE - SAHANI,,,,,,,,,,,,,,,,,,,,,,,,,,,,,,,,,,,,,,,,,,,,,,,,,,,,,,,,,,,,,,,,,,,,,,,,,,,,,,,,
,,,,,,,,,,1584561,2020-10-23_22h28.51.519,swahili,2020.2.4,Win32,60,,,,,,,,,,-0.407801401,0.046859393,1,0,0,0.380875,unsorted_card,6,0,6,0,1,,,,,,,,,,,,,,,,,,,,,,,,,,,,,,,,,,,,,,,,,,,,,,,,,,,,,,,,,,,,,,,,,,,,,,,,,,,,,,,,,
,,,,,,,,,,1584561,2020-10-23_22h28.51.519,swahili,2020.2.4,Win32,60,,,,,,,,,,0.427305007,-0.421070165,1,0,0,3.814935,done_pile,7,0,7,0,1,YEAST - HAMIRA,,,,,,,,,,,,,,,,,,,,,,,,,,,,,,,,,,,,,,,,,,,,,,,,,,,,,,,,,,,,,,,,,,,,,,,,,,,,,,,,
,,,,,,,,,,1584561,2020-10-23_22h28.51.519,swahili,2020.2.4,Win32,60,,,,,,,,,,-0.305851043,0.002990997,1,0,0,0.461635,unsorted_card,8,0,8,0,1,,,,,,,,,,,,,,,,,,,,,,,,,,,,,,,,,,,,,,,,,,,,,,,,,,,,,,,,,,,,,,,,,,,,,,,,,,,,,,,,,
,,,,,,,,,,1584561,2020-10-23_22h28.51.519,swahili,2020.2.4,Win32,60,,,,,,,,,,0.399822845,-0.102027284,1,0,0,3.547635,test_pile,9,0,9,0,1,OATH - YAMINI,,,,,,,,,,,,,,,,,,,,,,,,,,,,,,,,,,,,,,,,,,,,,,,,,,,,,,,,,,,,,,,,,,,,,,,,,,,,,,,,
,,,,,,,,,,1584561,2020-10-23_22h28.51.519,swahili,2020.2.4,Win32,60,,,,,,,,,,-0.2650709,-0.124626155,1,0,0,0.37934,unsorted_card,10,0,10,0,1,,,,,,,,,,,,,,,,,,,,,,,,,,,,,,,,,,,,,,,,,,,,,,,,,,,,,,,,,,,,,,,,,,,,,,,,,,,,,,,,,
,,,,,,,,,,1584561,2020-10-23_22h28.51.519,swahili,2020.2.4,Win32,60,,,,,,,,,,0.436170256,-0.011631802,1,0,0,1.365205,test_pile,11,0,11,0,1,CORN - NAFAKA,,,,,,,,,,,,,,,,,,,,,,,,,,,,,,,,,,,,,,,,,,,,,,,,,,,,,,,,,,,,,,,,,,,,,,,,,,,,,,,,
,,,,,,,,,,1584561,2020-10-23_22h28.51.519,swahili,2020.2.4,Win32,60,,,,,,,,,,-0.328014164,-0.098039248,1,0,0,0.413425,unsorted_card,12,0,12,0,1,,,,,,,,,,,,,,,,,,,,,,,,,,,,,,,,,,,,,,,,,,,,,,,,,,,,,,,,,,,,,,,,,,,,,,,,,,,,,,,,,
,,,,,,,,,,1584561,2020-10-23_22h28.51.519,swahili,2020.2.4,Win32,60,,,,,,,,,,0.353723445,0.037553976,1,0,0,1.46347,test_pile,13,0,13,0,1,CHEESE - JIBINI,,,,,,,,,,,,,,,,,,,,,,,,,,,,,,,,,,,,,,,,,,,,,,,,,,,,,,,,,,,,,,,,,,,,,,,,,,,,,,,,
,,,,,,,,,,1584561,2020-10-23_22h28.51.519,swahili,2020.2.4,Win32,60,,,,,,,,,,-0.303191469,0.034895285,1,0,0,0.44709,unsorted_card,14,0,14,0,1,,,,,,,,,,,,,,,,,,,,,,,,,,,,,,,,,,,,,,,,,,,,,,,,,,,,,,,,,,,,,,,,,,,,,,,,,,,,,,,,,
,,,,,,,,,,1584561,2020-10-23_22h28.51.519,swahili,2020.2.4,Win32,60,,,,,,,,,,0.390070963,0.010967069,1,0,0,1.148375,test_pile,15,0,15,0,1,GRAPES - ZABIBU,,,,,,,,,,,,,,,,,,,,,,,,,,,,,,,,,,,,,,,,,,,,,,,,,,,,,,,,,,,,,,,,,,,,,,,,,,,,,,,,
,,,,,,,,,,1584561,2020-10-23_22h28.51.519,swahili,2020.2.4,Win32,60,,,,,,,,,,-0.184397085,-0.016949183,1,0,0,0.41371,unsorted_card,16,0,16,0,1,,,,,,,,,,,,,,,,,,,,,,,,,,,,,,,,,,,,,,,,,,,,,,,,,,,,,,,,,,,,,,,,,,,,,,,,,,,,,,,,,
,,,,,,,,,,1584561,2020-10-23_22h28.51.519,swahili,2020.2.4,Win32,60,,,,,,,,,,0.476063874,0.017613796,1,0,0,1.16473,test_pile,17,0,17,0,1,MANURE - SAMADI,,,,,,,,,,,,,,,,,,,,,,,,,,,,,,,,,,,,,,,,,,,,,,,,,,,,,,,,,,,,,,,,,,,,,,,,,,,,,,,,
,,,,,,,,,,1584561,2020-10-23_22h28.51.519,swahili,2020.2.4,Win32,60,,,,,,,,,,-0.301418365,-0.036889363,1,0,0,0.396765,unsorted_card,18,0,18,0,1,,,,,,,,,,,,,,,,,,,,,,,,,,,,,,,,,,,,,,,,,,,,,,,,,,,,,,,,,,,,,,,,,,,,,,,,,,,,,,,,,
,,,,,,,,,,1584561,2020-10-23_22h28.51.519,swahili,2020.2.4,Win32,60,,,,,,,,,,0.444148979,0.010967069,1,0,0,0.931615,test_pile,19,0,19,0,1,ORPHAN - YATIMA,,,,,,,,,,,,,,,,,,,,,,,,,,,,,,,,,,,,,,,,,,,,,,,,,,,,,,,,,,,,,,,,,,,,,,,,,,,,,,,,
,,,,,,,,,,1584561,2020-10-23_22h28.51.519,swahili,2020.2.4,Win32,60,,,,,,,,,,,,,,,,,,,,,,,,,,,,,,,,,,0,0,0,0,1,,,,,,,,,,,,,,,,,,,,,,,,,,,,,,,,,,,,,,,,,,,,,,,,,,,,,,,,,,,,,,,,
,,,,,,,,,,1584561,2020-10-23_22h28.51.519,swahili,2020.2.4,Win32,60,,,,,,,,,,,,,,,,,,,,,,,,,,,,,,,,,,,,,,,return,,,,,,,,,,,1.099845,26.582125,0.324468125,-0.111332783,1,0,0,0.867205,yes,MANURE,SAMIDI,incorrect,0,0,0,0,1,,,,,,,,,,,,,,,,,,,,,,,,,,,,,,,,,,,,
,,,,,,,,,,1584561,2020-10-23_22h28.51.519,swahili,2020.2.4,Win32,60,,,,,,,,,,,,,,,,,,,,,,,,,,,,,,,,,,,,,,,,,,,,,,,,,,,8.011015,0.331560323,-0.018278528,1,0,0,0.71722,yes,CORN,NAFAKA,incorrect,1,0,1,0,1,,,,,,,,,,,,,,,,,,,,,,,,,,,,,,,,,,,,
,,,,,,,,,,1584561,2020-10-23_22h28.51.519,swahili,2020.2.4,Win32,60,,,,,,,,,,,,,,,,,,,,,,,,,,,,,,,,,,,,,,,,,,,,,,,,,,,2.47854,0.331560323,-0.018278528,1,0,0,0.70092,yes,GRAPES,ZABIBU,incorrect,2,0,2,0,1,,,,,,,,,,,,,,,,,,,,,,,,,,,,,,,,,,,,
,,,,,,,,,,1584561,2020-10-23_22h28.51.519,swahili,2020.2.4,Win32,60,,,,,,,,,,,,,,,,,,,,,,,,,,,,,,,,,,,,,,,,,,,,,,,,,,,6.513065,0.374113516,0.041542012,1,0,0,1.150755,yes,ORPHAN,YATIMA,incorrect,3,0,3,0,1,,,,,,,,,,,,,,,,,,,,,,,,,,,,,,,,,,,,
,,,,,,,,,,1584561,2020-10-23_22h28.51.519,swahili,2020.2.4,Win32,60,,,,,,,,,,,,,,,,,,,,,,,,,,,,,,,,,,,,,,,,,,,,,,,,,,,2.812205,0.374113516,0.042871357,1,0,0,0.967565,yes,PLATE,SAHANI,incorrect,4,0,4,0,1,,,,,,,,,,,,,,,,,,,,,,,,,,,,,,,,,,,,
,,,,,,,,,,1584561,2020-10-23_22h28.51.519,swahili,2020.2.4,Win32,60,,,,,,,,,,,,,,,,,,,,,,,,,,,,,,,,,,,,,,,,,,,,,,,,,,,4.313065,0.374113516,0.044200703,1,0,0,0.71723,yes,OATH,YAMINI,incorrect,5,0,5,0,1,,,,,,,,,,,,,,,,,,,,,,,,,,,,,,,,,,,,
,,,,,,,,,,1584561,2020-10-23_22h28.51.519,swahili,2020.2.4,Win32,60,,,,,,,,,,,,,,,,,,,,,,,,,,,,,,,,,,,,,,,,,,,,,,,,,,,6.86167,0.374113516,0.044200703,1,0,0,0.66737,yes,CHEESE,YAHILI,incorrect,6,0,6,0,1,,,,,,,,,,,,,,,,,,,,,,,,,,,,,,,,,,,,
,,,,,,,,,,1584561,2020-10-23_22h28.51.519,swahili,2020.2.4,Win32,60,,,,,,,,,,,,,,,,,,,,,,,,,,,,,,,,,,,,,,,,,,,,,,,,,,,4.34805,0.374113516,0.044200703,1,0,0,0.70059,yes,BULL,YAHIDI,incorrect,7,0,7,0,1,,,,,,,,,,,,,,,,,,,,,,,,,,,,,,,,,,,,
,,,,,,,,,,1584561,2020-10-23_22h28.51.519,swahili,2020.2.4,Win32,60,,,,,,,,,,,,,,,,,,,,,,,,,,,,,,,,,,,,,,,,0,0,0,0,1,,,,,,,,,,,,,,,,,,,,,,,,,,,,,,,,,,,,,,,,,,,,,,,,,,,,,,,,,,
,,,,,,,,,,1584561,2020-10-23_22h28.51.519,swahili,2020.2.4,Win32,60,,,,,,,,,,,,,,,,,,,,,,,,,,,,,,,,,,,,,,,,1,0,1,0,1,,,,,,,,,,,,,,,,,,,,,,,,,,,,,,,,,,,,,,,,,,,,,,,,,,,,,,,,,,
,,,,,,,,,,1584561,2020-10-23_22h28.51.519,swahili,2020.2.4,Win32,60,,,,,,,,,,,,,,,,,,,,,,,,,,,,,,,,,,,,,,,,,,,,,6,0,6,0,1,,,,,,,,,,,,,,,,,,,,,,,,,,,,,,,,,,,,,,,,,,,,,,,,,,,,,
,,,,,,,,,,1584561,2020-10-23_22h28.51.519,swahili,2020.2.4,Win32,60,,,,,,,,,,-0.17553189,-0.116650083,1,0,0,1.104375,unsorted_card,0,0,0,0,1,,,,,,,,,,,,,,,,,,,,,,,,,,,,,,,,,,,,,,,,,,,,,,,,,,,,,,,,,,,,,,,,,,,,,,,,,,,,,,,,,
,,,,,,,,,,1584561,2020-10-23_22h28.51.519,swahili,2020.2.4,Win32,60,,,,,,,,,,0.406914936,0.061482192,1,0,0,1.131075,test_pile,1,0,1,0,1,BULL - FAHILI,,,,,,,,,,,,,,,,,,,,,,,,,,,,,,,,,,,,,,,,,,,,,,,,,,,,,,,,,,,,,,,,,,,,,,,,,,,,,,,,
,,,,,,,,,,1584561,2020-10-23_22h28.51.519,swahili,2020.2.4,Win32,60,,,,,,,,,,-0.414007075,-0.023595991,1,0,0,0.679865,unsorted_card,2,0,2,0,1,,,,,,,,,,,,,,,,,,,,,,,,,,,,,,,,,,,,,,,,,,,,,,,,,,,,,,,,,,,,,,,,,,,,,,,,,,,,,,,,,
,,,,,,,,,,1584561,2020-10-23_22h28.51.519,swahili,2020.2.4,Win32,60,,,,,,,,,,0.410461143,0.074775645,1,0,0,1.164405,test_pile,3,0,3,0,1,PLATE - SAHANI,,,,,,,,,,,,,,,,,,,,,,,,,,,,,,,,,,,,,,,,,,,,,,,,,,,,,,,,,,,,,,,,,,,,,,,,,,,,,,,,
,,,,,,,,,,1584561,2020-10-23_22h28.51.519,swahili,2020.2.4,Win32,60,,,,,,,,,,-0.26950347,-0.050182816,1,0,0,0.36441,unsorted_card,4,0,4,0,1,,,,,,,,,,,,,,,,,,,,,,,,,,,,,,,,,,,,,,,,,,,,,,,,,,,,,,,,,,,,,,,,,,,,,,,,,,,,,,,,,
,,,,,,,,,,1584561,2020-10-23_22h28.51.519,swahili,2020.2.4,Win32,60,,,,,,,,,,0.456560327,-0.41974082,1,0,0,2.31455,done_pile,5,0,5,0,1,OATH - YAMINI,,,,,,,,,,,,,,,,,,,,,,,,,,,,,,,,,,,,,,,,,,,,,,,,,,,,,,,,,,,,,,,,,,,,,,,,,,,,,,,,
,,,,,,,,,,1584561,2020-10-23_22h28.51.519,swahili,2020.2.4,Win32,60,,,,,,,,,,-0.169326216,-0.196410803,1,0,0,0.430835,unsorted_card,6,0,6,0,1,,,,,,,,,,,,,,,,,,,,,,,,,,,,,,,,,,,,,,,,,,,,,,,,,,,,,,,,,,,,,,,,,,,,,,,,,,,,,,,,,
,,,,,,,,,,1584561,2020-10-23_22h28.51.519,swahili,2020.2.4,Win32,60,,,,,,,,,,0.34929082,0.010967069,1,0,0,1.16444,test_pile,7,0,7,0,1,CORN - NAFAKA,,,,,,,,,,,,,,,,,,,,,,,,,,,,,,,,,,,,,,,,,,,,,,,,,,,,,,,,,,,,,,,,,,,,,,,,,,,,,,,,
,,,,,,,,,,1584561,2020-10-23_22h28.51.519,swahili,2020.2.4,Win32,60,,,,,,,,,,-0.320035441,-0.023595991,1,0,0,0.34725,unsorted_card,8,0,8,0,1,,,,,,,,,,,,,,,,,,,,,,,,,,,,,,,,,,,,,,,,,,,,,,,,,,,,,,,,,,,,,,,,,,,,,,,,,,,,,,,,,
,,,,,,,,,,1584561,2020-10-23_22h28.51.519,swahili,2020.2.4,Win32,60,,,,,,,,,,0.268617059,-0.035560099,1,0,0,0.96463,test_pile,9,0,9,0,1,CHEESE - JIBINI,,,,,,,,,,,,,,,,,,,,,,,,,,,,,,,,,,,,,,,,,,,,,,,,,,,,,,,,,,,,,,,,,,,,,,,,,,,,,,,,
,,,,,,,,,,1584561,2020-10-23_22h28.51.519,swahili,2020.2.4,Win32,60,,,,,,,,,,-0.379432606,0.018943141,1,0,0,0.447125,unsorted_card,10,0,10,0,1,,,,,,,,,,,,,,,,,,,,,,,,,,,,,,,,,,,,,,,,,,,,,,,,,,,,,,,,,,,,,,,,,,,,,,,,,,,,,,,,,
,,,,,,,,,,1584561,2020-10-23_22h28.51.519,swahili,2020.2.4,Win32,60,,,,,,,,,,0.39716327,-0.072781687,1,0,0,1.330585,test_pile,11,0,11,0,1,GRAPES - ZABIBU,,,,,,,,,,,,,,,,,,,,,,,,,,,,,,,,,,,,,,,,,,,,,,,,,,,,,,,,,,,,,,,,,,,,,,,,,,,,,,,,
,,,,,,,,,,1584561,2020-10-23_22h28.51.519,swahili,2020.2.4,Win32,60,,,,,,,,,,-0.302304944,-0.113991392,1,0,0,0.33081,unsorted_card,12,0,12,0,1,,,,,,,,,,,,,,,,,,,,,,,,,,,,,,,,,,,,,,,,,,,,,,,,,,,,,,,,,,,,,,,,,,,,,,,,,,,,,,,,,
,,,,,,,,,,1584561,2020-10-23_22h28.51.519,swahili,2020.2.4,Win32,60,,,,,,,,,,0.399822845,0.014955105,1,0,0,1.1308,test_pile,13,0,13,0,1,MANURE - SAMADI,,,,,,,,,,,,,,,,,,,,,,,,,,,,,,,,,,,,,,,,,,,,,,,,,,,,,,,,,,,,,,,,,,,,,,,,,,,,,,,,
,,,,,,,,,,1584561,2020-10-23_22h28.51.519,swahili,2020.2.4,Win32,60,,,,,,,,,,-0.233156006,-0.038218708,1,0,0,0.347615,unsorted_card,14,0,14,0,1,,,,,,,,,,,,,,,,,,,,,,,,,,,,,,,,,,,,,,,,,,,,,,,,,,,,,,,,,,,,,,,,,,,,,,,,,,,,,,,,,
,,,,,,,,,,1584561,2020-10-23_22h28.51.519,swahili,2020.2.4,Win32,60,,,,,,,,,,0.445922029,-0.417082129,1,0,0,1.081355,done_pile,15,0,15,0,1,ORPHAN - YATIMA,,,,,,,,,,,,,,,,,,,,,,,,,,,,,,,,,,,,,,,,,,,,,,,,,,,,,,,,,,,,,,,,,,,,,,,,,,,,,,,,
,,,,,,,,,,1584561,2020-10-23_22h28.51.519,swahili,2020.2.4,Win32,60,,,,,,,,,,,,,,,,,,,,,,,,,,,,,,,,,,0,0,0,0,1,,,,,,,,,,,,,,,,,,,,,,,,,,,,,,,,,,,,,,,,,,,,,,,,,,,,,,,,,,,,,,,,
,,,,,,,,,,1584561,2020-10-23_22h28.51.519,swahili,2020.2.4,Win32,60,,,,,,,,,,,,,,,,,,,,,,,,,,,,,,,,,,,,,,,return,,,,,,,,,,,1.282705,3.66551,0.419326283,-0.058158888,1,0,0,0.934025,yes,BULL,YAHILI,incorrect,0,0,0,0,1,,,,,,,,,,,,,,,,,,,,,,,,,,,,,,,,,,,,
,,,,,,,,,,1584561,2020-10-23_22h28.51.519,swahili,2020.2.4,Win32,60,,,,,,,,,,,,,,,,,,,,,,,,,,,,,,,,,,,,,,,,,,,,,,,,,,,2.26246,0.419326283,-0.058158888,1,0,0,0.700775,yes,CHEESE,NAFAKA,incorrect,1,0,1,0,1,,,,,,,,,,,,,,,,,,,,,,,,,,,,,,,,,,,,
,,,,,,,,,,1584561,2020-10-23_22h28.51.519,swahili,2020.2.4,Win32,60,,,,,,,,,,,,,,,,,,,,,,,,,,,,,,,,,,,,,,,,,,,,,,,,,,,17.695185,0.412234085,-0.074111032,1,0,0,0.91704,yes,MANURE,SAMADI,incorrect,2,0,2,0,1,,,,,,,,,,,,,,,,,,,,,,,,,,,,,,,,,,,,
,,,,,,,,,,1584561,2020-10-23_22h28.51.519,swahili,2020.2.4,Win32,60,,,,,,,,,,,,,,,,,,,,,,,,,,,,,,,,,,,,,,,,,,,,,,,,,,,3.248325,0.434397314,-0.06613496,1,0,0,0.800565,yes,GRAPES,ZABIBU,incorrect,3,0,3,0,1,,,,,,,,,,,,,,,,,,,,,,,,,,,,,,,,,,,,
,,,,,,,,,,1584561,2020-10-23_22h28.51.519,swahili,2020.2.4,Win32,60,,,,,,,,,,,,,,,,,,,,,,,,,,,,,,,,,,,,,,,,,,,,,,,,,,,2.845355,0.444148979,-0.050182816,1,0,0,0.750685,yes,CORN,ZAFAKA,incorrect,4,0,4,0,1,,,,,,,,,,,,,,,,,,,,,,,,,,,,,,,,,,,,
,,,,,,,,,,1584561,2020-10-23_22h28.51.519,swahili,2020.2.4,Win32,60,,,,,,,,,,,,,,,,,,,,,,,,,,,,,,,,,,,,,,,,,,,,,,,,,,,3.396065,0.444148979,-0.050182816,1,0,0,0.733925,yes,PLATE,SAHADI,incorrect,5,0,5,0,1,,,,,,,,,,,,,,,,,,,,,,,,,,,,,,,,,,,,
,,,,,,,,,,1584561,2020-10-23_22h28.51.519,swahili,2020.2.4,Win32,60,,,,,,,,,,,,,,,,,,,,,,,,,,,,,,,,,,,,,,,,0,0,0,0,1,,,,,,,,,,,,,,,,,,,,,,,,,,,,,,,,,,,,,,,,,,,,,,,,,,,,,,,,,,
,,,,,,,,,,1584561,2020-10-23_22h28.51.519,swahili,2020.2.4,Win32,60,,,,,,,,,,,,,,,,,,,,,,,,,,,,,,,,,,,,,,,,1,0,1,0,1,,,,,,,,,,,,,,,,,,,,,,,,,,,,,,,,,,,,,,,,,,,,,,,,,,,,,,,,,,
,,,,,,,,,,1584561,2020-10-23_22h28.51.519,swahili,2020.2.4,Win32,60,,,,,,,,,,,,,,,,,,,,,,,,,,,,,,,,,,,,,,,,,,,,,7,0,7,0,1,,,,,,,,,,,,,,,,,,,,,,,,,,,,,,,,,,,,,,,,,,,,,,,,,,,,,
,,,,,,,,,,1584561,2020-10-23_22h28.51.519,swahili,2020.2.4,Win32,60,,,,,,,,,,-0.299645369,0.004320343,1,0,0,1.305825,unsorted_card,0,0,0,0,1,,,,,,,,,,,,,,,,,,,,,,,,,,,,,,,,,,,,,,,,,,,,,,,,,,,,,,,,,,,,,,,,,,,,,,,,,,,,,,,,,
,,,,,,,,,,1584561,2020-10-23_22h28.51.519,swahili,2020.2.4,Win32,60,,,,,,,,,,0.345744721,0.049518084,1,0,0,1.33073,test_pile,1,0,1,0,1,BULL - FAHILI,,,,,,,,,,,,,,,,,,,,,,,,,,,,,,,,,,,,,,,,,,,,,,,,,,,,,,,,,,,,,,,,,,,,,,,,,,,,,,,,
,,,,,,,,,,1584561,2020-10-23_22h28.51.519,swahili,2020.2.4,Win32,60,,,,,,,,,,-0.594858117,0.036224631,1,0,0,0.380305,unsorted_card,2,0,2,0,1,,,,,,,,,,,,,,,,,,,,,,,,,,,,,,,,,,,,,,,,,,,,,,,,,,,,,,,,,,,,,,,,,,,,,,,,,,,,,,,,,
,,,,,,,,,,1584561,2020-10-23_22h28.51.519,swahili,2020.2.4,Win32,60,,,,,,,,,,0.396276637,-0.0262546,1,0,0,2.39812,test_pile,3,0,3,0,1,PLATE - SAHANI,,,,,,,,,,,,,,,,,,,,,,,,,,,,,,,,,,,,,,,,,,,,,,,,,,,,,,,,,,,,,,,,,,,,,,,,,,,,,,,,
,,,,,,,,,,1584561,2020-10-23_22h28.51.519,swahili,2020.2.4,Win32,60,,,,,,,,,,-0.317375812,-0.028913291,1,0,0,0.41329,unsorted_card,4,0,4,0,1,,,,,,,,,,,,,,,,,,,,,,,,,,,,,,,,,,,,,,,,,,,,,,,,,,,,,,,,,,,,,,,,,,,,,,,,,,,,,,,,,
,,,,,,,,,,1584561,2020-10-23_22h28.51.519,swahili,2020.2.4,Win32,60,,,,,,,,,,0.442376038,-0.421070165,1,0,0,1.648095,done_pile,5,0,5,0,1,CORN - NAFAKA,,,,,,,,,,,,,,,,,,,,,,,,,,,,,,,,,,,,,,,,,,,,,,,,,,,,,,,,,,,,,,,,,,,,,,,,,,,,,,,,
,,,,,,,,,,1584561,2020-10-23_22h28.51.519,swahili,2020.2.4,Win32,60,,,,,,,,,,-0.310283667,-0.023595991,1,0,0,0.513765,unsorted_card,6,0,6,0,1,,,,,,,,,,,,,,,,,,,,,,,,,,,,,,,,,,,,,,,,,,,,,,,,,,,,,,,,,,,,,,,,,,,,,,,,,,,,,,,,,
,,,,,,,,,,1584561,2020-10-23_22h28.51.519,swahili,2020.2.4,Win32,60,,,,,,,,,,0.439716463,-0.012961147,1,0,0,0.881495,test_pile,7,0,7,0,1,CHEESE - JIBINI,,,,,,,,,,,,,,,,,,,,,,,,,,,,,,,,,,,,,,,,,,,,,,,,,,,,,,,,,,,,,,,,,,,,,,,,,,,,,,,,
,,,,,,,,,,1584561,2020-10-23_22h28.51.519,swahili,2020.2.4,Win32,60,,,,,,,,,,-0.277482194,-0.012961147,1,0,0,0.44598,unsorted_card,8,0,8,0,1,,,,,,,,,,,,,,,,,,,,,,,,,,,,,,,,,,,,,,,,,,,,,,,,,,,,,,,,,,,,,,,,,,,,,,,,,,,,,,,,,
,,,,,,,,,,1584561,2020-10-23_22h28.51.519,swahili,2020.2.4,Win32,60,,,,,,,,,,0.462766001,-0.426387547,1,0,0,0.947485,done_pile,9,0,9,0,1,GRAPES - ZABIBU,,,,,,,,,,,,,,,,,,,,,,,,,,,,,,,,,,,,,,,,,,,,,,,,,,,,,,,,,,,,,,,,,,,,,,,,,,,,,,,,
,,,,,,,,,,1584561,2020-10-23_22h28.51.519,swahili,2020.2.4,Win32,60,,,,,,,,,,-0.332446789,-0.078099068,1,0,0,0.374135,unsorted_card,10,0,10,0,1,,,,,,,,,,,,,,,,,,,,,,,,,,,,,,,,,,,,,,,,,,,,,,,,,,,,,,,,,,,,,,,,,,,,,,,,,,,,,,,,,
,,,,,,,,,,1584561,2020-10-23_22h28.51.519,swahili,2020.2.4,Win32,60,,,,,,,,,,0.362588801,-0.040877399,1,0,0,0.897465,test_pile,11,0,11,0,1,MANURE - SAMADI,,,,,,,,,,,,,,,,,,,,,,,,,,,,,,,,,,,,,,,,,,,,,,,,,,,,,,,,,,,,,,,,,,,,,,,,,,,,,,,,
,,,,,,,,,,1584561,2020-10-23_22h28.51.519,swahili,2020.2.4,Win32,60,,,,,,,,,,,,,,,,,,,,,,,,,,,,,,,,,,0,0,0,0,1,,,,,,,,,,,,,,,,,,,,,,,,,,,,,,,,,,,,,,,,,,,,,,,,,,,,,,,,,,,,,,,,
,,,,,,,,,,1584561,2020-10-23_22h28.51.519,swahili,2020.2.4,Win32,60,,,,,,,,,,,,,,,,,,,,,,,,,,,,,,,,,,,,,,,return,,,,,,,,,,,1.25176,7.08231,0.362588801,-0.040877399,1,0,0,1.01704,yes,CHEESE,JIBINI,incorrect,0,0,0,0,1,,,,,,,,,,,,,,,,,,,,,,,,,,,,,,,,,,,,
,,,,,,,,,,1584561,2020-10-23_22h28.51.519,swahili,2020.2.4,Win32,60,,,,,,,,,,,,,,,,,,,,,,,,,,,,,,,,,,,,,,,,,,,,,,,,,,,6.395665,0.416666709,-0.047524207,1,0,0,0.63412,yes,MANURE,SAMADI,incorrect,1,0,1,0,1,,,,,,,,,,,,,,,,,,,,,,,,,,,,,,,,,,,,
