condition,consent_key.keys,consent_key.rt,done_with_instructions.keys,done_with_instructions.rt,instr_loop.thisRepN,instr_loop.thisTrialN,instr_loop.thisN,instr_loop.thisIndex,instr_loop.ran,Student ID #,date,expName,psychopyVersion,OS,frameRate,instr_learning_key.keys,instr_learning_key.rt,card_gen_loop.thisRepN,card_gen_loop.thisTrialN,card_gen_loop.thisN,card_gen_loop.thisIndex,card_gen_loop.ran,swa,eng,choose_pile.x,choose_pile.y,choose_pile.leftButton,choose_pile.midButton,choose_pile.rightButton,choose_pile.time,choose_pile.clicked_name,choices.thisRepN,choices.thisTrialN,choices.thisN,choices.thisIndex,choices.ran,card_to_show,mouse_pick.x,mouse_pick.y,mouse_pick.leftButton,mouse_pick.midButton,mouse_pick.rightButton,mouse_pick.time,mouse_pick.clicked_name,key_instr_study.keys,key_instr_study.rt,next_study.keys,next_study.rt,study_loop.thisRepN,study_loop.thisTrialN,study_loop.thisN,study_loop.thisIndex,study_loop.ran,key_instr_test.keys,learn_loop.thisRepN,learn_loop.thisTrialN,learn_loop.thisN,learn_loop.thisIndex,learn_loop.ran,trials.thisRepN,trials.thisTrialN,trials.thisN,trials.thisIndex,trials.ran,key_instr_test.rt,duration,yes_or_no.x,yes_or_no.y,yes_or_no.leftButton,yes_or_no.midButton,yes_or_no.rightButton,yes_or_no.time,yes_or_no.clicked_name,test_response.stim,test_response.resp,test_response.eval,test_loop.thisRepN,test_loop.thisTrialN,test_loop.thisN,test_loop.thisIndex,test_loop.ran,instr_movie_key.keys,instr_movie_key.rt,return_to_exp.keys,return_to_exp.rt,instr_assess_key.keys,instr_assess_key.rt,assess_loop.thisRepN,assess_loop.thisTrialN,assess_loop.thisN,assess_loop.thisIndex,assess_loop.ran,ans_gen_loop.thisRepN,ans_gen_loop.thisTrialN,ans_gen_loop.thisN,ans_gen_loop.thisIndex,ans_gen_loop.ran,sen,ans,instr_transfer_key.keys,instr_transfer_key.rt,transfer_response.resp,transfer_response.eval,select_word.x,select_word.y,select_word.leftButton,select_word.midButton,select_word.rightButton,select_word.time,select_word.clicked_name,transfers.thisRepN,transfers.thisTrialN,transfers.thisN,transfers.thisIndex,transfers.ran,end_experiment.keys,end_experiment.rt
1,return,47.22572,return,46.71274,0,0,0,0,1,00001463050,2020-10-12_16h09.10.247,swahili,2020.2.4,MacIntel,60,,,,,,,,,,,,,,,,,,,,,,,,,,,,,,,,,,,,,,,,,,,,,,,,,,,,,,,,,,,,,,,,,,,,,,,,,,,,,,,,,,,,,,,,,,,,,,,,,,,,,,
,,,,,,,,,,00001463050,2020-10-12_16h09.10.247,swahili,2020.2.4,MacIntel,60,return,31.69205,0,0,0,0,1,TAJIRI,MERCHANT,,,,,,,,,,,,,,,,,,,,,,,,,,,,,,,,,,,,,,,,,,,,,,,,,,,,,,,,,,,,,,,,,,,,,,,,,,,,,,,,,,,,,,,,,,,,,
,,,,,,,,,,00001463050,2020-10-12_16h09.10.247,swahili,2020.2.4,MacIntel,60,,,0,1,1,1,1,KASUKU,PARROT,,,,,,,,,,,,,,,,,,,,,,,,,,,,,,,,,,,,,,,,,,,,,,,,,,,,,,,,,,,,,,,,,,,,,,,,,,,,,,,,,,,,,,,,,,,,,
,,,,,,,,,,00001463050,2020-10-12_16h09.10.247,swahili,2020.2.4,MacIntel,60,,,0,2,2,2,1,FAHILI,BULL,,,,,,,,,,,,,,,,,,,,,,,,,,,,,,,,,,,,,,,,,,,,,,,,,,,,,,,,,,,,,,,,,,,,,,,,,,,,,,,,,,,,,,,,,,,,,
,,,,,,,,,,00001463050,2020-10-12_16h09.10.247,swahili,2020.2.4,MacIntel,60,,,0,3,3,3,1,SAHANI,PLATE,,,,,,,,,,,,,,,,,,,,,,,,,,,,,,,,,,,,,,,,,,,,,,,,,,,,,,,,,,,,,,,,,,,,,,,,,,,,,,,,,,,,,,,,,,,,,
,,,,,,,,,,00001463050,2020-10-12_16h09.10.247,swahili,2020.2.4,MacIntel,60,,,0,4,4,4,1,HAMIRA,YEAST,,,,,,,,,,,,,,,,,,,,,,,,,,,,,,,,,,,,,,,,,,,,,,,,,,,,,,,,,,,,,,,,,,,,,,,,,,,,,,,,,,,,,,,,,,,,,
,,,,,,,,,,00001463050,2020-10-12_16h09.10.247,swahili,2020.2.4,MacIntel,60,,,0,5,5,5,1,LAWAMA,BLAME,,,,,,,,,,,,,,,,,,,,,,,,,,,,,,,,,,,,,,,,,,,,,,,,,,,,,,,,,,,,,,,,,,,,,,,,,,,,,,,,,,,,,,,,,,,,,
,,,,,,,,,,00001463050,2020-10-12_16h09.10.247,swahili,2020.2.4,MacIntel,60,,,0,6,6,6,1,YAMINI,OATH,,,,,,,,,,,,,,,,,,,,,,,,,,,,,,,,,,,,,,,,,,,,,,,,,,,,,,,,,,,,,,,,,,,,,,,,,,,,,,,,,,,,,,,,,,,,,
,,,,,,,,,,00001463050,2020-10-12_16h09.10.247,swahili,2020.2.4,MacIntel,60,,,0,7,7,7,1,NAFAKA,CORN,,,,,,,,,,,,,,,,,,,,,,,,,,,,,,,,,,,,,,,,,,,,,,,,,,,,,,,,,,,,,,,,,,,,,,,,,,,,,,,,,,,,,,,,,,,,,
,,,,,,,,,,00001463050,2020-10-12_16h09.10.247,swahili,2020.2.4,MacIntel,60,,,0,8,8,8,1,UTENZI,POEM,,,,,,,,,,,,,,,,,,,,,,,,,,,,,,,,,,,,,,,,,,,,,,,,,,,,,,,,,,,,,,,,,,,,,,,,,,,,,,,,,,,,,,,,,,,,,
,,,,,,,,,,00001463050,2020-10-12_16h09.10.247,swahili,2020.2.4,MacIntel,60,,,0,9,9,9,1,MSHONI,TAILOR,,,,,,,,,,,,,,,,,,,,,,,,,,,,,,,,,,,,,,,,,,,,,,,,,,,,,,,,,,,,,,,,,,,,,,,,,,,,,,,,,,,,,,,,,,,,,
,,,,,,,,,,00001463050,2020-10-12_16h09.10.247,swahili,2020.2.4,MacIntel,60,,,0,10,10,10,1,JIBINI,CHEESE,,,,,,,,,,,,,,,,,,,,,,,,,,,,,,,,,,,,,,,,,,,,,,,,,,,,,,,,,,,,,,,,,,,,,,,,,,,,,,,,,,,,,,,,,,,,,
,,,,,,,,,,00001463050,2020-10-12_16h09.10.247,swahili,2020.2.4,MacIntel,60,,,0,11,11,11,1,ZABIBU,GRAPES,,,,,,,,,,,,,,,,,,,,,,,,,,,,,,,,,,,,,,,,,,,,,,,,,,,,,,,,,,,,,,,,,,,,,,,,,,,,,,,,,,,,,,,,,,,,,
,,,,,,,,,,00001463050,2020-10-12_16h09.10.247,swahili,2020.2.4,MacIntel,60,,,0,12,12,12,1,KABURI,GRAVE,,,,,,,,,,,,,,,,,,,,,,,,,,,,,,,,,,,,,,,,,,,,,,,,,,,,,,,,,,,,,,,,,,,,,,,,,,,,,,,,,,,,,,,,,,,,,
,,,,,,,,,,00001463050,2020-10-12_16h09.10.247,swahili,2020.2.4,MacIntel,60,,,0,13,13,13,1,SAMADI,MANURE,,,,,,,,,,,,,,,,,,,,,,,,,,,,,,,,,,,,,,,,,,,,,,,,,,,,,,,,,,,,,,,,,,,,,,,,,,,,,,,,,,,,,,,,,,,,,
,,,,,,,,,,00001463050,2020-10-12_16h09.10.247,swahili,2020.2.4,MacIntel,60,,,0,14,14,14,1,WAKILI,AGENT,,,,,,,,,,,,,,,,,,,,,,,,,,,,,,,,,,,,,,,,,,,,,,,,,,,,,,,,,,,,,,,,,,,,,,,,,,,,,,,,,,,,,,,,,,,,,
,,,,,,,,,,00001463050,2020-10-12_16h09.10.247,swahili,2020.2.4,MacIntel,60,,,0,15,15,15,1,RUSHWA,BRIBE,,,,,,,,,,,,,,,,,,,,,,,,,,,,,,,,,,,,,,,,,,,,,,,,,,,,,,,,,,,,,,,,,,,,,,,,,,,,,,,,,,,,,,,,,,,,,
,,,,,,,,,,00001463050,2020-10-12_16h09.10.247,swahili,2020.2.4,MacIntel,60,,,0,16,16,16,1,YATIMA,ORPHAN,,,,,,,,,,,,,,,,,,,,,,,,,,,,,,,,,,,,,,,,,,,,,,,,,,,,,,,,,,,,,,,,,,,,,,,,,,,,,,,,,,,,,,,,,,,,,
,,,,,,,,,,00001463050,2020-10-12_16h09.10.247,swahili,2020.2.4,MacIntel,60,,,0,17,17,17,1,TALAKA,DIVORCE,,,,,,,,,,,,,,,,,,,,,,,,,,,,,,,,,,,,,,,,,,,,,,,,,,,,,,,,,,,,,,,,,,,,,,,,,,,,,,,,,,,,,,,,,,,,,
,,,,,,,,,,00001463050,2020-10-12_16h09.10.247,swahili,2020.2.4,MacIntel,60,,,0,18,18,18,1,MASHUA,BOAT,,,,,,,,,,,,,,,,,,,,,,,,,,,,,,,,,,,,,,,,,,,,,,,,,,,,,,,,,,,,,,,,,,,,,,,,,,,,,,,,,,,,,,,,,,,,,
,,,,,,,,,,00001463050,2020-10-12_16h09.10.247,swahili,2020.2.4,MacIntel,60,,,0,19,19,19,1,DAFINA,TREASURE,,,,,,,,,,,,,,,,,,,,,,,,,,,,,,,,,,,,,,,,,,,,,,,,,,,,,,,,,,,,,,,,,,,,,,,,,,,,,,,,,,,,,,,,,,,,,
,,,,,,,,,,00001463050,2020-10-12_16h09.10.247,swahili,2020.2.4,MacIntel,60,,,,,,,,,,-0.240630425,0.125199653,1,0,0,6.4183,unsorted_card,0,0,0,0,1,,,,,,,,,,,,,,,,,,,,,,,,,,,,,,,,,,,,,,,,,,,,,,,,,,,,,,,,,,,,,,,,,,,,,,,,,,,,,,,,,
,,,,,,,,,,00001463050,2020-10-12_16h09.10.247,swahili,2020.2.4,MacIntel,60,,,,,,,,,,0.484863281,0.533038194,1,0,0,9.09323,study_pile,1,0,1,0,1,MERCHANT - TAJIRI,,,,,,,,,,,,,,,,,,,,,,,,,,,,,,,,,,,,,,,,,,,,,,,,,,,,,,,,,,,,,,,,,,,,,,,,,,,,,,,,
,,,,,,,,,,00001463050,2020-10-12_16h09.10.247,swahili,2020.2.4,MacIntel,60,,,,,,,,,,-0.266845703,0.076675347,1,0,0,1.12964,unsorted_card,2,0,2,0,1,,,,,,,,,,,,,,,,,,,,,,,,,,,,,,,,,,,,,,,,,,,,,,,,,,,,,,,,,,,,,,,,,,,,,,,,,,,,,,,,,
,,,,,,,,,,00001463050,2020-10-12_16h09.10.247,swahili,2020.2.4,MacIntel,60,,,,,,,,,,0.454714627,0.454722222,1,0,0,4.565755,study_pile,3,0,3,0,1,PARROT - KASUKU,,,,,,,,,,,,,,,,,,,,,,,,,,,,,,,,,,,,,,,,,,,,,,,,,,,,,,,,,,,,,,,,,,,,,,,,,,,,,,,,
,,,,,,,,,,00001463050,2020-10-12_16h09.10.247,swahili,2020.2.4,MacIntel,60,,,,,,,,,,-0.215256076,0.092135417,1,0,0,1.46414,unsorted_card,4,0,4,0,1,,,,,,,,,,,,,,,,,,,,,,,,,,,,,,,,,,,,,,,,,,,,,,,,,,,,,,,,,,,,,,,,,,,,,,,,,,,,,,,,,
,,,,,,,,,,00001463050,2020-10-12_16h09.10.247,swahili,2020.2.4,MacIntel,60,,,,,,,,,,0.476806641,0.430026042,1,0,0,3.348645,study_pile,5,0,5,0,1,BULL - FAHILI,,,,,,,,,,,,,,,,,,,,,,,,,,,,,,,,,,,,,,,,,,,,,,,,,,,,,,,,,,,,,,,,,,,,,,,,,,,,,,,,
,,,,,,,,,,00001463050,2020-10-12_16h09.10.247,swahili,2020.2.4,MacIntel,60,,,,,,,,,,-0.280615234,-0.037265625,1,0,0,0.765125,unsorted_card,6,0,6,0,1,,,,,,,,,,,,,,,,,,,,,,,,,,,,,,,,,,,,,,,,,,,,,,,,,,,,,,,,,,,,,,,,,,,,,,,,,,,,,,,,,
,,,,,,,,,,00001463050,2020-10-12_16h09.10.247,swahili,2020.2.4,MacIntel,60,,,,,,,,,,0.429991319,0.458715278,1,0,0,2.29926,study_pile,7,0,7,0,1,PLATE - SAHANI,,,,,,,,,,,,,,,,,,,,,,,,,,,,,,,,,,,,,,,,,,,,,,,,,,,,,,,,,,,,,,,,,,,,,,,,,,,,,,,,
,,,,,,,,,,00001463050,2020-10-12_16h09.10.247,swahili,2020.2.4,MacIntel,60,,,,,,,,,,-0.292051866,-0.091440972,1,0,0,0.63123,unsorted_card,8,0,8,0,1,,,,,,,,,,,,,,,,,,,,,,,,,,,,,,,,,,,,,,,,,,,,,,,,,,,,,,,,,,,,,,,,,,,,,,,,,,,,,,,,,
,,,,,,,,,,00001463050,2020-10-12_16h09.10.247,swahili,2020.2.4,MacIntel,60,,,,,,,,,,0.52874349,0.473020833,1,0,0,2.38175,study_pile,9,0,9,0,1,YEAST - HAMIRA,,,,,,,,,,,,,,,,,,,,,,,,,,,,,,,,,,,,,,,,,,,,,,,,,,,,,,,,,,,,,,,,,,,,,,,,,,,,,,,,
,,,,,,,,,,00001463050,2020-10-12_16h09.10.247,swahili,2020.2.4,MacIntel,60,,,,,,,,,,-0.319091797,0.027092014,1,0,0,0.59968,unsorted_card,10,0,10,0,1,,,,,,,,,,,,,,,,,,,,,,,,,,,,,,,,,,,,,,,,,,,,,,,,,,,,,,,,,,,,,,,,,,,,,,,,,,,,,,,,,
,,,,,,,,,,00001463050,2020-10-12_16h09.10.247,swahili,2020.2.4,MacIntel,60,,,,,,,,,,0.418722873,0.457847222,1,0,0,2.448085,study_pile,11,0,11,0,1,BLAME - LAWAMA,,,,,,,,,,,,,,,,,,,,,,,,,,,,,,,,,,,,,,,,,,,,,,,,,,,,,,,,,,,,,,,,,,,,,,,,,,,,,,,,
,,,,,,,,,,00001463050,2020-10-12_16h09.10.247,swahili,2020.2.4,MacIntel,60,,,,,,,,,,-0.448301866,-0.028923611,1,0,0,0.68166,unsorted_card,12,0,12,0,1,,,,,,,,,,,,,,,,,,,,,,,,,,,,,,,,,,,,,,,,,,,,,,,,,,,,,,,,,,,,,,,,,,,,,,,,,,,,,,,,,
,,,,,,,,,,00001463050,2020-10-12_16h09.10.247,swahili,2020.2.4,MacIntel,60,,,,,,,,,,0.461724175,0.517456597,1,0,0,2.582275,study_pile,13,0,13,0,1,OATH - YAMINI,,,,,,,,,,,,,,,,,,,,,,,,,,,,,,,,,,,,,,,,,,,,,,,,,,,,,,,,,,,,,,,,,,,,,,,,,,,,,,,,
,,,,,,,,,,00001463050,2020-10-12_16h09.10.247,swahili,2020.2.4,MacIntel,60,,,,,,,,,,-0.248925781,0.081970486,1,0,0,0.713405,unsorted_card,14,0,14,0,1,,,,,,,,,,,,,,,,,,,,,,,,,,,,,,,,,,,,,,,,,,,,,,,,,,,,,,,,,,,,,,,,,,,,,,,,,,,,,,,,,
,,,,,,,,,,00001463050,2020-10-12_16h09.10.247,swahili,2020.2.4,MacIntel,60,,,,,,,,,,0.421039497,0.456927083,1,0,0,3.60083,study_pile,15,0,15,0,1,CORN - NAFAKA,,,,,,,,,,,,,,,,,,,,,,,,,,,,,,,,,,,,,,,,,,,,,,,,,,,,,,,,,,,,,,,,,,,,,,,,,,,,,,,,
,,,,,,,,,,00001463050,2020-10-12_16h09.10.247,swahili,2020.2.4,MacIntel,60,,,,,,,,,,-0.366037326,0.047430556,1,0,0,0.69745,unsorted_card,16,0,16,0,1,,,,,,,,,,,,,,,,,,,,,,,,,,,,,,,,,,,,,,,,,,,,,,,,,,,,,,,,,,,,,,,,,,,,,,,,,,,,,,,,,
,,,,,,,,,,00001463050,2020-10-12_16h09.10.247,swahili,2020.2.4,MacIntel,60,,,,,,,,,,0.524934896,0.453602431,1,0,0,4.98186,study_pile,17,0,17,0,1,POEM - UTENZI,,,,,,,,,,,,,,,,,,,,,,,,,,,,,,,,,,,,,,,,,,,,,,,,,,,,,,,,,,,,,,,,,,,,,,,,,,,,,,,,
,,,,,,,,,,00001463050,2020-10-12_16h09.10.247,swahili,2020.2.4,MacIntel,60,,,,,,,,,,-0.106825087,0.060980903,1,0,0,0.864855,unsorted_card,18,0,18,0,1,,,,,,,,,,,,,,,,,,,,,,,,,,,,,,,,,,,,,,,,,,,,,,,,,,,,,,,,,,,,,,,,,,,,,,,,,,,,,,,,,
,,,,,,,,,,00001463050,2020-10-12_16h09.10.247,swahili,2020.2.4,MacIntel,60,,,,,,,,,,0.479047309,0.435946181,1,0,0,4.66506,study_pile,19,0,19,0,1,TAILOR - MSHONI,,,,,,,,,,,,,,,,,,,,,,,,,,,,,,,,,,,,,,,,,,,,,,,,,,,,,,,,,,,,,,,,,,,,,,,,,,,,,,,,
,,,,,,,,,,00001463050,2020-10-12_16h09.10.247,swahili,2020.2.4,MacIntel,60,,,,,,,,,,-0.246815321,0.042743056,1,0,0,0.649335,unsorted_card,20,0,20,0,1,,,,,,,,,,,,,,,,,,,,,,,,,,,,,,,,,,,,,,,,,,,,,,,,,,,,,,,,,,,,,,,,,,,,,,,,,,,,,,,,,
,,,,,,,,,,00001463050,2020-10-12_16h09.10.247,swahili,2020.2.4,MacIntel,60,,,,,,,,,,0.392762587,0.476206597,1,0,0,2.93281,study_pile,21,0,21,0,1,CHEESE - JIBINI,,,,,,,,,,,,,,,,,,,,,,,,,,,,,,,,,,,,,,,,,,,,,,,,,,,,,,,,,,,,,,,,,,,,,,,,,,,,,,,,
,,,,,,,,,,00001463050,2020-10-12_16h09.10.247,swahili,2020.2.4,MacIntel,60,,,,,,,,,,-0.22976888,0.014461806,1,0,0,0.631975,unsorted_card,22,0,22,0,1,,,,,,,,,,,,,,,,,,,,,,,,,,,,,,,,,,,,,,,,,,,,,,,,,,,,,,,,,,,,,,,,,,,,,,,,,,,,,,,,,
,,,,,,,,,,00001463050,2020-10-12_16h09.10.247,swahili,2020.2.4,MacIntel,60,,,,,,,,,,0.371148003,0.428697917,1,0,0,3.399255,study_pile,23,0,23,0,1,GRAPES - ZABIBU,,,,,,,,,,,,,,,,,,,,,,,,,,,,,,,,,,,,,,,,,,,,,,,,,,,,,,,,,,,,,,,,,,,,,,,,,,,,,,,,
,,,,,,,,,,00001463050,2020-10-12_16h09.10.247,swahili,2020.2.4,MacIntel,60,,,,,,,,,,-0.23678928,0.063289931,1,0,0,0.64837,unsorted_card,24,0,24,0,1,,,,,,,,,,,,,,,,,,,,,,,,,,,,,,,,,,,,,,,,,,,,,,,,,,,,,,,,,,,,,,,,,,,,,,,,,,,,,,,,,
,,,,,,,,,,00001463050,2020-10-12_16h09.10.247,swahili,2020.2.4,MacIntel,60,,,,,,,,,,0.491482205,0.476866319,1,0,0,3.13182,study_pile,25,0,25,0,1,GRAVE - KABURI,,,,,,,,,,,,,,,,,,,,,,,,,,,,,,,,,,,,,,,,,,,,,,,,,,,,,,,,,,,,,,,,,,,,,,,,,,,,,,,,
,,,,,,,,,,00001463050,2020-10-12_16h09.10.247,swahili,2020.2.4,MacIntel,60,,,,,,,,,,-0.204817708,0.104800347,1,0,0,0.69939,unsorted_card,26,0,26,0,1,,,,,,,,,,,,,,,,,,,,,,,,,,,,,,,,,,,,,,,,,,,,,,,,,,,,,,,,,,,,,,,,,,,,,,,,,,,,,,,,,
,,,,,,,,,,00001463050,2020-10-12_16h09.10.247,swahili,2020.2.4,MacIntel,60,,,,,,,,,,0.447298177,0.401770833,1,0,0,3.56431,study_pile,27,0,27,0,1,MANURE - SAMADI,,,,,,,,,,,,,,,,,,,,,,,,,,,,,,,,,,,,,,,,,,,,,,,,,,,,,,,,,,,,,,,,,,,,,,,,,,,,,,,,
,,,,,,,,,,00001463050,2020-10-12_16h09.10.247,swahili,2020.2.4,MacIntel,60,,,,,,,,,,-0.226009115,0.038923611,1,0,0,0.848795,unsorted_card,28,0,28,0,1,,,,,,,,,,,,,,,,,,,,,,,,,,,,,,,,,,,,,,,,,,,,,,,,,,,,,,,,,,,,,,,,,,,,,,,,,,,,,,,,,
,,,,,,,,,,00001463050,2020-10-12_16h09.10.247,swahili,2020.2.4,MacIntel,60,,,,,,,,,,0.363970269,0.488411458,1,0,0,4.21632,study_pile,29,0,29,0,1,AGENT - WAKILI,,,,,,,,,,,,,,,,,,,,,,,,,,,,,,,,,,,,,,,,,,,,,,,,,,,,,,,,,,,,,,,,,,,,,,,,,,,,,,,,
,,,,,,,,,,00001463050,2020-10-12_16h09.10.247,swahili,2020.2.4,MacIntel,60,,,,,,,,,,-0.147336155,0.095564236,1,0,0,0.814635,unsorted_card,30,0,30,0,1,,,,,,,,,,,,,,,,,,,,,,,,,,,,,,,,,,,,,,,,,,,,,,,,,,,,,,,,,,,,,,,,,,,,,,,,,,,,,,,,,
,,,,,,,,,,00001463050,2020-10-12_16h09.10.247,swahili,2020.2.4,MacIntel,60,,,,,,,,,,0.429692925,0.430850694,1,0,0,3.68313,study_pile,31,0,31,0,1,BRIBE - RUSHWA,,,,,,,,,,,,,,,,,,,,,,,,,,,,,,,,,,,,,,,,,,,,,,,,,,,,,,,,,,,,,,,,,,,,,,,,,,,,,,,,
,,,,,,,,,,00001463050,2020-10-12_16h09.10.247,swahili,2020.2.4,MacIntel,60,,,,,,,,,,-0.220849609,0.112578125,1,0,0,0.67972,unsorted_card,32,0,32,0,1,,,,,,,,,,,,,,,,,,,,,,,,,,,,,,,,,,,,,,,,,,,,,,,,,,,,,,,,,,,,,,,,,,,,,,,,,,,,,,,,,
,,,,,,,,,,00001463050,2020-10-12_16h09.10.247,swahili,2020.2.4,MacIntel,60,,,,,,,,,,0.415261502,0.440295139,1,0,0,3.149405,study_pile,33,0,33,0,1,ORPHAN - YATIMA,,,,,,,,,,,,,,,,,,,,,,,,,,,,,,,,,,,,,,,,,,,,,,,,,,,,,,,,,,,,,,,,,,,,,,,,,,,,,,,,
,,,,,,,,,,00001463050,2020-10-12_16h09.10.247,swahili,2020.2.4,MacIntel,60,,,,,,,,,,-0.203347439,0.060789931,1,0,0,0.631525,unsorted_card,34,0,34,0,1,,,,,,,,,,,,,,,,,,,,,,,,,,,,,,,,,,,,,,,,,,,,,,,,,,,,,,,,,,,,,,,,,,,,,,,,,,,,,,,,,
,,,,,,,,,,00001463050,2020-10-12_16h09.10.247,swahili,2020.2.4,MacIntel,60,,,,,,,,,,0.358582899,0.399314236,1,0,0,3.112635,study_pile,35,0,35,0,1,DIVORCE - TALAKA,,,,,,,,,,,,,,,,,,,,,,,,,,,,,,,,,,,,,,,,,,,,,,,,,,,,,,,,,,,,,,,,,,,,,,,,,,,,,,,,
,,,,,,,,,,00001463050,2020-10-12_16h09.10.247,swahili,2020.2.4,MacIntel,60,,,,,,,,,,-0.24718967,0.070625,1,0,0,0.59771,unsorted_card,36,0,36,0,1,,,,,,,,,,,,,,,,,,,,,,,,,,,,,,,,,,,,,,,,,,,,,,,,,,,,,,,,,,,,,,,,,,,,,,,,,,,,,,,,,
,,,,,,,,,,00001463050,2020-10-12_16h09.10.247,swahili,2020.2.4,MacIntel,60,,,,,,,,,,0.413840061,0.427109375,1,0,0,3.498905,study_pile,37,0,37,0,1,BOAT - MASHUA,,,,,,,,,,,,,,,,,,,,,,,,,,,,,,,,,,,,,,,,,,,,,,,,,,,,,,,,,,,,,,,,,,,,,,,,,,,,,,,,
,,,,,,,,,,00001463050,2020-10-12_16h09.10.247,swahili,2020.2.4,MacIntel,60,,,,,,,,,,-0.282128906,0.011571181,1,0,0,0.514325,unsorted_card,38,0,38,0,1,,,,,,,,,,,,,,,,,,,,,,,,,,,,,,,,,,,,,,,,,,,,,,,,,,,,,,,,,,,,,,,,,,,,,,,,,,,,,,,,,
,,,,,,,,,,00001463050,2020-10-12_16h09.10.247,swahili,2020.2.4,MacIntel,60,,,,,,,,,,0.394878472,0.462196181,1,0,0,2.33275,study_pile,39,0,39,0,1,TREASURE - DAFINA,,,,,,,,,,,,,,,,,,,,,,,,,,,,,,,,,,,,,,,,,,,,,,,,,,,,,,,,,,,,,,,,,,,,,,,,,,,,,,,,
,,,,,,,,,,00001463050,2020-10-12_16h09.10.247,swahili,2020.2.4,MacIntel,60,,,,,,,,,,,,,,,,,,,,,,AGENT - WAKILI,,,,,,,,return,6.361665,return,5.882635,0,0,0,0,1,,,,,,,,,,,,,,,,,,,,,,,,,,,,,,,,,,,,,,,,,,,,,,,,,,,,,,,,,,,,,,,,
,,,,,,,,,,00001463050,2020-10-12_16h09.10.247,swahili,2020.2.4,MacIntel,60,,,,,,,,,,,,,,,,,,,,,,CORN - NAFAKA,,,,,,,,,,return,2.849135,1,0,1,0,1,,,,,,,,,,,,,,,,,,,,,,,,,,,,,,,,,,,,,,,,,,,,,,,,,,,,,,,,,,,,,,,,
,,,,,,,,,,00001463050,2020-10-12_16h09.10.247,swahili,2020.2.4,MacIntel,60,,,,,,,,,,,,,,,,,,,,,,CHEESE - JIBINI,,,,,,,,,,return,2.647565,2,0,2,0,1,,,,,,,,,,,,,,,,,,,,,,,,,,,,,,,,,,,,,,,,,,,,,,,,,,,,,,,,,,,,,,,,
,,,,,,,,,,00001463050,2020-10-12_16h09.10.247,swahili,2020.2.4,MacIntel,60,,,,,,,,,,,,,,,,,,,,,,GRAPES - ZABIBU,,,,,,,,,,return,2.681275,3,0,3,0,1,,,,,,,,,,,,,,,,,,,,,,,,,,,,,,,,,,,,,,,,,,,,,,,,,,,,,,,,,,,,,,,,
,,,,,,,,,,00001463050,2020-10-12_16h09.10.247,swahili,2020.2.4,MacIntel,60,,,,,,,,,,,,,,,,,,,,,,POEM - UTENZI,,,,,,,,,,return,2.89787,4,0,4,0,1,,,,,,,,,,,,,,,,,,,,,,,,,,,,,,,,,,,,,,,,,,,,,,,,,,,,,,,,,,,,,,,,
,,,,,,,,,,00001463050,2020-10-12_16h09.10.247,swahili,2020.2.4,MacIntel,60,,,,,,,,,,,,,,,,,,,,,,PARROT - KASUKU,,,,,,,,,,return,2.887445,5,0,5,0,1,,,,,,,,,,,,,,,,,,,,,,,,,,,,,,,,,,,,,,,,,,,,,,,,,,,,,,,,,,,,,,,,
,,,,,,,,,,00001463050,2020-10-12_16h09.10.247,swahili,2020.2.4,MacIntel,60,,,,,,,,,,,,,,,,,,,,,,ORPHAN - YATIMA,,,,,,,,,,return,5.38485,6,0,6,0,1,,,,,,,,,,,,,,,,,,,,,,,,,,,,,,,,,,,,,,,,,,,,,,,,,,,,,,,,,,,,,,,,
,,,,,,,,,,00001463050,2020-10-12_16h09.10.247,swahili,2020.2.4,MacIntel,60,,,,,,,,,,,,,,,,,,,,,,DIVORCE - TALAKA,,,,,,,,,,return,2.31552,7,0,7,0,1,,,,,,,,,,,,,,,,,,,,,,,,,,,,,,,,,,,,,,,,,,,,,,,,,,,,,,,,,,,,,,,,
,,,,,,,,,,00001463050,2020-10-12_16h09.10.247,swahili,2020.2.4,MacIntel,60,,,,,,,,,,,,,,,,,,,,,,MANURE - SAMADI,,,,,,,,,,return,2.53707,8,0,8,0,1,,,,,,,,,,,,,,,,,,,,,,,,,,,,,,,,,,,,,,,,,,,,,,,,,,,,,,,,,,,,,,,,
,,,,,,,,,,00001463050,2020-10-12_16h09.10.247,swahili,2020.2.4,MacIntel,60,,,,,,,,,,,,,,,,,,,,,,OATH - YAMINI,,,,,,,,,,return,2.16338,9,0,9,0,1,,,,,,,,,,,,,,,,,,,,,,,,,,,,,,,,,,,,,,,,,,,,,,,,,,,,,,,,,,,,,,,,
,,,,,,,,,,00001463050,2020-10-12_16h09.10.247,swahili,2020.2.4,MacIntel,60,,,,,,,,,,,,,,,,,,,,,,PLATE - SAHANI,,,,,,,,,,return,2.333785,10,0,10,0,1,,,,,,,,,,,,,,,,,,,,,,,,,,,,,,,,,,,,,,,,,,,,,,,,,,,,,,,,,,,,,,,,
,,,,,,,,,,00001463050,2020-10-12_16h09.10.247,swahili,2020.2.4,MacIntel,60,,,,,,,,,,,,,,,,,,,,,,BLAME - LAWAMA,,,,,,,,,,return,2.44859,11,0,11,0,1,,,,,,,,,,,,,,,,,,,,,,,,,,,,,,,,,,,,,,,,,,,,,,,,,,,,,,,,,,,,,,,,
,,,,,,,,,,00001463050,2020-10-12_16h09.10.247,swahili,2020.2.4,MacIntel,60,,,,,,,,,,,,,,,,,,,,,,TAILOR - MSHONI,,,,,,,,,,return,4.380865,12,0,12,0,1,,,,,,,,,,,,,,,,,,,,,,,,,,,,,,,,,,,,,,,,,,,,,,,,,,,,,,,,,,,,,,,,
,,,,,,,,,,00001463050,2020-10-12_16h09.10.247,swahili,2020.2.4,MacIntel,60,,,,,,,,,,,,,,,,,,,,,,BOAT - MASHUA,,,,,,,,,,return,2.468265,13,0,13,0,1,,,,,,,,,,,,,,,,,,,,,,,,,,,,,,,,,,,,,,,,,,,,,,,,,,,,,,,,,,,,,,,,
,,,,,,,,,,00001463050,2020-10-12_16h09.10.247,swahili,2020.2.4,MacIntel,60,,,,,,,,,,,,,,,,,,,,,,TREASURE - DAFINA,,,,,,,,,,return,2.61773,14,0,14,0,1,,,,,,,,,,,,,,,,,,,,,,,,,,,,,,,,,,,,,,,,,,,,,,,,,,,,,,,,,,,,,,,,
,,,,,,,,,,00001463050,2020-10-12_16h09.10.247,swahili,2020.2.4,MacIntel,60,,,,,,,,,,,,,,,,,,,,,,YEAST - HAMIRA,,,,,,,,,,return,1.963765,15,0,15,0,1,,,,,,,,,,,,,,,,,,,,,,,,,,,,,,,,,,,,,,,,,,,,,,,,,,,,,,,,,,,,,,,,
,,,,,,,,,,00001463050,2020-10-12_16h09.10.247,swahili,2020.2.4,MacIntel,60,,,,,,,,,,,,,,,,,,,,,,BRIBE - RUSHWA,,,,,,,,,,return,2.465785,16,0,16,0,1,,,,,,,,,,,,,,,,,,,,,,,,,,,,,,,,,,,,,,,,,,,,,,,,,,,,,,,,,,,,,,,,
,,,,,,,,,,00001463050,2020-10-12_16h09.10.247,swahili,2020.2.4,MacIntel,60,,,,,,,,,,,,,,,,,,,,,,MERCHANT - TAJIRI,,,,,,,,,,return,2.31827,17,0,17,0,1,,,,,,,,,,,,,,,,,,,,,,,,,,,,,,,,,,,,,,,,,,,,,,,,,,,,,,,,,,,,,,,,
,,,,,,,,,,00001463050,2020-10-12_16h09.10.247,swahili,2020.2.4,MacIntel,60,,,,,,,,,,,,,,,,,,,,,,BULL - FAHILI,,,,,,,,,,return,2.7138,18,0,18,0,1,,,,,,,,,,,,,,,,,,,,,,,,,,,,,,,,,,,,,,,,,,,,,,,,,,,,,,,,,,,,,,,,
,,,,,,,,,,00001463050,2020-10-12_16h09.10.247,swahili,2020.2.4,MacIntel,60,,,,,,,,,,,,,,,,,,,,,,GRAVE - KABURI,,,,,,,,,,return,3.300515,19,0,19,0,1,,,,,,,,,,,,,,,,,,,,,,,,,,,,,,,,,,,,,,,,,,,,,,,,,,,,,,,,,,,,,,,,
,,,,,,,,,,00001463050,2020-10-12_16h09.10.247,swahili,2020.2.4,MacIntel,60,,,,,,,,,,,,,,,,,,,,,,,,,,,,,,,,,,,,,,,,0,0,0,0,1,,,,,,,,,,,,,,,,,,,,,,,,,,,,,,,,,,,,,,,,,,,,,,,,,,,,,,,,,,
,,,,,,,,,,00001463050,2020-10-12_16h09.10.247,swahili,2020.2.4,MacIntel,60,,,,,,,,,,,,,,,,,,,,,,,,,,,,,,,,,,,,,,,,1,0,1,0,1,,,,,,,,,,,,,,,,,,,,,,,,,,,,,,,,,,,,,,,,,,,,,,,,,,,,,,,,,,
,,,,,,,,,,00001463050,2020-10-12_16h09.10.247,swahili,2020.2.4,MacIntel,60,,,,,,,,,,,,,,,,,,,,,,,,,,,,,,,,,,,,,,,,,,,,,0,0,0,0,1,,,,,,,,,,,,,,,,,,,,,,,,,,,,,,,,,,,,,,,,,,,,,,,,,,,,,
,,,,,,,,,,00001463050,2020-10-12_16h09.10.247,swahili,2020.2.4,MacIntel,60,,,,,,,,,,-0.307324219,0.070963542,1,0,0,5.08731,unsorted_card,0,0,0,0,1,,,,,,,,,,,,,,,,,,,,,,,,,,,,,,,,,,,,,,,,,,,,,,,,,,,,,,,,,,,,,,,,,,,,,,,,,,,,,,,,,
,,,,,,,,,,00001463050,2020-10-12_16h09.10.247,swahili,2020.2.4,MacIntel,60,,,,,,,,,,0.407850477,0.061076389,1,0,0,3.61411,test_pile,1,0,1,0,1,MERCHANT - TAJIRI,,,,,,,,,,,,,,,,,,,,,,,,,,,,,,,,,,,,,,,,,,,,,,,,,,,,,,,,,,,,,,,,,,,,,,,,,,,,,,,,
,,,,,,,,,,00001463050,2020-10-12_16h09.10.247,swahili,2020.2.4,MacIntel,60,,,,,,,,,,-0.226893446,0.018315972,1,0,0,0.798895,unsorted_card,2,0,2,0,1,,,,,,,,,,,,,,,,,,,,,,,,,,,,,,,,,,,,,,,,,,,,,,,,,,,,,,,,,,,,,,,,,,,,,,,,,,,,,,,,,
,,,,,,,,,,00001463050,2020-10-12_16h09.10.247,swahili,2020.2.4,MacIntel,60,,,,,,,,,,0.390614149,0.012534722,1,0,0,4.01569,test_pile,3,0,3,0,1,PARROT - KASUKU,,,,,,,,,,,,,,,,,,,,,,,,,,,,,,,,,,,,,,,,,,,,,,,,,,,,,,,,,,,,,,,,,,,,,,,,,,,,,,,,
,,,,,,,,,,00001463050,2020-10-12_16h09.10.247,swahili,2020.2.4,MacIntel,60,,,,,,,,,,-0.206863064,-0.036857639,1,0,0,0.71462,unsorted_card,4,0,4,0,1,,,,,,,,,,,,,,,,,,,,,,,,,,,,,,,,,,,,,,,,,,,,,,,,,,,,,,,,,,,,,,,,,,,,,,,,,,,,,,,,,
,,,,,,,,,,00001463050,2020-10-12_16h09.10.247,swahili,2020.2.4,MacIntel,60,,,,,,,,,,0.388080512,0.063871528,1,0,0,2.830955,test_pile,5,0,5,0,1,BULL - FAHILI,,,,,,,,,,,,,,,,,,,,,,,,,,,,,,,,,,,,,,,,,,,,,,,,,,,,,,,,,,,,,,,,,,,,,,,,,,,,,,,,
,,,,,,,,,,00001463050,2020-10-12_16h09.10.247,swahili,2020.2.4,MacIntel,60,,,,,,,,,,-0.207562934,-0.001770833,1,0,0,0.916505,unsorted_card,6,0,6,0,1,,,,,,,,,,,,,,,,,,,,,,,,,,,,,,,,,,,,,,,,,,,,,,,,,,,,,,,,,,,,,,,,,,,,,,,,,,,,,,,,,
,,,,,,,,,,00001463050,2020-10-12_16h09.10.247,swahili,2020.2.4,MacIntel,60,,,,,,,,,,0.443375651,-0.012569444,1,0,0,2.84867,test_pile,7,0,7,0,1,PLATE - SAHANI,,,,,,,,,,,,,,,,,,,,,,,,,,,,,,,,,,,,,,,,,,,,,,,,,,,,,,,,,,,,,,,,,,,,,,,,,,,,,,,,
,,,,,,,,,,00001463050,2020-10-12_16h09.10.247,swahili,2020.2.4,MacIntel,60,,,,,,,,,,-0.174983724,-0.036901042,1,0,0,0.79571,unsorted_card,8,0,8,0,1,,,,,,,,,,,,,,,,,,,,,,,,,,,,,,,,,,,,,,,,,,,,,,,,,,,,,,,,,,,,,,,,,,,,,,,,,,,,,,,,,
,,,,,,,,,,00001463050,2020-10-12_16h09.10.247,swahili,2020.2.4,MacIntel,60,,,,,,,,,,0.364089627,-0.067534722,1,0,0,2.28335,test_pile,9,0,9,0,1,YEAST - HAMIRA,,,,,,,,,,,,,,,,,,,,,,,,,,,,,,,,,,,,,,,,,,,,,,,,,,,,,,,,,,,,,,,,,,,,,,,,,,,,,,,,
,,,,,,,,,,00001463050,2020-10-12_16h09.10.247,swahili,2020.2.4,MacIntel,60,,,,,,,,,,-0.208528646,-0.052621528,1,0,0,0.614245,unsorted_card,10,0,10,0,1,,,,,,,,,,,,,,,,,,,,,,,,,,,,,,,,,,,,,,,,,,,,,,,,,,,,,,,,,,,,,,,,,,,,,,,,,,,,,,,,,
,,,,,,,,,,00001463050,2020-10-12_16h09.10.247,swahili,2020.2.4,MacIntel,60,,,,,,,,,,0.415397135,0.014053819,1,0,0,2.2991,test_pile,11,0,11,0,1,BLAME - LAWAMA,,,,,,,,,,,,,,,,,,,,,,,,,,,,,,,,,,,,,,,,,,,,,,,,,,,,,,,,,,,,,,,,,,,,,,,,,,,,,,,,
,,,,,,,,,,00001463050,2020-10-12_16h09.10.247,swahili,2020.2.4,MacIntel,60,,,,,,,,,,-0.146777344,-0.028038194,1,0,0,0.616415,unsorted_card,12,0,12,0,1,,,,,,,,,,,,,,,,,,,,,,,,,,,,,,,,,,,,,,,,,,,,,,,,,,,,,,,,,,,,,,,,,,,,,,,,,,,,,,,,,
,,,,,,,,,,00001463050,2020-10-12_16h09.10.247,swahili,2020.2.4,MacIntel,60,,,,,,,,,,0.420138889,-0.009774306,1,0,0,1.99929,test_pile,13,0,13,0,1,OATH - YAMINI,,,,,,,,,,,,,,,,,,,,,,,,,,,,,,,,,,,,,,,,,,,,,,,,,,,,,,,,,,,,,,,,,,,,,,,,,,,,,,,,
,,,,,,,,,,00001463050,2020-10-12_16h09.10.247,swahili,2020.2.4,MacIntel,60,,,,,,,,,,-0.108870443,-0.032960069,1,0,0,0.69759,unsorted_card,14,0,14,0,1,,,,,,,,,,,,,,,,,,,,,,,,,,,,,,,,,,,,,,,,,,,,,,,,,,,,,,,,,,,,,,,,,,,,,,,,,,,,,,,,,
,,,,,,,,,,00001463050,2020-10-12_16h09.10.247,swahili,2020.2.4,MacIntel,60,,,,,,,,,,0.419053819,0.025112847,1,0,0,2.450095,test_pile,15,0,15,0,1,CORN - NAFAKA,,,,,,,,,,,,,,,,,,,,,,,,,,,,,,,,,,,,,,,,,,,,,,,,,,,,,,,,,,,,,,,,,,,,,,,,,,,,,,,,
,,,,,,,,,,00001463050,2020-10-12_16h09.10.247,swahili,2020.2.4,MacIntel,60,,,,,,,,,,-0.289756944,0.006918403,1,0,0,0.530695,unsorted_card,16,0,16,0,1,,,,,,,,,,,,,,,,,,,,,,,,,,,,,,,,,,,,,,,,,,,,,,,,,,,,,,,,,,,,,,,,,,,,,,,,,,,,,,,,,
,,,,,,,,,,00001463050,2020-10-12_16h09.10.247,swahili,2020.2.4,MacIntel,60,,,,,,,,,,0.38452691,0.010755208,1,0,0,2.36653,test_pile,17,0,17,0,1,POEM - UTENZI,,,,,,,,,,,,,,,,,,,,,,,,,,,,,,,,,,,,,,,,,,,,,,,,,,,,,,,,,,,,,,,,,,,,,,,,,,,,,,,,
,,,,,,,,,,00001463050,2020-10-12_16h09.10.247,swahili,2020.2.4,MacIntel,60,,,,,,,,,,-0.198578559,-0.017161458,1,0,0,0.66486,unsorted_card,18,0,18,0,1,,,,,,,,,,,,,,,,,,,,,,,,,,,,,,,,,,,,,,,,,,,,,,,,,,,,,,,,,,,,,,,,,,,,,,,,,,,,,,,,,
,,,,,,,,,,00001463050,2020-10-12_16h09.10.247,swahili,2020.2.4,MacIntel,60,,,,,,,,,,0.441867405,-0.001215278,1,0,0,2.214105,test_pile,19,0,19,0,1,TAILOR - MSHONI,,,,,,,,,,,,,,,,,,,,,,,,,,,,,,,,,,,,,,,,,,,,,,,,,,,,,,,,,,,,,,,,,,,,,,,,,,,,,,,,
,,,,,,,,,,00001463050,2020-10-12_16h09.10.247,swahili,2020.2.4,MacIntel,60,,,,,,,,,,-0.237679036,-0.062135417,1,0,0,0.632315,unsorted_card,20,0,20,0,1,,,,,,,,,,,,,,,,,,,,,,,,,,,,,,,,,,,,,,,,,,,,,,,,,,,,,,,,,,,,,,,,,,,,,,,,,,,,,,,,,
,,,,,,,,,,00001463050,2020-10-12_16h09.10.247,swahili,2020.2.4,MacIntel,60,,,,,,,,,,0.386886936,-0.031180556,1,0,0,2.48354,test_pile,21,0,21,0,1,CHEESE - JIBINI,,,,,,,,,,,,,,,,,,,,,,,,,,,,,,,,,,,,,,,,,,,,,,,,,,,,,,,,,,,,,,,,,,,,,,,,,,,,,,,,
,,,,,,,,,,00001463050,2020-10-12_16h09.10.247,swahili,2020.2.4,MacIntel,60,,,,,,,,,,-0.212527127,-0.071501736,1,0,0,0.496675,unsorted_card,22,0,22,0,1,,,,,,,,,,,,,,,,,,,,,,,,,,,,,,,,,,,,,,,,,,,,,,,,,,,,,,,,,,,,,,,,,,,,,,,,,,,,,,,,,
,,,,,,,,,,00001463050,2020-10-12_16h09.10.247,swahili,2020.2.4,MacIntel,60,,,,,,,,,,0.367995877,-0.043828125,1,0,0,2.014595,test_pile,23,0,23,0,1,GRAPES - ZABIBU,,,,,,,,,,,,,,,,,,,,,,,,,,,,,,,,,,,,,,,,,,,,,,,,,,,,,,,,,,,,,,,,,,,,,,,,,,,,,,,,
,,,,,,,,,,00001463050,2020-10-12_16h09.10.247,swahili,2020.2.4,MacIntel,60,,,,,,,,,,-0.269373915,-0.020659722,1,0,0,0.582855,unsorted_card,24,0,24,0,1,,,,,,,,,,,,,,,,,,,,,,,,,,,,,,,,,,,,,,,,,,,,,,,,,,,,,,,,,,,,,,,,,,,,,,,,,,,,,,,,,
,,,,,,,,,,00001463050,2020-10-12_16h09.10.247,swahili,2020.2.4,MacIntel,60,,,,,,,,,,0.360498047,-0.013810764,1,0,0,2.415685,test_pile,25,0,25,0,1,GRAVE - KABURI,,,,,,,,,,,,,,,,,,,,,,,,,,,,,,,,,,,,,,,,,,,,,,,,,,,,,,,,,,,,,,,,,,,,,,,,,,,,,,,,
,,,,,,,,,,00001463050,2020-10-12_16h09.10.247,swahili,2020.2.4,MacIntel,60,,,,,,,,,,-0.267399089,-0.023802083,1,0,0,0.66482,unsorted_card,26,0,26,0,1,,,,,,,,,,,,,,,,,,,,,,,,,,,,,,,,,,,,,,,,,,,,,,,,,,,,,,,,,,,,,,,,,,,,,,,,,,,,,,,,,
,,,,,,,,,,00001463050,2020-10-12_16h09.10.247,swahili,2020.2.4,MacIntel,60,,,,,,,,,,0.39547526,-0.055512153,1,0,0,2.499385,test_pile,27,0,27,0,1,MANURE - SAMADI,,,,,,,,,,,,,,,,,,,,,,,,,,,,,,,,,,,,,,,,,,,,,,,,,,,,,,,,,,,,,,,,,,,,,,,,,,,,,,,,
,,,,,,,,,,00001463050,2020-10-12_16h09.10.247,swahili,2020.2.4,MacIntel,60,,,,,,,,,,-0.184857856,-0.037005208,1,0,0,0.547585,unsorted_card,28,0,28,0,1,,,,,,,,,,,,,,,,,,,,,,,,,,,,,,,,,,,,,,,,,,,,,,,,,,,,,,,,,,,,,,,,,,,,,,,,,,,,,,,,,
,,,,,,,,,,00001463050,2020-10-12_16h09.10.247,swahili,2020.2.4,MacIntel,60,,,,,,,,,,0.315646701,0.002100694,1,0,0,2.71529,test_pile,29,0,29,0,1,AGENT - WAKILI,,,,,,,,,,,,,,,,,,,,,,,,,,,,,,,,,,,,,,,,,,,,,,,,,,,,,,,,,,,,,,,,,,,,,,,,,,,,,,,,
,,,,,,,,,,00001463050,2020-10-12_16h09.10.247,swahili,2020.2.4,MacIntel,60,,,,,,,,,,-0.242681207,-0.0271875,1,0,0,0.51648,unsorted_card,30,0,30,0,1,,,,,,,,,,,,,,,,,,,,,,,,,,,,,,,,,,,,,,,,,,,,,,,,,,,,,,,,,,,,,,,,,,,,,,,,,,,,,,,,,
,,,,,,,,,,00001463050,2020-10-12_16h09.10.247,swahili,2020.2.4,MacIntel,60,,,,,,,,,,0.372705078,-0.027100694,1,0,0,2.331395,test_pile,31,0,31,0,1,BRIBE - RUSHWA,,,,,,,,,,,,,,,,,,,,,,,,,,,,,,,,,,,,,,,,,,,,,,,,,,,,,,,,,,,,,,,,,,,,,,,,,,,,,,,,
,,,,,,,,,,00001463050,2020-10-12_16h09.10.247,swahili,2020.2.4,MacIntel,60,,,,,,,,,,-0.158821615,-0.038914931,1,0,0,0.648825,unsorted_card,32,0,32,0,1,,,,,,,,,,,,,,,,,,,,,,,,,,,,,,,,,,,,,,,,,,,,,,,,,,,,,,,,,,,,,,,,,,,,,,,,,,,,,,,,,
,,,,,,,,,,00001463050,2020-10-12_16h09.10.247,swahili,2020.2.4,MacIntel,60,,,,,,,,,,0.396733941,-0.041701389,1,0,0,2.666395,test_pile,33,0,33,0,1,ORPHAN - YATIMA,,,,,,,,,,,,,,,,,,,,,,,,,,,,,,,,,,,,,,,,,,,,,,,,,,,,,,,,,,,,,,,,,,,,,,,,,,,,,,,,
,,,,,,,,,,00001463050,2020-10-12_16h09.10.247,swahili,2020.2.4,MacIntel,60,,,,,,,,,,-0.178293186,-0.067144097,1,0,0,0.53222,unsorted_card,34,0,34,0,1,,,,,,,,,,,,,,,,,,,,,,,,,,,,,,,,,,,,,,,,,,,,,,,,,,,,,,,,,,,,,,,,,,,,,,,,,,,,,,,,,
,,,,,,,,,,00001463050,2020-10-12_16h09.10.247,swahili,2020.2.4,MacIntel,60,,,,,,,,,,0.360921224,-0.065069444,1,0,0,3.26469,test_pile,35,0,35,0,1,DIVORCE - TALAKA,,,,,,,,,,,,,,,,,,,,,,,,,,,,,,,,,,,,,,,,,,,,,,,,,,,,,,,,,,,,,,,,,,,,,,,,,,,,,,,,
,,,,,,,,,,00001463050,2020-10-12_16h09.10.247,swahili,2020.2.4,MacIntel,60,,,,,,,,,,-0.183951823,-0.081102431,1,0,0,1.049055,unsorted_card,36,0,36,0,1,,,,,,,,,,,,,,,,,,,,,,,,,,,,,,,,,,,,,,,,,,,,,,,,,,,,,,,,,,,,,,,,,,,,,,,,,,,,,,,,,
,,,,,,,,,,00001463050,2020-10-12_16h09.10.247,swahili,2020.2.4,MacIntel,60,,,,,,,,,,0.38382704,0.015164931,1,0,0,2.36443,test_pile,37,0,37,0,1,BOAT - MASHUA,,,,,,,,,,,,,,,,,,,,,,,,,,,,,,,,,,,,,,,,,,,,,,,,,,,,,,,,,,,,,,,,,,,,,,,,,,,,,,,,
,,,,,,,,,,00001463050,2020-10-12_16h09.10.247,swahili,2020.2.4,MacIntel,60,,,,,,,,,,-0.229470486,-0.01125,1,0,0,0.53205,unsorted_card,38,0,38,0,1,,,,,,,,,,,,,,,,,,,,,,,,,,,,,,,,,,,,,,,,,,,,,,,,,,,,,,,,,,,,,,,,,,,,,,,,,,,,,,,,,
,,,,,,,,,,00001463050,2020-10-12_16h09.10.247,swahili,2020.2.4,MacIntel,60,,,,,,,,,,0.38093533,-0.035199653,1,0,0,1.932705,test_pile,39,0,39,0,1,TREASURE - DAFINA,,,,,,,,,,,,,,,,,,,,,,,,,,,,,,,,,,,,,,,,,,,,,,,,,,,,,,,,,,,,,,,,,,,,,,,,,,,,,,,,
,,,,,,,,,,00001463050,2020-10-12_16h09.10.247,swahili,2020.2.4,MacIntel,60,,,,,,,,,,,,,,,,,,,,,,,,,,,,,,,,,,0,0,0,0,1,,,,,,,,,,,,,,,,,,,,,,,,,,,,,,,,,,,,,,,,,,,,,,,,,,,,,,,,,,,,,,,,
,,,,,,,,,,00001463050,2020-10-12_16h09.10.247,swahili,2020.2.4,MacIntel,60,,,,,,,,,,,,,,,,,,,,,,,,,,,,,,,,,,,,,,,return,,,,,,,,,,,6.781185,13.815005,0.394211155,-0.123194444,1,0,0,1.983025,yes,GRAPES,TAHINI,incorrect,0,0,0,0,1,,,,,,,,,,,,,,,,,,,,,,,,,,,,,,,,,,,,
,,,,,,,,,,00001463050,2020-10-12_16h09.10.247,swahili,2020.2.4,MacIntel,60,,,,,,,,,,,,,,,,,,,,,,,,,,,,,,,,,,,,,,,,,,,,,,,,,,,10.13162,0.524641927,-0.0759375,1,0,0,1.366645,yes,BULL,TAJI,incorrect,1,0,1,0,1,,,,,,,,,,,,,,,,,,,,,,,,,,,,,,,,,,,,
,,,,,,,,,,00001463050,2020-10-12_16h09.10.247,swahili,2020.2.4,MacIntel,60,,,,,,,,,,,,,,,,,,,,,,,,,,,,,,,,,,,,,,,,,,,,,,,,,,,4.48226,0.384901259,-0.067465278,1,0,0,1.082805,yes,AGENT,MALAKA,incorrect,2,0,2,0,1,,,,,,,,,,,,,,,,,,,,,,,,,,,,,,,,,,,,
,,,,,,,,,,00001463050,2020-10-12_16h09.10.247,swahili,2020.2.4,MacIntel,60,,,,,,,,,,,,,,,,,,,,,,,,,,,,,,,,,,,,,,,,,,,,,,,,,,,4.948325,0.443164063,-0.141892361,1,0,0,1.05135,yes,PARROT,MALAKA,incorrect,3,0,3,0,1,,,,,,,,,,,,,,,,,,,,,,,,,,,,,,,,,,,,
,,,,,,,,,,00001463050,2020-10-12_16h09.10.247,swahili,2020.2.4,MacIntel,60,,,,,,,,,,,,,,,,,,,,,,,,,,,,,,,,,,,,,,,,,,,,,,,,,,,5.19842,0.443164063,-0.137204861,1,0,0,0.81662,yes,OATH,MAHAMA,incorrect,4,0,4,0,1,,,,,,,,,,,,,,,,,,,,,,,,,,,,,,,,,,,,
,,,,,,,,,,00001463050,2020-10-12_16h09.10.247,swahili,2020.2.4,MacIntel,60,,,,,,,,,,,,,,,,,,,,,,,,,,,,,,,,,,,,,,,,,,,,,,,,,,,7.98205,0.443164063,-0.137204861,1,0,0,0.914675,yes,PLATE,MANINI,incorrect,5,0,5,0,1,,,,,,,,,,,,,,,,,,,,,,,,,,,,,,,,,,,,
,,,,,,,,,,00001463050,2020-10-12_16h09.10.247,swahili,2020.2.4,MacIntel,60,,,,,,,,,,,,,,,,,,,,,,,,,,,,,,,,,,,,,,,,,,,,,,,,,,,5.21486,0.443164063,-0.137204861,1,0,0,0.831995,yes,YEAST,HAMELI,incorrect,6,0,6,0,1,,,,,,,,,,,,,,,,,,,,,,,,,,,,,,,,,,,,
,,,,,,,,,,00001463050,2020-10-12_16h09.10.247,swahili,2020.2.4,MacIntel,60,,,,,,,,,,,,,,,,,,,,,,,,,,,,,,,,,,,,,,,,,,,,,,,,,,,5.265295,0.430843099,-0.110677083,1,0,0,0.78321,yes,POEM,MAHARA,incorrect,7,0,7,0,1,,,,,,,,,,,,,,,,,,,,,,,,,,,,,,,,,,,,
,,,,,,,,,,00001463050,2020-10-12_16h09.10.247,swahili,2020.2.4,MacIntel,60,,,,,,,,,,,,,,,,,,,,,,,,,,,,,,,,,,,,,,,,,,,,,,,,,,,8.71494,0.430843099,-0.110677083,1,0,0,0.69993,yes,ORPHAN,YAMIRA,incorrect,8,0,8,0,1,,,,,,,,,,,,,,,,,,,,,,,,,,,,,,,,,,,,
,,,,,,,,,,00001463050,2020-10-12_16h09.10.247,swahili,2020.2.4,MacIntel,60,,,,,,,,,,,,,,,,,,,,,,,,,,,,,,,,,,,,,,,,,,,,,,,,,,,5.36569,0.430843099,-0.110677083,1,0,0,0.71703,yes,MERCHANT,WAKAKA,incorrect,9,0,9,0,1,,,,,,,,,,,,,,,,,,,,,,,,,,,,,,,,,,,,
,,,,,,,,,,00001463050,2020-10-12_16h09.10.247,swahili,2020.2.4,MacIntel,60,,,,,,,,,,,,,,,,,,,,,,,,,,,,,,,,,,,,,,,,,,,,,,,,,,,7.981955,0.430843099,-0.110677083,1,0,0,0.666185,yes,DIVORCE,WAKAKI,incorrect,10,0,10,0,1,,,,,,,,,,,,,,,,,,,,,,,,,,,,,,,,,,,,
,,,,,,,,,,00001463050,2020-10-12_16h09.10.247,swahili,2020.2.4,MacIntel,60,,,,,,,,,,,,,,,,,,,,,,,,,,,,,,,,,,,,,,,,,,,,,,,,,,,4.71586,0.430843099,-0.110677083,1,0,0,0.63222,yes,TAILOR,MSHONA,incorrect,11,0,11,0,1,,,,,,,,,,,,,,,,,,,,,,,,,,,,,,,,,,,,
,,,,,,,,,,00001463050,2020-10-12_16h09.10.247,swahili,2020.2.4,MacIntel,60,,,,,,,,,,,,,,,,,,,,,,,,,,,,,,,,,,,,,,,,,,,,,,,,,,,6.13073,0.430843099,-0.110677083,1,0,0,0.69984,yes,TREASURE,DIANI,incorrect,12,0,12,0,1,,,,,,,,,,,,,,,,,,,,,,,,,,,,,,,,,,,,
,,,,,,,,,,00001463050,2020-10-12_16h09.10.247,swahili,2020.2.4,MacIntel,60,,,,,,,,,,,,,,,,,,,,,,,,,,,,,,,,,,,,,,,,,,,,,,,,,,,8.96408,0.430843099,-0.110677083,1,0,0,0.768325,yes,CHEESE,IMONI,incorrect,13,0,13,0,1,,,,,,,,,,,,,,,,,,,,,,,,,,,,,,,,,,,,
,,,,,,,,,,00001463050,2020-10-12_16h09.10.247,swahili,2020.2.4,MacIntel,60,,,,,,,,,,,,,,,,,,,,,,,,,,,,,,,,,,,,,,,,,,,,,,,,,,,4.580625,0.430843099,-0.110677083,1,0,0,0.683365,yes,BLAME,MALAKA,incorrect,14,0,14,0,1,,,,,,,,,,,,,,,,,,,,,,,,,,,,,,,,,,,,
,,,,,,,,,,00001463050,2020-10-12_16h09.10.247,swahili,2020.2.4,MacIntel,60,,,,,,,,,,,,,,,,,,,,,,,,,,,,,,,,,,,,,,,,,,,,,,,,,,,11.59859,0.430843099,-0.110677083,1,0,0,0.71604,yes,BOAT,MSHUA,incorrect,15,0,15,0,1,,,,,,,,,,,,,,,,,,,,,,,,,,,,,,,,,,,,
,,,,,,,,,,00001463050,2020-10-12_16h09.10.247,swahili,2020.2.4,MacIntel,60,,,,,,,,,,,,,,,,,,,,,,,,,,,,,,,,,,,,,,,,,,,,,,,,,,,4.897575,0.430843099,-0.110677083,1,0,0,0.682475,yes,MANURE,KAKA,incorrect,16,0,16,0,1,,,,,,,,,,,,,,,,,,,,,,,,,,,,,,,,,,,,
,,,,,,,,,,00001463050,2020-10-12_16h09.10.247,swahili,2020.2.4,MacIntel,60,,,,,,,,,,,,,,,,,,,,,,,,,,,,,,,,,,,,,,,,,,,,,,,,,,,8.131335,0.430843099,-0.110677083,1,0,0,0.66775,yes,BRIBE,RUSHWA,incorrect,17,0,17,0,1,,,,,,,,,,,,,,,,,,,,,,,,,,,,,,,,,,,,
,,,,,,,,,,00001463050,2020-10-12_16h09.10.247,swahili,2020.2.4,MacIntel,60,,,,,,,,,,,,,,,,,,,,,,,,,,,,,,,,,,,,,,,,,,,,,,,,,,,6.464125,0.430843099,-0.110677083,1,0,0,0.600205,yes,CORN,NAMAKA,incorrect,18,0,18,0,1,,,,,,,,,,,,,,,,,,,,,,,,,,,,,,,,,,,,
,,,,,,,,,,00001463050,2020-10-12_16h09.10.247,swahili,2020.2.4,MacIntel,60,,,,,,,,,,,,,,,,,,,,,,,,,,,,,,,,,,,,,,,,,,,,,,,,,,,5.3154,0.430843099,-0.110677083,1,0,0,0.61576,yes,GRAVE,BOLINI,incorrect,19,0,19,0,1,,,,,,,,,,,,,,,,,,,,,,,,,,,,,,,,,,,,
,,,,,,,,,,00001463050,2020-10-12_16h09.10.247,swahili,2020.2.4,MacIntel,60,,,,,,,,,,,,,,,,,,,,,,,,,,,,,,,,,,,,,,,,0,0,0,0,1,,,,,,,,,,,,,,,,,,,,,,,,,,,,,,,,,,,,,,,,,,,,,,,,,,,,,,,,,,
,,,,,,,,,,00001463050,2020-10-12_16h09.10.247,swahili,2020.2.4,MacIntel,60,,,,,,,,,,,,,,,,,,,,,,,,,,,,,,,,,,,,,,,,1,0,1,0,1,,,,,,,,,,,,,,,,,,,,,,,,,,,,,,,,,,,,,,,,,,,,,,,,,,,,,,,,,,
,,,,,,,,,,00001463050,2020-10-12_16h09.10.247,swahili,2020.2.4,MacIntel,60,,,,,,,,,,,,,,,,,,,,,,,,,,,,,,,,,,,,,,,,,,,,,1,0,1,0,1,,,,,,,,,,,,,,,,,,,,,,,,,,,,,,,,,,,,,,,,,,,,,,,,,,,,,
,,,,,,,,,,00001463050,2020-10-12_16h09.10.247,swahili,2020.2.4,MacIntel,60,,,,,,,,,,-0.404345703,-0.022039931,1,0,0,3.821815,unsorted_card,0,0,0,0,1,,,,,,,,,,,,,,,,,,,,,,,,,,,,,,,,,,,,,,,,,,,,,,,,,,,,,,,,,,,,,,,,,,,,,,,,,,,,,,,,,
,,,,,,,,,,00001463050,2020-10-12_16h09.10.247,swahili,2020.2.4,MacIntel,60,,,,,,,,,,0.532389323,0.485277778,1,0,0,7.363025,study_pile,1,0,1,0,1,MERCHANT - TAJIRI,,,,,,,,,,,,,,,,,,,,,,,,,,,,,,,,,,,,,,,,,,,,,,,,,,,,,,,,,,,,,,,,,,,,,,,,,,,,,,,,
,,,,,,,,,,00001463050,2020-10-12_16h09.10.247,swahili,2020.2.4,MacIntel,60,,,,,,,,,,-0.199435764,0.092803819,1,0,0,0.66374,unsorted_card,2,0,2,0,1,,,,,,,,,,,,,,,,,,,,,,,,,,,,,,,,,,,,,,,,,,,,,,,,,,,,,,,,,,,,,,,,,,,,,,,,,,,,,,,,,
,,,,,,,,,,00001463050,2020-10-12_16h09.10.247,swahili,2020.2.4,MacIntel,60,,,,,,,,,,0.488292101,0.473168403,1,0,0,12.6985,study_pile,3,0,3,0,1,PARROT - KASUKU,,,,,,,,,,,,,,,,,,,,,,,,,,,,,,,,,,,,,,,,,,,,,,,,,,,,,,,,,,,,,,,,,,,,,,,,,,,,,,,,
,,,,,,,,,,00001463050,2020-10-12_16h09.10.247,swahili,2020.2.4,MacIntel,60,,,,,,,,,,-0.343961589,-0.047578125,1,0,0,0.94859,unsorted_card,4,0,4,0,1,,,,,,,,,,,,,,,,,,,,,,,,,,,,,,,,,,,,,,,,,,,,,,,,,,,,,,,,,,,,,,,,,,,,,,,,,,,,,,,,,
,,,,,,,,,,00001463050,2020-10-12_16h09.10.247,swahili,2020.2.4,MacIntel,60,,,,,,,,,,0.486892361,0.427057292,1,0,0,19.54839,study_pile,5,0,5,0,1,BULL - FAHILI,,,,,,,,,,,,,,,,,,,,,,,,,,,,,,,,,,,,,,,,,,,,,,,,,,,,,,,,,,,,,,,,,,,,,,,,,,,,,,,,
,,,,,,,,,,00001463050,2020-10-12_16h09.10.247,swahili,2020.2.4,MacIntel,60,,,,,,,,,,-0.202837457,-0.048802083,1,0,0,0.833215,unsorted_card,6,0,6,0,1,,,,,,,,,,,,,,,,,,,,,,,,,,,,,,,,,,,,,,,,,,,,,,,,,,,,,,,,,,,,,,,,,,,,,,,,,,,,,,,,,
,,,,,,,,,,00001463050,2020-10-12_16h09.10.247,swahili,2020.2.4,MacIntel,60,,,,,,,,,,0.467176649,0.461501736,1,0,0,14.18157,study_pile,7,0,7,0,1,PLATE - SAHANI,,,,,,,,,,,,,,,,,,,,,,,,,,,,,,,,,,,,,,,,,,,,,,,,,,,,,,,,,,,,,,,,,,,,,,,,,,,,,,,,
,,,,,,,,,,00001463050,2020-10-12_16h09.10.247,swahili,2020.2.4,MacIntel,60,,,,,,,,,,-0.310177951,-0.031597222,1,0,0,0.748105,unsorted_card,8,0,8,0,1,,,,,,,,,,,,,,,,,,,,,,,,,,,,,,,,,,,,,,,,,,,,,,,,,,,,,,,,,,,,,,,,,,,,,,,,,,,,,,,,,
,,,,,,,,,,00001463050,2020-10-12_16h09.10.247,swahili,2020.2.4,MacIntel,60,,,,,,,,,,0.478732639,0.420520833,1,0,0,17.14939,study_pile,9,0,9,0,1,YEAST - HAMIRA,,,,,,,,,,,,,,,,,,,,,,,,,,,,,,,,,,,,,,,,,,,,,,,,,,,,,,,,,,,,,,,,,,,,,,,,,,,,,,,,
,,,,,,,,,,00001463050,2020-10-12_16h09.10.247,swahili,2020.2.4,MacIntel,60,,,,,,,,,,-0.248942057,0.067734375,1,0,0,1.21429,unsorted_card,10,0,10,0,1,,,,,,,,,,,,,,,,,,,,,,,,,,,,,,,,,,,,,,,,,,,,,,,,,,,,,,,,,,,,,,,,,,,,,,,,,,,,,,,,,
,,,,,,,,,,00001463050,2020-10-12_16h09.10.247,swahili,2020.2.4,MacIntel,60,,,,,,,,,,0.490657552,0.452413194,1,0,0,18.61699,study_pile,11,0,11,0,1,BLAME - LAWAMA,,,,,,,,,,,,,,,,,,,,,,,,,,,,,,,,,,,,,,,,,,,,,,,,,,,,,,,,,,,,,,,,,,,,,,,,,,,,,,,,
,,,,,,,,,,00001463050,2020-10-12_16h09.10.247,swahili,2020.2.4,MacIntel,60,,,,,,,,,,-0.217789714,0.061640625,1,0,0,0.84797,unsorted_card,12,0,12,0,1,,,,,,,,,,,,,,,,,,,,,,,,,,,,,,,,,,,,,,,,,,,,,,,,,,,,,,,,,,,,,,,,,,,,,,,,,,,,,,,,,
,,,,,,,,,,00001463050,2020-10-12_16h09.10.247,swahili,2020.2.4,MacIntel,60,,,,,,,,,,0.376757813,0.430633681,1,0,0,15.448905,study_pile,13,0,13,0,1,OATH - YAMINI,,,,,,,,,,,,,,,,,,,,,,,,,,,,,,,,,,,,,,,,,,,,,,,,,,,,,,,,,,,,,,,,,,,,,,,,,,,,,,,,
,,,,,,,,,,00001463050,2020-10-12_16h09.10.247,swahili,2020.2.4,MacIntel,60,,,,,,,,,,-0.252555339,0.047430556,1,0,0,0.682745,unsorted_card,14,0,14,0,1,,,,,,,,,,,,,,,,,,,,,,,,,,,,,,,,,,,,,,,,,,,,,,,,,,,,,,,,,,,,,,,,,,,,,,,,,,,,,,,,,
,,,,,,,,,,00001463050,2020-10-12_16h09.10.247,swahili,2020.2.4,MacIntel,60,,,,,,,,,,0.429676649,0.426197917,1,0,0,15.99849,study_pile,15,0,15,0,1,CORN - NAFAKA,,,,,,,,,,,,,,,,,,,,,,,,,,,,,,,,,,,,,,,,,,,,,,,,,,,,,,,,,,,,,,,,,,,,,,,,,,,,,,,,
,,,,,,,,,,00001463050,2020-10-12_16h09.10.247,swahili,2020.2.4,MacIntel,60,,,,,,,,,,-0.361735026,0.092491319,1,0,0,0.881275,unsorted_card,16,0,16,0,1,,,,,,,,,,,,,,,,,,,,,,,,,,,,,,,,,,,,,,,,,,,,,,,,,,,,,,,,,,,,,,,,,,,,,,,,,,,,,,,,,
,,,,,,,,,,00001463050,2020-10-12_16h09.10.247,swahili,2020.2.4,MacIntel,60,,,,,,,,,,0.551920573,0.502196181,1,0,0,15.216085,study_pile,17,0,17,0,1,POEM - UTENZI,,,,,,,,,,,,,,,,,,,,,,,,,,,,,,,,,,,,,,,,,,,,,,,,,,,,,,,,,,,,,,,,,,,,,,,,,,,,,,,,
,,,,,,,,,,00001463050,2020-10-12_16h09.10.247,swahili,2020.2.4,MacIntel,60,,,,,,,,,,-0.243663194,0.003298611,1,0,0,0.94581,unsorted_card,18,0,18,0,1,,,,,,,,,,,,,,,,,,,,,,,,,,,,,,,,,,,,,,,,,,,,,,,,,,,,,,,,,,,,,,,,,,,,,,,,,,,,,,,,,
,,,,,,,,,,00001463050,2020-10-12_16h09.10.247,swahili,2020.2.4,MacIntel,60,,,,,,,,,,0.475184462,0.415876736,1,0,0,10.70036,study_pile,19,0,19,0,1,TAILOR - MSHONI,,,,,,,,,,,,,,,,,,,,,,,,,,,,,,,,,,,,,,,,,,,,,,,,,,,,,,,,,,,,,,,,,,,,,,,,,,,,,,,,
,,,,,,,,,,00001463050,2020-10-12_16h09.10.247,swahili,2020.2.4,MacIntel,60,,,,,,,,,,-0.293098958,-0.040355903,1,0,0,0.563955,unsorted_card,20,0,20,0,1,,,,,,,,,,,,,,,,,,,,,,,,,,,,,,,,,,,,,,,,,,,,,,,,,,,,,,,,,,,,,,,,,,,,,,,,,,,,,,,,,
,,,,,,,,,,00001463050,2020-10-12_16h09.10.247,swahili,2020.2.4,MacIntel,60,,,,,,,,,,0.48961046,0.4996875,1,0,0,34.282255,study_pile,21,0,21,0,1,CHEESE - JIBINI,,,,,,,,,,,,,,,,,,,,,,,,,,,,,,,,,,,,,,,,,,,,,,,,,,,,,,,,,,,,,,,,,,,,,,,,,,,,,,,,
,,,,,,,,,,00001463050,2020-10-12_16h09.10.247,swahili,2020.2.4,MacIntel,60,,,,,,,,,,-0.322054036,-0.194939236,1,0,0,0.75002,unsorted_card,22,0,22,0,1,,,,,,,,,,,,,,,,,,,,,,,,,,,,,,,,,,,,,,,,,,,,,,,,,,,,,,,,,,,,,,,,,,,,,,,,,,,,,,,,,
,,,,,,,,,,00001463050,2020-10-12_16h09.10.247,swahili,2020.2.4,MacIntel,60,,,,,,,,,,0.505588108,0.488211806,1,0,0,13.946775,study_pile,23,0,23,0,1,GRAPES - ZABIBU,,,,,,,,,,,,,,,,,,,,,,,,,,,,,,,,,,,,,,,,,,,,,,,,,,,,,,,,,,,,,,,,,,,,,,,,,,,,,,,,
,,,,,,,,,,00001463050,2020-10-12_16h09.10.247,swahili,2020.2.4,MacIntel,60,,,,,,,,,,-0.207725694,0.014010417,1,0,0,0.64954,unsorted_card,24,0,24,0,1,,,,,,,,,,,,,,,,,,,,,,,,,,,,,,,,,,,,,,,,,,,,,,,,,,,,,,,,,,,,,,,,,,,,,,,,,,,,,,,,,
,,,,,,,,,,00001463050,2020-10-12_16h09.10.247,swahili,2020.2.4,MacIntel,60,,,,,,,,,,0.591389974,0.478125,1,0,0,29.547865,study_pile,25,0,25,0,1,GRAVE - KABURI,,,,,,,,,,,,,,,,,,,,,,,,,,,,,,,,,,,,,,,,,,,,,,,,,,,,,,,,,,,,,,,,,,,,,,,,,,,,,,,,
,,,,,,,,,,00001463050,2020-10-12_16h09.10.247,swahili,2020.2.4,MacIntel,60,,,,,,,,,,-0.204025608,-0.006119792,1,0,0,0.76753,unsorted_card,26,0,26,0,1,,,,,,,,,,,,,,,,,,,,,,,,,,,,,,,,,,,,,,,,,,,,,,,,,,,,,,,,,,,,,,,,,,,,,,,,,,,,,,,,,
,,,,,,,,,,00001463050,2020-10-12_16h09.10.247,swahili,2020.2.4,MacIntel,60,,,,,,,,,,0.480598958,0.46578125,1,0,0,11.91495,study_pile,27,0,27,0,1,MANURE - SAMADI,,,,,,,,,,,,,,,,,,,,,,,,,,,,,,,,,,,,,,,,,,,,,,,,,,,,,,,,,,,,,,,,,,,,,,,,,,,,,,,,
,,,,,,,,,,00001463050,2020-10-12_16h09.10.247,swahili,2020.2.4,MacIntel,60,,,,,,,,,,-0.222596571,0.004722222,1,0,0,0.61408,unsorted_card,28,0,28,0,1,,,,,,,,,,,,,,,,,,,,,,,,,,,,,,,,,,,,,,,,,,,,,,,,,,,,,,,,,,,,,,,,,,,,,,,,,,,,,,,,,
,,,,,,,,,,00001463050,2020-10-12_16h09.10.247,swahili,2020.2.4,MacIntel,60,,,,,,,,,,0.399815538,0.481432292,1,0,0,21.6655,study_pile,29,0,29,0,1,AGENT - WAKILI,,,,,,,,,,,,,,,,,,,,,,,,,,,,,,,,,,,,,,,,,,,,,,,,,,,,,,,,,,,,,,,,,,,,,,,,,,,,,,,,
,,,,,,,,,,00001463050,2020-10-12_16h09.10.247,swahili,2020.2.4,MacIntel,60,,,,,,,,,,-0.184033203,0.111310764,1,0,0,0.931725,unsorted_card,30,0,30,0,1,,,,,,,,,,,,,,,,,,,,,,,,,,,,,,,,,,,,,,,,,,,,,,,,,,,,,,,,,,,,,,,,,,,,,,,,,,,,,,,,,
,,,,,,,,,,00001463050,2020-10-12_16h09.10.247,swahili,2020.2.4,MacIntel,60,,,,,,,,,,0.469422743,0.522135417,1,0,0,27.182425,study_pile,31,0,31,0,1,BRIBE - RUSHWA,,,,,,,,,,,,,,,,,,,,,,,,,,,,,,,,,,,,,,,,,,,,,,,,,,,,,,,,,,,,,,,,,,,,,,,,,,,,,,,,
,,,,,,,,,,00001463050,2020-10-12_16h09.10.247,swahili,2020.2.4,MacIntel,60,,,,,,,,,,-0.143153212,0.094539931,1,0,0,0.61279,unsorted_card,32,0,32,0,1,,,,,,,,,,,,,,,,,,,,,,,,,,,,,,,,,,,,,,,,,,,,,,,,,,,,,,,,,,,,,,,,,,,,,,,,,,,,,,,,,
,,,,,,,,,,00001463050,2020-10-12_16h09.10.247,swahili,2020.2.4,MacIntel,60,,,,,,,,,,0.478705512,0.495512153,1,0,0,17.98269,study_pile,33,0,33,0,1,ORPHAN - YATIMA,,,,,,,,,,,,,,,,,,,,,,,,,,,,,,,,,,,,,,,,,,,,,,,,,,,,,,,,,,,,,,,,,,,,,,,,,,,,,,,,
,,,,,,,,,,00001463050,2020-10-12_16h09.10.247,swahili,2020.2.4,MacIntel,60,,,,,,,,,,-0.152484809,0.074774306,1,0,0,0.7155,unsorted_card,34,0,34,0,1,,,,,,,,,,,,,,,,,,,,,,,,,,,,,,,,,,,,,,,,,,,,,,,,,,,,,,,,,,,,,,,,,,,,,,,,,,,,,,,,,
,,,,,,,,,,00001463050,2020-10-12_16h09.10.247,swahili,2020.2.4,MacIntel,60,,,,,,,,,,0.213487413,0.201414931,0,0,1,22.798725,study_pile,35,0,35,0,1,DIVORCE - TALAKA,,,,,,,,,,,,,,,,,,,,,,,,,,,,,,,,,,,,,,,,,,,,,,,,,,,,,,,,,,,,,,,,,,,,,,,,,,,,,,,,
,,,,,,,,,,00001463050,2020-10-12_16h09.10.247,swahili,2020.2.4,MacIntel,60,,,,,,,,,,0.443929036,0.450868056,0,0,1,0.08143,study_pile,36,0,36,0,1,,,,,,,,,,,,,,,,,,,,,,,,,,,,,,,,,,,,,,,,,,,,,,,,,,,,,,,,,,,,,,,,,,,,,,,,,,,,,,,,,
,,,,,,,,,,00001463050,2020-10-12_16h09.10.247,swahili,2020.2.4,MacIntel,60,,,,,,,,,,-0.201915148,-0.011831597,1,0,1,0.715955,unsorted_card,37,0,37,0,1,,,,,,,,,,,,,,,,,,,,,,,,,,,,,,,,,,,,,,,,,,,,,,,,,,,,,,,,,,,,,,,,,,,,,,,,,,,,,,,,,
,,,,,,,,,,00001463050,2020-10-12_16h09.10.247,swahili,2020.2.4,MacIntel,60,,,,,,,,,,-0.200906033,-0.011284722,0,0,1,0.099055,unsorted_card,38,0,38,0,1,BOAT - MASHUA,,,,,,,,,,,,,,,,,,,,,,,,,,,,,,,,,,,,,,,,,,,,,,,,,,,,,,,,,,,,,,,,,,,,,,,,,,,,,,,,
,,,,,,,,,,00001463050,2020-10-12_16h09.10.247,swahili,2020.2.4,MacIntel,60,,,,,,,,,,0.413020833,0.449201389,1,0,1,16.31681,study_pile,39,0,39,0,1,BOAT - MASHUA,,,,,,,,,,,,,,,,,,,,,,,,,,,,,,,,,,,,,,,,,,,,,,,,,,,,,,,,,,,,,,,,,,,,,,,,,,,,,,,,
,,,,,,,,,,00001463050,2020-10-12_16h09.10.247,swahili,2020.2.4,MacIntel,60,,,,,,,,,,0.413020833,0.449201389,0,0,1,0.07967,study_pile,40,0,40,0,1,,,,,,,,,,,,,,,,,,,,,,,,,,,,,,,,,,,,,,,,,,,,,,,,,,,,,,,,,,,,,,,,,,,,,,,,,,,,,,,,,
,,,,,,,,,,00001463050,2020-10-12_16h09.10.247,swahili,2020.2.4,MacIntel,60,,,,,,,,,,-0.224115668,-0.070538194,1,0,1,0.53087,unsorted_card,41,0,41,0,1,,,,,,,,,,,,,,,,,,,,,,,,,,,,,,,,,,,,,,,,,,,,,,,,,,,,,,,,,,,,,,,,,,,,,,,,,,,,,,,,,
,,,,,,,,,,00001463050,2020-10-12_16h09.10.247,swahili,2020.2.4,MacIntel,60,,,,,,,,,,-0.220166016,-0.070538194,0,0,1,0.099675,unsorted_card,42,0,42,0,1,TREASURE - DAFINA,,,,,,,,,,,,,,,,,,,,,,,,,,,,,,,,,,,,,,,,,,,,,,,,,,,,,,,,,,,,,,,,,,,,,,,,,,,,,,,,
,,,,,,,,,,00001463050,2020-10-12_16h09.10.247,swahili,2020.2.4,MacIntel,60,,,,,,,,,,0.445789931,-0.020373264,1,0,1,6.14974,test_pile,43,0,43,0,1,TREASURE - DAFINA,,,,,,,,,,,,,,,,,,,,,,,,,,,,,,,,,,,,,,,,,,,,,,,,,,,,,,,,,,,,,,,,,,,,,,,,,,,,,,,,
,,,,,,,,,,00001463050,2020-10-12_16h09.10.247,swahili,2020.2.4,MacIntel,60,,,,,,,,,,,,,,,,,,,,,,,0.445106337,-0.021449653,0,0,1,0.081305,test_first,,,,,0,0,0,0,1,,,,,,,,,,,,,,,,,,,,,,,,,,,,,,,,,,,,,,,,,,,,,,,,,,,,,,,,,,,,,,,,
,,,,,,,,,,00001463050,2020-10-12_16h09.10.247,swahili,2020.2.4,MacIntel,60,,,,,,,,,,,,,,,,,,,,,,,,,,,,,,,,,,,,,,,return,,,,,,,,,,,3.21836,3.780525,0.466151259,-0.078975694,1,0,1,1.96656,yes,TREASURE,DAFINA,incorrect,0,0,0,0,1,,,,,,,,,,,,,,,,,,,,,,,,,,,,,,,,,,,,
,,,,,,,,,,00001463050,2020-10-12_16h09.10.247,swahili,2020.2.4,MacIntel,60,,,,,,,,,,,,,,,,,,,,,,,,,,,,,,,,,,,,,,,,0,0,0,0,1,,,,,,,,,,,,,,,,,,,,,,,,,,,,,,,,,,,,,,,,,,,,,,,,,,,,,,,,,,
,,,,,,,,,,00001463050,2020-10-12_16h09.10.247,swahili,2020.2.4,MacIntel,60,,,,,,,,,,,,,,,,,,,,,,BLAME - LAWAMA,,,,,,,,return,1.51804,return,3.663405,0,0,0,0,1,,,,,,,,,,,,,,,,,,,,,,,,,,,,,,,,,,,,,,,,,,,,,,,,,,,,,,,,,,,,,,,,
,,,,,,,,,,00001463050,2020-10-12_16h09.10.247,swahili,2020.2.4,MacIntel,60,,,,,,,,,,,,,,,,,,,,,,GRAVE - KABURI,,,,,,,,,,return,2.20046,1,0,1,0,1,,,,,,,,,,,,,,,,,,,,,,,,,,,,,,,,,,,,,,,,,,,,,,,,,,,,,,,,,,,,,,,,
,,,,,,,,,,00001463050,2020-10-12_16h09.10.247,swahili,2020.2.4,MacIntel,60,,,,,,,,,,,,,,,,,,,,,,CORN - NAFAKA,,,,,,,,,,return,3.61746,2,0,2,0,1,,,,,,,,,,,,,,,,,,,,,,,,,,,,,,,,,,,,,,,,,,,,,,,,,,,,,,,,,,,,,,,,
,,,,,,,,,,00001463050,2020-10-12_16h09.10.247,swahili,2020.2.4,MacIntel,60,,,,,,,,,,,,,,,,,,,,,,TAILOR - MSHONI,,,,,,,,,,return,3.54764,3,0,3,0,1,,,,,,,,,,,,,,,,,,,,,,,,,,,,,,,,,,,,,,,,,,,,,,,,,,,,,,,,,,,,,,,,
,,,,,,,,,,00001463050,2020-10-12_16h09.10.247,swahili,2020.2.4,MacIntel,60,,,,,,,,,,,,,,,,,,,,,,YEAST - HAMIRA,,,,,,,,,,return,2.244945,4,0,4,0,1,,,,,,,,,,,,,,,,,,,,,,,,,,,,,,,,,,,,,,,,,,,,,,,,,,,,,,,,,,,,,,,,
,,,,,,,,,,00001463050,2020-10-12_16h09.10.247,swahili,2020.2.4,MacIntel,60,,,,,,,,,,,,,,,,,,,,,,CHEESE - JIBINI,,,,,,,,,,return,10.30039,5,0,5,0,1,,,,,,,,,,,,,,,,,,,,,,,,,,,,,,,,,,,,,,,,,,,,,,,,,,,,,,,,,,,,,,,,
,,,,,,,,,,00001463050,2020-10-12_16h09.10.247,swahili,2020.2.4,MacIntel,60,,,,,,,,,,,,,,,,,,,,,,GRAPES - ZABIBU,,,,,,,,,,return,0.414365,6,0,6,0,1,,,,,,,,,,,,,,,,,,,,,,,,,,,,,,,,,,,,,,,,,,,,,,,,,,,,,,,,,,,,,,,,
,,,,,,,,,,00001463050,2020-10-12_16h09.10.247,swahili,2020.2.4,MacIntel,60,,,,,,,,,,,,,,,,,,,,,,BULL - FAHILI,,,,,,,,,,return,0.384425,7,0,7,0,1,,,,,,,,,,,,,,,,,,,,,,,,,,,,,,,,,,,,,,,,,,,,,,,,,,,,,,,,,,,,,,,,
,,,,,,,,,,00001463050,2020-10-12_16h09.10.247,swahili,2020.2.4,MacIntel,60,,,,,,,,,,,,,,,,,,,,,,PLATE - SAHANI,,,,,,,,,,return,0.184,8,0,8,0,1,,,,,,,,,,,,,,,,,,,,,,,,,,,,,,,,,,,,,,,,,,,,,,,,,,,,,,,,,,,,,,,,
,,,,,,,,,,00001463050,2020-10-12_16h09.10.247,swahili,2020.2.4,MacIntel,60,,,,,,,,,,,,,,,,,,,,,,OATH - YAMINI,,,,,,,,,,return,0.15089,9,0,9,0,1,,,,,,,,,,,,,,,,,,,,,,,,,,,,,,,,,,,,,,,,,,,,,,,,,,,,,,,,,,,,,,,,
,,,,,,,,,,00001463050,2020-10-12_16h09.10.247,swahili,2020.2.4,MacIntel,60,,,,,,,,,,,,,,,,,,,,,,ORPHAN - YATIMA,,,,,,,,,,return,0.166435,10,0,10,0,1,,,,,,,,,,,,,,,,,,,,,,,,,,,,,,,,,,,,,,,,,,,,,,,,,,,,,,,,,,,,,,,,
,,,,,,,,,,00001463050,2020-10-12_16h09.10.247,swahili,2020.2.4,MacIntel,60,,,,,,,,,,,,,,,,,,,,,,DIVORCE - TALAKA,,,,,,,,,,return,0.18366,11,0,11,0,1,,,,,,,,,,,,,,,,,,,,,,,,,,,,,,,,,,,,,,,,,,,,,,,,,,,,,,,,,,,,,,,,
,,,,,,,,,,00001463050,2020-10-12_16h09.10.247,swahili,2020.2.4,MacIntel,60,,,,,,,,,,,,,,,,,,,,,,POEM - UTENZI,,,,,,,,,,return,0.183035,12,0,12,0,1,,,,,,,,,,,,,,,,,,,,,,,,,,,,,,,,,,,,,,,,,,,,,,,,,,,,,,,,,,,,,,,,
,,,,,,,,,,00001463050,2020-10-12_16h09.10.247,swahili,2020.2.4,MacIntel,60,,,,,,,,,,,,,,,,,,,,,,AGENT - WAKILI,,,,,,,,,,return,0.187025,13,0,13,0,1,,,,,,,,,,,,,,,,,,,,,,,,,,,,,,,,,,,,,,,,,,,,,,,,,,,,,,,,,,,,,,,,
,,,,,,,,,,00001463050,2020-10-12_16h09.10.247,swahili,2020.2.4,MacIntel,60,,,,,,,,,,,,,,,,,,,,,,BRIBE - RUSHWA,,,,,,,,,,return,0.18257,14,0,14,0,1,,,,,,,,,,,,,,,,,,,,,,,,,,,,,,,,,,,,,,,,,,,,,,,,,,,,,,,,,,,,,,,,
,,,,,,,,,,00001463050,2020-10-12_16h09.10.247,swahili,2020.2.4,MacIntel,60,,,,,,,,,,,,,,,,,,,,,,MANURE - SAMADI,,,,,,,,,,return,0.17918,15,0,15,0,1,,,,,,,,,,,,,,,,,,,,,,,,,,,,,,,,,,,,,,,,,,,,,,,,,,,,,,,,,,,,,,,,
,,,,,,,,,,00001463050,2020-10-12_16h09.10.247,swahili,2020.2.4,MacIntel,60,,,,,,,,,,,,,,,,,,,,,,MERCHANT - TAJIRI,,,,,,,,,,return,0.217565,16,0,16,0,1,,,,,,,,,,,,,,,,,,,,,,,,,,,,,,,,,,,,,,,,,,,,,,,,,,,,,,,,,,,,,,,,
,,,,,,,,,,00001463050,2020-10-12_16h09.10.247,swahili,2020.2.4,MacIntel,60,,,,,,,,,,,,,,,,,,,,,,BOAT - MASHUA,,,,,,,,,,return,0.18346,17,0,17,0,1,,,,,,,,,,,,,,,,,,,,,,,,,,,,,,,,,,,,,,,,,,,,,,,,,,,,,,,,,,,,,,,,
,,,,,,,,,,00001463050,2020-10-12_16h09.10.247,swahili,2020.2.4,MacIntel,60,,,,,,,,,,,,,,,,,,,,,,PARROT - KASUKU,,,,,,,,,,return,0.200875,18,0,18,0,1,,,,,,,,,,,,,,,,,,,,,,,,,,,,,,,,,,,,,,,,,,,,,,,,,,,,,,,,,,,,,,,,
,,,,,,,,,,00001463050,2020-10-12_16h09.10.247,swahili,2020.2.4,MacIntel,60,,,,,,,,,,,,,,,,,,,,,,,,,,,,,,,,,,,,,,,,1,0,1,0,1,,,,,,,,,,,,,,,,,,,,,,,,,,,,,,,,,,,,,,,,,,,,,,,,,,,,,,,,,,
,,,,,,,,,,00001463050,2020-10-12_16h09.10.247,swahili,2020.2.4,MacIntel,60,,,,,,,,,,,,,,,,,,,,,,,,,,,,,,,,,,,,,,,,,,,,,2,0,2,0,1,,,,,,,,,,,,,,,,,,,,,,,,,,,,,,,,,,,,,,,,,,,,,,,,,,,,,
,,,,,,,,,,00001463050,2020-10-12_16h09.10.247,swahili,2020.2.4,MacIntel,60,,,,,,,,,,-0.42171224,-0.014470486,1,0,1,1.79145,unsorted_card,0,0,0,0,1,,,,,,,,,,,,,,,,,,,,,,,,,,,,,,,,,,,,,,,,,,,,,,,,,,,,,,,,,,,,,,,,,,,,,,,,,,,,,,,,,
,,,,,,,,,,00001463050,2020-10-12_16h09.10.247,swahili,2020.2.4,MacIntel,60,,,,,,,,,,-0.421343316,-0.0121875,0,0,1,0.066405,unsorted_card,1,0,1,0,1,MERCHANT - TAJIRI,,,,,,,,,,,,,,,,,,,,,,,,,,,,,,,,,,,,,,,,,,,,,,,,,,,,,,,,,,,,,,,,,,,,,,,,,,,,,,,,
,,,,,,,,,,00001463050,2020-10-12_16h09.10.247,swahili,2020.2.4,MacIntel,60,,,,,,,,,,0.534163411,-0.009965278,1,0,1,0.94949,test_pile,2,0,2,0,1,MERCHANT - TAJIRI,,,,,,,,,,,,,,,,,,,,,,,,,,,,,,,,,,,,,,,,,,,,,,,,,,,,,,,,,,,,,,,,,,,,,,,,,,,,,,,,
,,,,,,,,,,00001463050,2020-10-12_16h09.10.247,swahili,2020.2.4,MacIntel,60,,,,,,,,,,0.532394748,-0.004765625,0,0,1,0.06497,test_pile,3,0,3,0,1,,,,,,,,,,,,,,,,,,,,,,,,,,,,,,,,,,,,,,,,,,,,,,,,,,,,,,,,,,,,,,,,,,,,,,,,,,,,,,,,,
,,,,,,,,,,00001463050,2020-10-12_16h09.10.247,swahili,2020.2.4,MacIntel,60,,,,,,,,,,-0.181309679,0.016736111,1,0,1,0.3661,unsorted_card,4,0,4,0,1,,,,,,,,,,,,,,,,,,,,,,,,,,,,,,,,,,,,,,,,,,,,,,,,,,,,,,,,,,,,,,,,,,,,,,,,,,,,,,,,,
,,,,,,,,,,00001463050,2020-10-12_16h09.10.247,swahili,2020.2.4,MacIntel,60,,,,,,,,,,-0.181309679,0.016736111,0,0,1,0.099805,unsorted_card,5,0,5,0,1,PARROT - KASUKU,,,,,,,,,,,,,,,,,,,,,,,,,,,,,,,,,,,,,,,,,,,,,,,,,,,,,,,,,,,,,,,,,,,,,,,,,,,,,,,,
,,,,,,,,,,00001463050,2020-10-12_16h09.10.247,swahili,2020.2.4,MacIntel,60,,,,,,,,,,0.431901042,-0.000607639,1,0,1,0.365085,test_pile,6,0,6,0,1,PARROT - KASUKU,,,,,,,,,,,,,,,,,,,,,,,,,,,,,,,,,,,,,,,,,,,,,,,,,,,,,,,,,,,,,,,,,,,,,,,,,,,,,,,,
,,,,,,,,,,00001463050,2020-10-12_16h09.10.247,swahili,2020.2.4,MacIntel,60,,,,,,,,,,0.431901042,-0.001145833,0,0,1,0.098835,test_pile,7,0,7,0,1,,,,,,,,,,,,,,,,,,,,,,,,,,,,,,,,,,,,,,,,,,,,,,,,,,,,,,,,,,,,,,,,,,,,,,,,,,,,,,,,,
,,,,,,,,,,00001463050,2020-10-12_16h09.10.247,swahili,2020.2.4,MacIntel,60,,,,,,,,,,-0.136838108,-0.016631944,1,0,1,0.35064,unsorted_card,8,0,8,0,1,,,,,,,,,,,,,,,,,,,,,,,,,,,,,,,,,,,,,,,,,,,,,,,,,,,,,,,,,,,,,,,,,,,,,,,,,,,,,,,,,
,,,,,,,,,,00001463050,2020-10-12_16h09.10.247,swahili,2020.2.4,MacIntel,60,,,,,,,,,,-0.132535807,-0.016631944,0,0,1,0.081605,unsorted_card,9,0,9,0,1,BULL - FAHILI,,,,,,,,,,,,,,,,,,,,,,,,,,,,,,,,,,,,,,,,,,,,,,,,,,,,,,,,,,,,,,,,,,,,,,,,,,,,,,,,
,,,,,,,,,,00001463050,2020-10-12_16h09.10.247,swahili,2020.2.4,MacIntel,60,,,,,,,,,,0.456944444,-0.025798611,1,0,1,0.34996,test_pile,10,0,10,0,1,BULL - FAHILI,,,,,,,,,,,,,,,,,,,,,,,,,,,,,,,,,,,,,,,,,,,,,,,,,,,,,,,,,,,,,,,,,,,,,,,,,,,,,,,,
,,,,,,,,,,00001463050,2020-10-12_16h09.10.247,swahili,2020.2.4,MacIntel,60,,,,,,,,,,0.457280816,-0.026336806,0,0,1,0.08258,test_pile,11,0,11,0,1,,,,,,,,,,,,,,,,,,,,,,,,,,,,,,,,,,,,,,,,,,,,,,,,,,,,,,,,,,,,,,,,,,,,,,,,,,,,,,,,,
,,,,,,,,,,00001463050,2020-10-12_16h09.10.247,swahili,2020.2.4,MacIntel,60,,,,,,,,,,-0.251155599,-0.016111111,1,0,1,0.431035,unsorted_card,12,0,12,0,1,,,,,,,,,,,,,,,,,,,,,,,,,,,,,,,,,,,,,,,,,,,,,,,,,,,,,,,,,,,,,,,,,,,,,,,,,,,,,,,,,
,,,,,,,,,,00001463050,2020-10-12_16h09.10.247,swahili,2020.2.4,MacIntel,60,,,,,,,,,,-0.244124349,-0.016137153,0,0,1,0.08275,unsorted_card,13,0,13,0,1,PLATE - SAHANI,,,,,,,,,,,,,,,,,,,,,,,,,,,,,,,,,,,,,,,,,,,,,,,,,,,,,,,,,,,,,,,,,,,,,,,,,,,,,,,,
,,,,,,,,,,00001463050,2020-10-12_16h09.10.247,swahili,2020.2.4,MacIntel,60,,,,,,,,,,0.525130208,-0.051944444,1,0,1,0.498995,test_pile,14,0,14,0,1,PLATE - SAHANI,,,,,,,,,,,,,,,,,,,,,,,,,,,,,,,,,,,,,,,,,,,,,,,,,,,,,,,,,,,,,,,,,,,,,,,,,,,,,,,,
,,,,,,,,,,00001463050,2020-10-12_16h09.10.247,swahili,2020.2.4,MacIntel,60,,,,,,,,,,0.527978516,-0.055572917,0,0,1,0.08348,test_pile,15,0,15,0,1,,,,,,,,,,,,,,,,,,,,,,,,,,,,,,,,,,,,,,,,,,,,,,,,,,,,,,,,,,,,,,,,,,,,,,,,,,,,,,,,,
,,,,,,,,,,00001463050,2020-10-12_16h09.10.247,swahili,2020.2.4,MacIntel,60,,,,,,,,,,-0.176866319,-0.064392361,1,0,1,2.49874,unsorted_card,16,0,16,0,1,,,,,,,,,,,,,,,,,,,,,,,,,,,,,,,,,,,,,,,,,,,,,,,,,,,,,,,,,,,,,,,,,,,,,,,,,,,,,,,,,
,,,,,,,,,,00001463050,2020-10-12_16h09.10.247,swahili,2020.2.4,MacIntel,60,,,,,,,,,,-0.176866319,-0.064392361,0,0,1,0.084125,unsorted_card,17,0,17,0,1,YEAST - HAMIRA,,,,,,,,,,,,,,,,,,,,,,,,,,,,,,,,,,,,,,,,,,,,,,,,,,,,,,,,,,,,,,,,,,,,,,,,,,,,,,,,
,,,,,,,,,,00001463050,2020-10-12_16h09.10.247,swahili,2020.2.4,MacIntel,60,,,,,,,,,,0.429172092,0.470729167,1,0,1,0.432045,study_pile,18,0,18,0,1,YEAST - HAMIRA,,,,,,,,,,,,,,,,,,,,,,,,,,,,,,,,,,,,,,,,,,,,,,,,,,,,,,,,,,,,,,,,,,,,,,,,,,,,,,,,
,,,,,,,,,,00001463050,2020-10-12_16h09.10.247,swahili,2020.2.4,MacIntel,60,,,,,,,,,,0.426188151,0.462144097,0,0,1,0.0622,study_pile,19,0,19,0,1,,,,,,,,,,,,,,,,,,,,,,,,,,,,,,,,,,,,,,,,,,,,,,,,,,,,,,,,,,,,,,,,,,,,,,,,,,,,,,,,,
,,,,,,,,,,00001463050,2020-10-12_16h09.10.247,swahili,2020.2.4,MacIntel,60,,,,,,,,,,-0.342914497,-0.038107639,1,0,1,0.28325,unsorted_card,20,0,20,0,1,,,,,,,,,,,,,,,,,,,,,,,,,,,,,,,,,,,,,,,,,,,,,,,,,,,,,,,,,,,,,,,,,,,,,,,,,,,,,,,,,
,,,,,,,,,,00001463050,2020-10-12_16h09.10.247,swahili,2020.2.4,MacIntel,60,,,,,,,,,,-0.325623915,-0.026961806,0,0,1,0.06573,unsorted_card,21,0,21,0,1,BLAME - LAWAMA,,,,,,,,,,,,,,,,,,,,,,,,,,,,,,,,,,,,,,,,,,,,,,,,,,,,,,,,,,,,,,,,,,,,,,,,,,,,,,,,
,,,,,,,,,,00001463050,2020-10-12_16h09.10.247,swahili,2020.2.4,MacIntel,60,,,,,,,,,,0.31859809,0.507881944,1,0,1,0.294865,study_pile,22,0,22,0,1,BLAME - LAWAMA,,,,,,,,,,,,,,,,,,,,,,,,,,,,,,,,,,,,,,,,,,,,,,,,,,,,,,,,,,,,,,,,,,,,,,,,,,,,,,,,
,,,,,,,,,,00001463050,2020-10-12_16h09.10.247,swahili,2020.2.4,MacIntel,60,,,,,,,,,,0.31859809,0.507881944,0,0,1,0.050075,study_pile,23,0,23,0,1,,,,,,,,,,,,,,,,,,,,,,,,,,,,,,,,,,,,,,,,,,,,,,,,,,,,,,,,,,,,,,,,,,,,,,,,,,,,,,,,,
,,,,,,,,,,00001463050,2020-10-12_16h09.10.247,swahili,2020.2.4,MacIntel,60,,,,,,,,,,-0.16648763,0.049131944,1,0,1,0.36593,unsorted_card,24,0,24,0,1,,,,,,,,,,,,,,,,,,,,,,,,,,,,,,,,,,,,,,,,,,,,,,,,,,,,,,,,,,,,,,,,,,,,,,,,,,,,,,,,,
,,,,,,,,,,00001463050,2020-10-12_16h09.10.247,swahili,2020.2.4,MacIntel,60,,,,,,,,,,-0.112798394,0.099322917,0,0,1,0.0812,unsorted_card,25,0,25,0,1,OATH - YAMINI,,,,,,,,,,,,,,,,,,,,,,,,,,,,,,,,,,,,,,,,,,,,,,,,,,,,,,,,,,,,,,,,,,,,,,,,,,,,,,,,
,,,,,,,,,,00001463050,2020-10-12_16h09.10.247,swahili,2020.2.4,MacIntel,60,,,,,,,,,,0.503472222,0.540225694,1,0,1,0.250465,study_pile,26,0,26,0,1,OATH - YAMINI,,,,,,,,,,,,,,,,,,,,,,,,,,,,,,,,,,,,,,,,,,,,,,,,,,,,,,,,,,,,,,,,,,,,,,,,,,,,,,,,
,,,,,,,,,,00001463050,2020-10-12_16h09.10.247,swahili,2020.2.4,MacIntel,60,,,,,,,,,,0.496847873,0.533046875,0,0,1,0.08197,study_pile,27,0,27,0,1,,,,,,,,,,,,,,,,,,,,,,,,,,,,,,,,,,,,,,,,,,,,,,,,,,,,,,,,,,,,,,,,,,,,,,,,,,,,,,,,,
,,,,,,,,,,00001463050,2020-10-12_16h09.10.247,swahili,2020.2.4,MacIntel,60,,,,,,,,,,-0.108365885,0.088654514,1,0,1,0.282575,unsorted_card,28,0,28,0,1,,,,,,,,,,,,,,,,,,,,,,,,,,,,,,,,,,,,,,,,,,,,,,,,,,,,,,,,,,,,,,,,,,,,,,,,,,,,,,,,,
,,,,,,,,,,00001463050,2020-10-12_16h09.10.247,swahili,2020.2.4,MacIntel,60,,,,,,,,,,-0.085861545,0.104123264,0,0,1,0.099945,study_pile,29,0,29,0,1,CORN - NAFAKA,,,,,,,,,,,,,,,,,,,,,,,,,,,,,,,,,,,,,,,,,,,,,,,,,,,,,,,,,,,,,,,,,,,,,,,,,,,,,,,,
,,,,,,,,,,00001463050,2020-10-12_16h09.10.247,swahili,2020.2.4,MacIntel,60,,,,,,,,,,0.430696615,0.418940972,0,0,1,0.08096,study_pile,30,0,30,0,1,,,,,,,,,,,,,,,,,,,,,,,,,,,,,,,,,,,,,,,,,,,,,,,,,,,,,,,,,,,,,,,,,,,,,,,,,,,,,,,,,
,,,,,,,,,,00001463050,2020-10-12_16h09.10.247,swahili,2020.2.4,MacIntel,60,,,,,,,,,,-0.280777995,-0.001432292,1,0,1,0.31723,unsorted_card,31,0,31,0,1,,,,,,,,,,,,,,,,,,,,,,,,,,,,,,,,,,,,,,,,,,,,,,,,,,,,,,,,,,,,,,,,,,,,,,,,,,,,,,,,,
,,,,,,,,,,00001463050,2020-10-12_16h09.10.247,swahili,2020.2.4,MacIntel,60,,,,,,,,,,-0.238753255,0.021276042,0,0,1,0.04887,unsorted_card,32,0,32,0,1,POEM - UTENZI,,,,,,,,,,,,,,,,,,,,,,,,,,,,,,,,,,,,,,,,,,,,,,,,,,,,,,,,,,,,,,,,,,,,,,,,,,,,,,,,
,,,,,,,,,,00001463050,2020-10-12_16h09.10.247,swahili,2020.2.4,MacIntel,60,,,,,,,,,,0.396620009,0.445954861,1,0,1,0.28282,study_pile,33,0,33,0,1,POEM - UTENZI,,,,,,,,,,,,,,,,,,,,,,,,,,,,,,,,,,,,,,,,,,,,,,,,,,,,,,,,,,,,,,,,,,,,,,,,,,,,,,,,
,,,,,,,,,,00001463050,2020-10-12_16h09.10.247,swahili,2020.2.4,MacIntel,60,,,,,,,,,,0.392209201,0.438793403,0,0,1,0.09939,study_pile,34,0,34,0,1,,,,,,,,,,,,,,,,,,,,,,,,,,,,,,,,,,,,,,,,,,,,,,,,,,,,,,,,,,,,,,,,,,,,,,,,,,,,,,,,,
,,,,,,,,,,00001463050,2020-10-12_16h09.10.247,swahili,2020.2.4,MacIntel,60,,,,,,,,,,-0.19047309,0.069505208,1,0,1,0.299355,unsorted_card,35,0,35,0,1,,,,,,,,,,,,,,,,,,,,,,,,,,,,,,,,,,,,,,,,,,,,,,,,,,,,,,,,,,,,,,,,,,,,,,,,,,,,,,,,,
,,,,,,,,,,00001463050,2020-10-12_16h09.10.247,swahili,2020.2.4,MacIntel,60,,,,,,,,,,-0.126123047,0.110190972,0,0,1,0.066255,unsorted_card,36,0,36,0,1,TAILOR - MSHONI,,,,,,,,,,,,,,,,,,,,,,,,,,,,,,,,,,,,,,,,,,,,,,,,,,,,,,,,,,,,,,,,,,,,,,,,,,,,,,,,
,,,,,,,,,,00001463050,2020-10-12_16h09.10.247,swahili,2020.2.4,MacIntel,60,,,,,,,,,,0.522395833,0.460164931,1,0,1,0.24651,study_pile,37,0,37,0,1,TAILOR - MSHONI,,,,,,,,,,,,,,,,,,,,,,,,,,,,,,,,,,,,,,,,,,,,,,,,,,,,,,,,,,,,,,,,,,,,,,,,,,,,,,,,
,,,,,,,,,,00001463050,2020-10-12_16h09.10.247,swahili,2020.2.4,MacIntel,60,,,,,,,,,,0.510617405,0.443237847,0,0,1,0.066155,study_pile,38,0,38,0,1,,,,,,,,,,,,,,,,,,,,,,,,,,,,,,,,,,,,,,,,,,,,,,,,,,,,,,,,,,,,,,,,,,,,,,,,,,,,,,,,,
,,,,,,,,,,00001463050,2020-10-12_16h09.10.247,swahili,2020.2.4,MacIntel,60,,,,,,,,,,-0.207297092,0.023619792,1,0,1,0.315815,unsorted_card,39,0,39,0,1,,,,,,,,,,,,,,,,,,,,,,,,,,,,,,,,,,,,,,,,,,,,,,,,,,,,,,,,,,,,,,,,,,,,,,,,,,,,,,,,,
,,,,,,,,,,00001463050,2020-10-12_16h09.10.247,swahili,2020.2.4,MacIntel,60,,,,,,,,,,-0.170182292,0.048975694,0,0,1,0.065755,unsorted_card,40,0,40,0,1,CHEESE - JIBINI,,,,,,,,,,,,,,,,,,,,,,,,,,,,,,,,,,,,,,,,,,,,,,,,,,,,,,,,,,,,,,,,,,,,,,,,,,,,,,,,
,,,,,,,,,,00001463050,2020-10-12_16h09.10.247,swahili,2020.2.4,MacIntel,60,,,,,,,,,,0.45257704,0.333168403,1,0,1,0.300635,study_pile,41,0,41,0,1,CHEESE - JIBINI,,,,,,,,,,,,,,,,,,,,,,,,,,,,,,,,,,,,,,,,,,,,,,,,,,,,,,,,,,,,,,,,,,,,,,,,,,,,,,,,
,,,,,,,,,,00001463050,2020-10-12_16h09.10.247,swahili,2020.2.4,MacIntel,60,,,,,,,,,,0.382980686,0.4,0,0,1,0.09923,study_pile,42,0,42,0,1,,,,,,,,,,,,,,,,,,,,,,,,,,,,,,,,,,,,,,,,,,,,,,,,,,,,,,,,,,,,,,,,,,,,,,,,,,,,,,,,,
,,,,,,,,,,00001463050,2020-10-12_16h09.10.247,swahili,2020.2.4,MacIntel,60,,,,,,,,,,-0.247216797,-0.025164931,1,0,1,0.298455,unsorted_card,43,0,43,0,1,,,,,,,,,,,,,,,,,,,,,,,,,,,,,,,,,,,,,,,,,,,,,,,,,,,,,,,,,,,,,,,,,,,,,,,,,,,,,,,,,
,,,,,,,,,,00001463050,2020-10-12_16h09.10.247,swahili,2020.2.4,MacIntel,60,,,,,,,,,,-0.215212674,8.6856E-06,0,0,1,0.0652,unsorted_card,44,0,44,0,1,GRAPES - ZABIBU,,,,,,,,,,,,,,,,,,,,,,,,,,,,,,,,,,,,,,,,,,,,,,,,,,,,,,,,,,,,,,,,,,,,,,,,,,,,,,,,
,,,,,,,,,,00001463050,2020-10-12_16h09.10.247,swahili,2020.2.4,MacIntel,60,,,,,,,,,,0.492626953,0.445885417,1,0,1,0.3331,study_pile,45,0,45,0,1,GRAPES - ZABIBU,,,,,,,,,,,,,,,,,,,,,,,,,,,,,,,,,,,,,,,,,,,,,,,,,,,,,,,,,,,,,,,,,,,,,,,,,,,,,,,,
,,,,,,,,,,00001463050,2020-10-12_16h09.10.247,swahili,2020.2.4,MacIntel,60,,,,,,,,,,0.486561415,0.441223958,0,0,1,0.0819,study_pile,46,0,46,0,1,,,,,,,,,,,,,,,,,,,,,,,,,,,,,,,,,,,,,,,,,,,,,,,,,,,,,,,,,,,,,,,,,,,,,,,,,,,,,,,,,
,,,,,,,,,,00001463050,2020-10-12_16h09.10.247,swahili,2020.2.4,MacIntel,60,,,,,,,,,,-0.208761936,-0.059244792,1,0,1,0.349675,unsorted_card,47,0,47,0,1,,,,,,,,,,,,,,,,,,,,,,,,,,,,,,,,,,,,,,,,,,,,,,,,,,,,,,,,,,,,,,,,,,,,,,,,,,,,,,,,,
,,,,,,,,,,00001463050,2020-10-12_16h09.10.247,swahili,2020.2.4,MacIntel,60,,,,,,,,,,-0.090185547,0.025338542,0,0,1,0.081975,study_pile,48,0,48,0,1,GRAVE - KABURI,,,,,,,,,,,,,,,,,,,,,,,,,,,,,,,,,,,,,,,,,,,,,,,,,,,,,,,,,,,,,,,,,,,,,,,,,,,,,,,,
,,,,,,,,,,00001463050,2020-10-12_16h09.10.247,swahili,2020.2.4,MacIntel,60,,,,,,,,,,0.457405599,0.411935764,0,0,1,0.081935,study_pile,49,0,49,0,1,,,,,,,,,,,,,,,,,,,,,,,,,,,,,,,,,,,,,,,,,,,,,,,,,,,,,,,,,,,,,,,,,,,,,,,,,,,,,,,,,
,,,,,,,,,,00001463050,2020-10-12_16h09.10.247,swahili,2020.2.4,MacIntel,60,,,,,,,,,,-0.254557292,-0.009557292,1,0,1,2.29958,unsorted_card,50,0,50,0,1,,,,,,,,,,,,,,,,,,,,,,,,,,,,,,,,,,,,,,,,,,,,,,,,,,,,,,,,,,,,,,,,,,,,,,,,,,,,,,,,,
,,,,,,,,,,00001463050,2020-10-12_16h09.10.247,swahili,2020.2.4,MacIntel,60,,,,,,,,,,-0.222151693,0.007048611,0,0,1,0.080995,unsorted_card,51,0,51,0,1,MANURE - SAMADI,,,,,,,,,,,,,,,,,,,,,,,,,,,,,,,,,,,,,,,,,,,,,,,,,,,,,,,,,,,,,,,,,,,,,,,,,,,,,,,,
,,,,,,,,,,00001463050,2020-10-12_16h09.10.247,swahili,2020.2.4,MacIntel,60,,,,,,,,,,0.347374132,0.491328125,1,0,1,0.2506,study_pile,52,0,52,0,1,MANURE - SAMADI,,,,,,,,,,,,,,,,,,,,,,,,,,,,,,,,,,,,,,,,,,,,,,,,,,,,,,,,,,,,,,,,,,,,,,,,,,,,,,,,
,,,,,,,,,,00001463050,2020-10-12_16h09.10.247,swahili,2020.2.4,MacIntel,60,,,,,,,,,,0.345947266,0.489609375,0,0,1,0.09792,study_pile,53,0,53,0,1,,,,,,,,,,,,,,,,,,,,,,,,,,,,,,,,,,,,,,,,,,,,,,,,,,,,,,,,,,,,,,,,,,,,,,,,,,,,,,,,,
,,,,,,,,,,00001463050,2020-10-12_16h09.10.247,swahili,2020.2.4,MacIntel,60,,,,,,,,,,-0.37961697,-0.012256944,1,0,1,0.283395,unsorted_card,54,0,54,0,1,,,,,,,,,,,,,,,,,,,,,,,,,,,,,,,,,,,,,,,,,,,,,,,,,,,,,,,,,,,,,,,,,,,,,,,,,,,,,,,,,
,,,,,,,,,,00001463050,2020-10-12_16h09.10.247,swahili,2020.2.4,MacIntel,60,,,,,,,,,,-0.303369141,0.018159722,0,0,1,0.082245,unsorted_card,55,0,55,0,1,AGENT - WAKILI,,,,,,,,,,,,,,,,,,,,,,,,,,,,,,,,,,,,,,,,,,,,,,,,,,,,,,,,,,,,,,,,,,,,,,,,,,,,,,,,
,,,,,,,,,,00001463050,2020-10-12_16h09.10.247,swahili,2020.2.4,MacIntel,60,,,,,,,,,,0.768999566,0.626032986,1,0,1,0.24993,study_pile,56,0,56,0,1,AGENT - WAKILI,,,,,,,,,,,,,,,,,,,,,,,,,,,,,,,,,,,,,,,,,,,,,,,,,,,,,,,,,,,,,,,,,,,,,,,,,,,,,,,,
,,,,,,,,,,00001463050,2020-10-12_16h09.10.247,swahili,2020.2.4,MacIntel,60,,,,,,,,,,0.531700304,0.494887153,0,0,1,0.09812,study_pile,57,0,57,0,1,,,,,,,,,,,,,,,,,,,,,,,,,,,,,,,,,,,,,,,,,,,,,,,,,,,,,,,,,,,,,,,,,,,,,,,,,,,,,,,,,
,,,,,,,,,,00001463050,2020-10-12_16h09.10.247,swahili,2020.2.4,MacIntel,60,,,,,,,,,,-0.106792535,0.142647569,1,0,1,0.315645,unsorted_card,58,0,58,0,1,,,,,,,,,,,,,,,,,,,,,,,,,,,,,,,,,,,,,,,,,,,,,,,,,,,,,,,,,,,,,,,,,,,,,,,,,,,,,,,,,
,,,,,,,,,,00001463050,2020-10-12_16h09.10.247,swahili,2020.2.4,MacIntel,60,,,,,,,,,,-0.098090278,0.145928819,0,0,1,0.08384,study_pile,59,0,59,0,1,BRIBE - RUSHWA,,,,,,,,,,,,,,,,,,,,,,,,,,,,,,,,,,,,,,,,,,,,,,,,,,,,,,,,,,,,,,,,,,,,,,,,,,,,,,,,
,,,,,,,,,,00001463050,2020-10-12_16h09.10.247,swahili,2020.2.4,MacIntel,60,,,,,,,,,,0.46515842,0.429609375,0,0,1,0.082025,study_pile,60,0,60,0,1,,,,,,,,,,,,,,,,,,,,,,,,,,,,,,,,,,,,,,,,,,,,,,,,,,,,,,,,,,,,,,,,,,,,,,,,,,,,,,,,,
,,,,,,,,,,00001463050,2020-10-12_16h09.10.247,swahili,2020.2.4,MacIntel,60,,,,,,,,,,-0.175406901,0.091684028,1,0,1,0.3008,unsorted_card,61,0,61,0,1,,,,,,,,,,,,,,,,,,,,,,,,,,,,,,,,,,,,,,,,,,,,,,,,,,,,,,,,,,,,,,,,,,,,,,,,,,,,,,,,,
,,,,,,,,,,00001463050,2020-10-12_16h09.10.247,swahili,2020.2.4,MacIntel,60,,,,,,,,,,-0.125900608,0.114913194,0,0,1,0.08162,unsorted_card,62,0,62,0,1,ORPHAN - YATIMA,,,,,,,,,,,,,,,,,,,,,,,,,,,,,,,,,,,,,,,,,,,,,,,,,,,,,,,,,,,,,,,,,,,,,,,,,,,,,,,,
,,,,,,,,,,00001463050,2020-10-12_16h09.10.247,swahili,2020.2.4,MacIntel,60,,,,,,,,,,0.390163845,0.444583333,1,0,1,0.332635,study_pile,63,0,63,0,1,ORPHAN - YATIMA,,,,,,,,,,,,,,,,,,,,,,,,,,,,,,,,,,,,,,,,,,,,,,,,,,,,,,,,,,,,,,,,,,,,,,,,,,,,,,,,
,,,,,,,,,,00001463050,2020-10-12_16h09.10.247,swahili,2020.2.4,MacIntel,60,,,,,,,,,,0.37960612,0.430998264,0,0,1,0.082405,study_pile,64,0,64,0,1,,,,,,,,,,,,,,,,,,,,,,,,,,,,,,,,,,,,,,,,,,,,,,,,,,,,,,,,,,,,,,,,,,,,,,,,,,,,,,,,,
,,,,,,,,,,00001463050,2020-10-12_16h09.10.247,swahili,2020.2.4,MacIntel,60,,,,,,,,,,-0.315668403,0.01421875,1,0,1,0.279605,unsorted_card,65,0,65,0,1,,,,,,,,,,,,,,,,,,,,,,,,,,,,,,,,,,,,,,,,,,,,,,,,,,,,,,,,,,,,,,,,,,,,,,,,,,,,,,,,,
,,,,,,,,,,00001463050,2020-10-12_16h09.10.247,swahili,2020.2.4,MacIntel,60,,,,,,,,,,-0.304318576,0.017491319,0,0,1,0.067515,unsorted_card,66,0,66,0,1,DIVORCE - TALAKA,,,,,,,,,,,,,,,,,,,,,,,,,,,,,,,,,,,,,,,,,,,,,,,,,,,,,,,,,,,,,,,,,,,,,,,,,,,,,,,,
,,,,,,,,,,00001463050,2020-10-12_16h09.10.247,swahili,2020.2.4,MacIntel,60,,,,,,,,,,0.414832899,0.410946181,1,0,1,0.31454,study_pile,67,0,67,0,1,DIVORCE - TALAKA,,,,,,,,,,,,,,,,,,,,,,,,,,,,,,,,,,,,,,,,,,,,,,,,,,,,,,,,,,,,,,,,,,,,,,,,,,,,,,,,
,,,,,,,,,,00001463050,2020-10-12_16h09.10.247,swahili,2020.2.4,MacIntel,60,,,,,,,,,,0.414035373,0.407960069,0,0,1,0.08306,study_pile,68,0,68,0,1,,,,,,,,,,,,,,,,,,,,,,,,,,,,,,,,,,,,,,,,,,,,,,,,,,,,,,,,,,,,,,,,,,,,,,,,,,,,,,,,,
,,,,,,,,,,00001463050,2020-10-12_16h09.10.247,swahili,2020.2.4,MacIntel,60,,,,,,,,,,-0.309461806,-0.006284722,1,0,1,0.299835,unsorted_card,69,0,69,0,1,,,,,,,,,,,,,,,,,,,,,,,,,,,,,,,,,,,,,,,,,,,,,,,,,,,,,,,,,,,,,,,,,,,,,,,,,,,,,,,,,
,,,,,,,,,,00001463050,2020-10-12_16h09.10.247,swahili,2020.2.4,MacIntel,60,,,,,,,,,,-0.192160373,0.053559028,0,0,1,0.08214,unsorted_card,70,0,70,0,1,BOAT - MASHUA,,,,,,,,,,,,,,,,,,,,,,,,,,,,,,,,,,,,,,,,,,,,,,,,,,,,,,,,,,,,,,,,,,,,,,,,,,,,,,,,
,,,,,,,,,,00001463050,2020-10-12_16h09.10.247,swahili,2020.2.4,MacIntel,60,,,,,,,,,,0.389572483,0.395590278,1,0,1,0.249665,study_pile,71,0,71,0,1,BOAT - MASHUA,,,,,,,,,,,,,,,,,,,,,,,,,,,,,,,,,,,,,,,,,,,,,,,,,,,,,,,,,,,,,,,,,,,,,,,,,,,,,,,,
,,,,,,,,,,00001463050,2020-10-12_16h09.10.247,swahili,2020.2.4,MacIntel,60,,,,,,,,,,0.389908854,0.398420139,0,0,1,0.08198,study_pile,72,0,72,0,1,,,,,,,,,,,,,,,,,,,,,,,,,,,,,,,,,,,,,,,,,,,,,,,,,,,,,,,,,,,,,,,,,,,,,,,,,,,,,,,,,
,,,,,,,,,,00001463050,2020-10-12_16h09.10.247,swahili,2020.2.4,MacIntel,60,,,,,,,,,,-0.353862847,-0.010416667,1,0,1,0.3001,unsorted_card,73,0,73,0,1,,,,,,,,,,,,,,,,,,,,,,,,,,,,,,,,,,,,,,,,,,,,,,,,,,,,,,,,,,,,,,,,,,,,,,,,,,,,,,,,,
,,,,,,,,,,00001463050,2020-10-12_16h09.10.247,swahili,2020.2.4,MacIntel,60,,,,,,,,,,-0.302256944,0.019270833,0,0,1,0.066195,unsorted_card,74,0,74,0,1,TREASURE - DAFINA,,,,,,,,,,,,,,,,,,,,,,,,,,,,,,,,,,,,,,,,,,,,,,,,,,,,,,,,,,,,,,,,,,,,,,,,,,,,,,,,
,,,,,,,,,,00001463050,2020-10-12_16h09.10.247,swahili,2020.2.4,MacIntel,60,,,,,,,,,,0.318234592,0.382074653,1,0,1,0.298555,study_pile,75,0,75,0,1,TREASURE - DAFINA,,,,,,,,,,,,,,,,,,,,,,,,,,,,,,,,,,,,,,,,,,,,,,,,,,,,,,,,,,,,,,,,,,,,,,,,,,,,,,,,
,,,,,,,,,,00001463050,2020-10-12_16h09.10.247,swahili,2020.2.4,MacIntel,60,,,,,,,,,,,,,,,,,,,,,,,0.32430013,0.385269097,0,0,1,0.065845,test_first,,,,,0,0,0,0,1,,,,,,,,,,,,,,,,,,,,,,,,,,,,,,,,,,,,,,,,,,,,,,,,,,,,,,,,,,,,,,,,
,,,,,,,,,,00001463050,2020-10-12_16h09.10.247,swahili,2020.2.4,MacIntel,60,,,,,,,,,,,,,,,,,,,,,,,,,,,,,,,,,,,,,,,return,,,,,,,,,,,1.915465,4.59854,0.354128689,-0.058515625,1,0,1,0.899935,yes,PLATE,SATINI,incorrect,0,0,0,0,1,,,,,,,,,,,,,,,,,,,,,,,,,,,,,,,,,,,,
,,,,,,,,,,00001463050,2020-10-12_16h09.10.247,swahili,2020.2.4,MacIntel,60,,,,,,,,,,,,,,,,,,,,,,,,,,,,,,,,,,,,,,,,,,,,,,,,,,,3.982195,0.354128689,-0.058515625,1,0,1,0.700195,yes,PARROT,KALAKA,incorrect,1,0,1,0,1,,,,,,,,,,,,,,,,,,,,,,,,,,,,,,,,,,,,
,,,,,,,,,,00001463050,2020-10-12_16h09.10.247,swahili,2020.2.4,MacIntel,60,,,,,,,,,,,,,,,,,,,,,,,,,,,,,,,,,,,,,,,,,,,,,,,,,,,4.781615,0.370833333,-0.062916667,1,0,1,0.517405,yes,BULL,TAJIRA,incorrect,2,0,2,0,1,,,,,,,,,,,,,,,,,,,,,,,,,,,,,,,,,,,,
,,,,,,,,,,00001463050,2020-10-12_16h09.10.247,swahili,2020.2.4,MacIntel,60,,,,,,,,,,,,,,,,,,,,,,,,,,,,,,,,,,,,,,,,,,,,,,,,,,,5.66456,0.355940755,-0.091388889,1,0,1,0.801905,yes,MERCHANT,KOMOKO,incorrect,3,0,3,0,1,,,,,,,,,,,,,,,,,,,,,,,,,,,,,,,,,,,,
,,,,,,,,,,00001463050,2020-10-12_16h09.10.247,swahili,2020.2.4,MacIntel,60,,,,,,,,,,,,,,,,,,,,,,,,,,,,,,,,,,,,,,,,0,0,0,0,1,,,,,,,,,,,,,,,,,,,,,,,,,,,,,,,,,,,,,,,,,,,,,,,,,,,,,,,,,,
,,,,,,,,,,00001463050,2020-10-12_16h09.10.247,swahili,2020.2.4,MacIntel,60,,,,,,,,,,,,,,,,,,,,,,DIVORCE - TALAKA,,,,,,,,return,1.016375,return,16.46976,0,0,0,0,1,,,,,,,,,,,,,,,,,,,,,,,,,,,,,,,,,,,,,,,,,,,,,,,,,,,,,,,,,,,,,,,,
,,,,,,,,,,00001463050,2020-10-12_16h09.10.247,swahili,2020.2.4,MacIntel,60,,,,,,,,,,,,,,,,,,,,,,AGENT - WAKILI,,,,,,,,,,return,0.133775,1,0,1,0,1,,,,,,,,,,,,,,,,,,,,,,,,,,,,,,,,,,,,,,,,,,,,,,,,,,,,,,,,,,,,,,,,
,,,,,,,,,,00001463050,2020-10-12_16h09.10.247,swahili,2020.2.4,MacIntel,60,,,,,,,,,,,,,,,,,,,,,,CHEESE - JIBINI,,,,,,,,,,return,0.149495,2,0,2,0,1,,,,,,,,,,,,,,,,,,,,,,,,,,,,,,,,,,,,,,,,,,,,,,,,,,,,,,,,,,,,,,,,
,,,,,,,,,,00001463050,2020-10-12_16h09.10.247,swahili,2020.2.4,MacIntel,60,,,,,,,,,,,,,,,,,,,,,,BRIBE - RUSHWA,,,,,,,,,,return,0.136355,3,0,3,0,1,,,,,,,,,,,,,,,,,,,,,,,,,,,,,,,,,,,,,,,,,,,,,,,,,,,,,,,,,,,,,,,,
,,,,,,,,,,00001463050,2020-10-12_16h09.10.247,swahili,2020.2.4,MacIntel,60,,,,,,,,,,,,,,,,,,,,,,BLAME - LAWAMA,,,,,,,,,,return,0.415525,4,0,4,0,1,,,,,,,,,,,,,,,,,,,,,,,,,,,,,,,,,,,,,,,,,,,,,,,,,,,,,,,,,,,,,,,,
,,,,,,,,,,00001463050,2020-10-12_16h09.10.247,swahili,2020.2.4,MacIntel,60,,,,,,,,,,,,,,,,,,,,,,OATH - YAMINI,,,,,,,,,,return,0.270135,5,0,5,0,1,,,,,,,,,,,,,,,,,,,,,,,,,,,,,,,,,,,,,,,,,,,,,,,,,,,,,,,,,,,,,,,,
,,,,,,,,,,00001463050,2020-10-12_16h09.10.247,swahili,2020.2.4,MacIntel,60,,,,,,,,,,,,,,,,,,,,,,POEM - UTENZI,,,,,,,,,,return,0.23168,6,0,6,0,1,,,,,,,,,,,,,,,,,,,,,,,,,,,,,,,,,,,,,,,,,,,,,,,,,,,,,,,,,,,,,,,,
,,,,,,,,,,00001463050,2020-10-12_16h09.10.247,swahili,2020.2.4,MacIntel,60,,,,,,,,,,,,,,,,,,,,,,YEAST - HAMIRA,,,,,,,,,,return,0.24731,7,0,7,0,1,,,,,,,,,,,,,,,,,,,,,,,,,,,,,,,,,,,,,,,,,,,,,,,,,,,,,,,,,,,,,,,,
,,,,,,,,,,00001463050,2020-10-12_16h09.10.247,swahili,2020.2.4,MacIntel,60,,,,,,,,,,,,,,,,,,,,,,TREASURE - DAFINA,,,,,,,,,,return,0.234355,8,0,8,0,1,,,,,,,,,,,,,,,,,,,,,,,,,,,,,,,,,,,,,,,,,,,,,,,,,,,,,,,,,,,,,,,,
,,,,,,,,,,00001463050,2020-10-12_16h09.10.247,swahili,2020.2.4,MacIntel,60,,,,,,,,,,,,,,,,,,,,,,MANURE - SAMADI,,,,,,,,,,return,0.284245,9,0,9,0,1,,,,,,,,,,,,,,,,,,,,,,,,,,,,,,,,,,,,,,,,,,,,,,,,,,,,,,,,,,,,,,,,
,,,,,,,,,,00001463050,2020-10-12_16h09.10.247,swahili,2020.2.4,MacIntel,60,,,,,,,,,,,,,,,,,,,,,,ORPHAN - YATIMA,,,,,,,,,,return,0.217265,10,0,10,0,1,,,,,,,,,,,,,,,,,,,,,,,,,,,,,,,,,,,,,,,,,,,,,,,,,,,,,,,,,,,,,,,,
,,,,,,,,,,00001463050,2020-10-12_16h09.10.247,swahili,2020.2.4,MacIntel,60,,,,,,,,,,,,,,,,,,,,,,GRAPES - ZABIBU,,,,,,,,,,return,0.16823,11,0,11,0,1,,,,,,,,,,,,,,,,,,,,,,,,,,,,,,,,,,,,,,,,,,,,,,,,,,,,,,,,,,,,,,,,
,,,,,,,,,,00001463050,2020-10-12_16h09.10.247,swahili,2020.2.4,MacIntel,60,,,,,,,,,,,,,,,,,,,,,,BOAT - MASHUA,,,,,,,,,,return,0.183025,12,0,12,0,1,,,,,,,,,,,,,,,,,,,,,,,,,,,,,,,,,,,,,,,,,,,,,,,,,,,,,,,,,,,,,,,,
,,,,,,,,,,00001463050,2020-10-12_16h09.10.247,swahili,2020.2.4,MacIntel,60,,,,,,,,,,,,,,,,,,,,,,GRAVE - KABURI,,,,,,,,,,return,0.19651,13,0,13,0,1,,,,,,,,,,,,,,,,,,,,,,,,,,,,,,,,,,,,,,,,,,,,,,,,,,,,,,,,,,,,,,,,
,,,,,,,,,,00001463050,2020-10-12_16h09.10.247,swahili,2020.2.4,MacIntel,60,,,,,,,,,,,,,,,,,,,,,,CORN - NAFAKA,,,,,,,,,,return,0.197265,14,0,14,0,1,,,,,,,,,,,,,,,,,,,,,,,,,,,,,,,,,,,,,,,,,,,,,,,,,,,,,,,,,,,,,,,,
,,,,,,,,,,00001463050,2020-10-12_16h09.10.247,swahili,2020.2.4,MacIntel,60,,,,,,,,,,,,,,,,,,,,,,TAILOR - MSHONI,,,,,,,,,,return,0.204025,15,0,15,0,1,,,,,,,,,,,,,,,,,,,,,,,,,,,,,,,,,,,,,,,,,,,,,,,,,,,,,,,,,,,,,,,,
,,,,,,,,,,00001463050,2020-10-12_16h09.10.247,swahili,2020.2.4,MacIntel,60,,,,,,,,,,,,,,,,,,,,,,,,,,,,,,,,,,,,,,,,1,0,1,0,1,,,,,,,,,,,,,,,,,,,,,,,,,,,,,,,,,,,,,,,,,,,,,,,,,,,,,,,,,,
,,,,,,,,,,00001463050,2020-10-12_16h09.10.247,swahili,2020.2.4,MacIntel,60,,,,,,,,,,,,,,,,,,,,,,,,,,,,,,,,,,,,,,,,,,,,,3,0,3,0,1,,,,,,,,,,,,,,,,,,,,,,,,,,,,,,,,,,,,,,,,,,,,,,,,,,,,,
,,,,,,,,,,00001463050,2020-10-12_16h09.10.247,swahili,2020.2.4,MacIntel,60,,,,,,,,,,-0.210346137,-0.100234375,1,0,1,1.87397,unsorted_card,0,0,0,0,1,,,,,,,,,,,,,,,,,,,,,,,,,,,,,,,,,,,,,,,,,,,,,,,,,,,,,,,,,,,,,,,,,,,,,,,,,,,,,,,,,
,,,,,,,,,,00001463050,2020-10-12_16h09.10.247,swahili,2020.2.4,MacIntel,60,,,,,,,,,,-0.210009766,-0.100234375,0,0,1,0.08337,unsorted_card,1,0,1,0,1,MERCHANT - TAJIRI,,,,,,,,,,,,,,,,,,,,,,,,,,,,,,,,,,,,,,,,,,,,,,,,,,,,,,,,,,,,,,,,,,,,,,,,,,,,,,,,
,,,,,,,,,,00001463050,2020-10-12_16h09.10.247,swahili,2020.2.4,MacIntel,60,,,,,,,,,,0.41569553,0.004314236,1,0,1,9.13042,test_pile,2,0,2,0,1,MERCHANT - TAJIRI,,,,,,,,,,,,,,,,,,,,,,,,,,,,,,,,,,,,,,,,,,,,,,,,,,,,,,,,,,,,,,,,,,,,,,,,,,,,,,,,
,,,,,,,,,,00001463050,2020-10-12_16h09.10.247,swahili,2020.2.4,MacIntel,60,,,,,,,,,,0.41569553,0.004314236,0,0,1,0.14728,test_pile,3,0,3,0,1,,,,,,,,,,,,,,,,,,,,,,,,,,,,,,,,,,,,,,,,,,,,,,,,,,,,,,,,,,,,,,,,,,,,,,,,,,,,,,,,,
,,,,,,,,,,00001463050,2020-10-12_16h09.10.247,swahili,2020.2.4,MacIntel,60,,,,,,,,,,-0.181510417,0.017803819,1,0,1,0.450135,unsorted_card,4,0,4,0,1,,,,,,,,,,,,,,,,,,,,,,,,,,,,,,,,,,,,,,,,,,,,,,,,,,,,,,,,,,,,,,,,,,,,,,,,,,,,,,,,,
,,,,,,,,,,00001463050,2020-10-12_16h09.10.247,swahili,2020.2.4,MacIntel,60,,,,,,,,,,-0.181510417,0.017803819,0,0,1,0.09858,unsorted_card,5,0,5,0,1,PARROT - KASUKU,,,,,,,,,,,,,,,,,,,,,,,,,,,,,,,,,,,,,,,,,,,,,,,,,,,,,,,,,,,,,,,,,,,,,,,,,,,,,,,,
,,,,,,,,,,00001463050,2020-10-12_16h09.10.247,swahili,2020.2.4,MacIntel,60,,,,,,,,,,0.457351345,0.000920139,1,0,1,9.11658,test_pile,6,0,6,0,1,PARROT - KASUKU,,,,,,,,,,,,,,,,,,,,,,,,,,,,,,,,,,,,,,,,,,,,,,,,,,,,,,,,,,,,,,,,,,,,,,,,,,,,,,,,
,,,,,,,,,,00001463050,2020-10-12_16h09.10.247,swahili,2020.2.4,MacIntel,60,,,,,,,,,,0.457351345,0.000920139,0,0,1,0.08241,test_pile,7,0,7,0,1,,,,,,,,,,,,,,,,,,,,,,,,,,,,,,,,,,,,,,,,,,,,,,,,,,,,,,,,,,,,,,,,,,,,,,,,,,,,,,,,,
,,,,,,,,,,00001463050,2020-10-12_16h09.10.247,swahili,2020.2.4,MacIntel,60,,,,,,,,,,-0.208447266,0.016024306,1,0,1,2.398625,unsorted_card,8,0,8,0,1,,,,,,,,,,,,,,,,,,,,,,,,,,,,,,,,,,,,,,,,,,,,,,,,,,,,,,,,,,,,,,,,,,,,,,,,,,,,,,,,,
,,,,,,,,,,00001463050,2020-10-12_16h09.10.247,swahili,2020.2.4,MacIntel,60,,,,,,,,,,-0.208447266,0.016024306,0,0,1,0.099465,unsorted_card,9,0,9,0,1,BULL - FAHILI,,,,,,,,,,,,,,,,,,,,,,,,,,,,,,,,,,,,,,,,,,,,,,,,,,,,,,,,,,,,,,,,,,,,,,,,,,,,,,,,
,,,,,,,,,,00001463050,2020-10-12_16h09.10.247,swahili,2020.2.4,MacIntel,60,,,,,,,,,,0.517388238,0.000381944,1,0,1,18.332715,test_pile,10,0,10,0,1,BULL - FAHILI,,,,,,,,,,,,,,,,,,,,,,,,,,,,,,,,,,,,,,,,,,,,,,,,,,,,,,,,,,,,,,,,,,,,,,,,,,,,,,,,
,,,,,,,,,,00001463050,2020-10-12_16h09.10.247,swahili,2020.2.4,MacIntel,60,,,,,,,,,,0.517388238,0.000381944,0,0,1,0.081045,test_pile,11,0,11,0,1,,,,,,,,,,,,,,,,,,,,,,,,,,,,,,,,,,,,,,,,,,,,,,,,,,,,,,,,,,,,,,,,,,,,,,,,,,,,,,,,,
,,,,,,,,,,00001463050,2020-10-12_16h09.10.247,swahili,2020.2.4,MacIntel,60,,,,,,,,,,-0.227159288,0.027890625,1,0,1,0.7001,unsorted_card,12,0,12,0,1,,,,,,,,,,,,,,,,,,,,,,,,,,,,,,,,,,,,,,,,,,,,,,,,,,,,,,,,,,,,,,,,,,,,,,,,,,,,,,,,,
,,,,,,,,,,00001463050,2020-10-12_16h09.10.247,swahili,2020.2.4,MacIntel,60,,,,,,,,,,-0.191965061,0.051666667,0,0,1,0.080955,unsorted_card,13,0,13,0,1,PLATE - SAHANI,,,,,,,,,,,,,,,,,,,,,,,,,,,,,,,,,,,,,,,,,,,,,,,,,,,,,,,,,,,,,,,,,,,,,,,,,,,,,,,,
,,,,,,,,,,00001463050,2020-10-12_16h09.10.247,swahili,2020.2.4,MacIntel,60,,,,,,,,,,0.423828125,0.428012153,1,0,1,0.60036,study_pile,14,0,14,0,1,PLATE - SAHANI,,,,,,,,,,,,,,,,,,,,,,,,,,,,,,,,,,,,,,,,,,,,,,,,,,,,,,,,,,,,,,,,,,,,,,,,,,,,,,,,
,,,,,,,,,,00001463050,2020-10-12_16h09.10.247,swahili,2020.2.4,MacIntel,60,,,,,,,,,,0.410660807,0.416067708,0,0,1,0.08311,study_pile,15,0,15,0,1,,,,,,,,,,,,,,,,,,,,,,,,,,,,,,,,,,,,,,,,,,,,,,,,,,,,,,,,,,,,,,,,,,,,,,,,,,,,,,,,,
,,,,,,,,,,00001463050,2020-10-12_16h09.10.247,swahili,2020.2.4,MacIntel,60,,,,,,,,,,-0.182188585,0.068463542,1,0,1,0.2985,unsorted_card,16,0,16,0,1,,,,,,,,,,,,,,,,,,,,,,,,,,,,,,,,,,,,,,,,,,,,,,,,,,,,,,,,,,,,,,,,,,,,,,,,,,,,,,,,,
,,,,,,,,,,00001463050,2020-10-12_16h09.10.247,swahili,2020.2.4,MacIntel,60,,,,,,,,,,-0.157980686,0.088029514,0,0,1,0.06711,unsorted_card,17,0,17,0,1,YEAST - HAMIRA,,,,,,,,,,,,,,,,,,,,,,,,,,,,,,,,,,,,,,,,,,,,,,,,,,,,,,,,,,,,,,,,,,,,,,,,,,,,,,,,
,,,,,,,,,,00001463050,2020-10-12_16h09.10.247,swahili,2020.2.4,MacIntel,60,,,,,,,,,,0.413997396,0.445538194,1,0,1,0.316685,study_pile,18,0,18,0,1,YEAST - HAMIRA,,,,,,,,,,,,,,,,,,,,,,,,,,,,,,,,,,,,,,,,,,,,,,,,,,,,,,,,,,,,,,,,,,,,,,,,,,,,,,,,
,,,,,,,,,,00001463050,2020-10-12_16h09.10.247,swahili,2020.2.4,MacIntel,60,,,,,,,,,,0.416265191,0.442456597,0,0,1,0.06346,study_pile,19,0,19,0,1,,,,,,,,,,,,,,,,,,,,,,,,,,,,,,,,,,,,,,,,,,,,,,,,,,,,,,,,,,,,,,,,,,,,,,,,,,,,,,,,,
,,,,,,,,,,00001463050,2020-10-12_16h09.10.247,swahili,2020.2.4,MacIntel,60,,,,,,,,,,-0.293945313,0.065746528,1,0,1,0.28425,unsorted_card,20,0,20,0,1,,,,,,,,,,,,,,,,,,,,,,,,,,,,,,,,,,,,,,,,,,,,,,,,,,,,,,,,,,,,,,,,,,,,,,,,,,,,,,,,,
,,,,,,,,,,00001463050,2020-10-12_16h09.10.247,swahili,2020.2.4,MacIntel,60,,,,,,,,,,-0.277001953,0.081388889,0,0,1,0.082295,unsorted_card,21,0,21,0,1,BLAME - LAWAMA,,,,,,,,,,,,,,,,,,,,,,,,,,,,,,,,,,,,,,,,,,,,,,,,,,,,,,,,,,,,,,,,,,,,,,,,,,,,,,,,
,,,,,,,,,,00001463050,2020-10-12_16h09.10.247,swahili,2020.2.4,MacIntel,60,,,,,,,,,,0.43352322,0.485807292,1,0,1,0.300495,study_pile,22,0,22,0,1,BLAME - LAWAMA,,,,,,,,,,,,,,,,,,,,,,,,,,,,,,,,,,,,,,,,,,,,,,,,,,,,,,,,,,,,,,,,,,,,,,,,,,,,,,,,
,,,,,,,,,,00001463050,2020-10-12_16h09.10.247,swahili,2020.2.4,MacIntel,60,,,,,,,,,,0.43274197,0.481831597,0,0,1,0.06606,study_pile,23,0,23,0,1,,,,,,,,,,,,,,,,,,,,,,,,,,,,,,,,,,,,,,,,,,,,,,,,,,,,,,,,,,,,,,,,,,,,,,,,,,,,,,,,,
,,,,,,,,,,00001463050,2020-10-12_16h09.10.247,swahili,2020.2.4,MacIntel,60,,,,,,,,,,-0.32898763,0.016753472,1,0,1,0.31332,unsorted_card,24,0,24,0,1,,,,,,,,,,,,,,,,,,,,,,,,,,,,,,,,,,,,,,,,,,,,,,,,,,,,,,,,,,,,,,,,,,,,,,,,,,,,,,,,,
,,,,,,,,,,00001463050,2020-10-12_16h09.10.247,swahili,2020.2.4,MacIntel,60,,,,,,,,,,-0.315136719,0.024791667,0,0,1,0.06723,unsorted_card,25,0,25,0,1,OATH - YAMINI,,,,,,,,,,,,,,,,,,,,,,,,,,,,,,,,,,,,,,,,,,,,,,,,,,,,,,,,,,,,,,,,,,,,,,,,,,,,,,,,
,,,,,,,,,,00001463050,2020-10-12_16h09.10.247,swahili,2020.2.4,MacIntel,60,,,,,,,,,,0.454720052,0.453055556,1,0,1,0.316125,study_pile,26,0,26,0,1,OATH - YAMINI,,,,,,,,,,,,,,,,,,,,,,,,,,,,,,,,,,,,,,,,,,,,,,,,,,,,,,,,,,,,,,,,,,,,,,,,,,,,,,,,
,,,,,,,,,,00001463050,2020-10-12_16h09.10.247,swahili,2020.2.4,MacIntel,60,,,,,,,,,,0.45343967,0.451015625,0,0,1,0.06454,study_pile,27,0,27,0,1,,,,,,,,,,,,,,,,,,,,,,,,,,,,,,,,,,,,,,,,,,,,,,,,,,,,,,,,,,,,,,,,,,,,,,,,,,,,,,,,,
,,,,,,,,,,00001463050,2020-10-12_16h09.10.247,swahili,2020.2.4,MacIntel,60,,,,,,,,,,-0.32867296,0.050711806,1,0,1,0.248985,unsorted_card,28,0,28,0,1,,,,,,,,,,,,,,,,,,,,,,,,,,,,,,,,,,,,,,,,,,,,,,,,,,,,,,,,,,,,,,,,,,,,,,,,,,,,,,,,,
,,,,,,,,,,00001463050,2020-10-12_16h09.10.247,swahili,2020.2.4,MacIntel,60,,,,,,,,,,-0.290690104,0.071293403,0,0,1,0.11744,unsorted_card,29,0,29,0,1,CORN - NAFAKA,,,,,,,,,,,,,,,,,,,,,,,,,,,,,,,,,,,,,,,,,,,,,,,,,,,,,,,,,,,,,,,,,,,,,,,,,,,,,,,,
,,,,,,,,,,00001463050,2020-10-12_16h09.10.247,swahili,2020.2.4,MacIntel,60,,,,,,,,,,0.595030382,0.445920139,1,0,1,0.26476,study_pile,30,0,30,0,1,CORN - NAFAKA,,,,,,,,,,,,,,,,,,,,,,,,,,,,,,,,,,,,,,,,,,,,,,,,,,,,,,,,,,,,,,,,,,,,,,,,,,,,,,,,
,,,,,,,,,,00001463050,2020-10-12_16h09.10.247,swahili,2020.2.4,MacIntel,60,,,,,,,,,,0.594335938,0.441762153,0,0,1,0.099125,study_pile,31,0,31,0,1,,,,,,,,,,,,,,,,,,,,,,,,,,,,,,,,,,,,,,,,,,,,,,,,,,,,,,,,,,,,,,,,,,,,,,,,,,,,,,,,,
,,,,,,,,,,00001463050,2020-10-12_16h09.10.247,swahili,2020.2.4,MacIntel,60,,,,,,,,,,-0.378477648,-0.042213542,1,0,1,0.282785,unsorted_card,32,0,32,0,1,,,,,,,,,,,,,,,,,,,,,,,,,,,,,,,,,,,,,,,,,,,,,,,,,,,,,,,,,,,,,,,,,,,,,,,,,,,,,,,,,
,,,,,,,,,,00001463050,2020-10-12_16h09.10.247,swahili,2020.2.4,MacIntel,60,,,,,,,,,,-0.364751519,-0.036119792,0,0,1,0.066255,unsorted_card,33,0,33,0,1,POEM - UTENZI,,,,,,,,,,,,,,,,,,,,,,,,,,,,,,,,,,,,,,,,,,,,,,,,,,,,,,,,,,,,,,,,,,,,,,,,,,,,,,,,
,,,,,,,,,,00001463050,2020-10-12_16h09.10.247,swahili,2020.2.4,MacIntel,60,,,,,,,,,,0.424565972,0.429019097,1,0,1,0.366815,study_pile,34,0,34,0,1,POEM - UTENZI,,,,,,,,,,,,,,,,,,,,,,,,,,,,,,,,,,,,,,,,,,,,,,,,,,,,,,,,,,,,,,,,,,,,,,,,,,,,,,,,
,,,,,,,,,,00001463050,2020-10-12_16h09.10.247,swahili,2020.2.4,MacIntel,60,,,,,,,,,,0.417930773,0.417274306,0,0,1,0.082505,study_pile,35,0,35,0,1,,,,,,,,,,,,,,,,,,,,,,,,,,,,,,,,,,,,,,,,,,,,,,,,,,,,,,,,,,,,,,,,,,,,,,,,,,,,,,,,,
,,,,,,,,,,00001463050,2020-10-12_16h09.10.247,swahili,2020.2.4,MacIntel,60,,,,,,,,,,-0.304622396,-0.017612847,1,0,1,0.281925,unsorted_card,36,0,36,0,1,,,,,,,,,,,,,,,,,,,,,,,,,,,,,,,,,,,,,,,,,,,,,,,,,,,,,,,,,,,,,,,,,,,,,,,,,,,,,,,,,
,,,,,,,,,,00001463050,2020-10-12_16h09.10.247,swahili,2020.2.4,MacIntel,60,,,,,,,,,,-0.279383681,-5.2833E-05,0,0,1,0.083205,unsorted_card,37,0,37,0,1,TAILOR - MSHONI,,,,,,,,,,,,,,,,,,,,,,,,,,,,,,,,,,,,,,,,,,,,,,,,,,,,,,,,,,,,,,,,,,,,,,,,,,,,,,,,
,,,,,,,,,,00001463050,2020-10-12_16h09.10.247,swahili,2020.2.4,MacIntel,60,,,,,,,,,,0.587239583,0.387743056,1,0,1,0.232665,study_pile,38,0,38,0,1,TAILOR - MSHONI,,,,,,,,,,,,,,,,,,,,,,,,,,,,,,,,,,,,,,,,,,,,,,,,,,,,,,,,,,,,,,,,,,,,,,,,,,,,,,,,
,,,,,,,,,,00001463050,2020-10-12_16h09.10.247,swahili,2020.2.4,MacIntel,60,,,,,,,,,,0.583257378,0.387743056,0,0,1,0.09954,study_pile,39,0,39,0,1,,,,,,,,,,,,,,,,,,,,,,,,,,,,,,,,,,,,,,,,,,,,,,,,,,,,,,,,,,,,,,,,,,,,,,,,,,,,,,,,,
,,,,,,,,,,00001463050,2020-10-12_16h09.10.247,swahili,2020.2.4,MacIntel,60,,,,,,,,,,-0.12953559,0.045147569,1,0,1,0.31573,unsorted_card,40,0,40,0,1,,,,,,,,,,,,,,,,,,,,,,,,,,,,,,,,,,,,,,,,,,,,,,,,,,,,,,,,,,,,,,,,,,,,,,,,,,,,,,,,,
,,,,,,,,,,00001463050,2020-10-12_16h09.10.247,swahili,2020.2.4,MacIntel,60,,,,,,,,,,-0.127267795,0.045147569,0,0,1,0.096415,unsorted_card,41,0,41,0,1,CHEESE - JIBINI,,,,,,,,,,,,,,,,,,,,,,,,,,,,,,,,,,,,,,,,,,,,,,,,,,,,,,,,,,,,,,,,,,,,,,,,,,,,,,,,
,,,,,,,,,,00001463050,2020-10-12_16h09.10.247,swahili,2020.2.4,MacIntel,60,,,,,,,,,,0.496516927,0.470512153,1,0,1,0.266935,study_pile,42,0,42,0,1,CHEESE - JIBINI,,,,,,,,,,,,,,,,,,,,,,,,,,,,,,,,,,,,,,,,,,,,,,,,,,,,,,,,,,,,,,,,,,,,,,,,,,,,,,,,
,,,,,,,,,,00001463050,2020-10-12_16h09.10.247,swahili,2020.2.4,MacIntel,60,,,,,,,,,,0.487830946,0.456953125,0,0,1,0.101515,study_pile,43,0,43,0,1,,,,,,,,,,,,,,,,,,,,,,,,,,,,,,,,,,,,,,,,,,,,,,,,,,,,,,,,,,,,,,,,,,,,,,,,,,,,,,,,,
,,,,,,,,,,00001463050,2020-10-12_16h09.10.247,swahili,2020.2.4,MacIntel,60,,,,,,,,,,-0.241688368,0.029548611,1,0,1,0.24693,unsorted_card,44,0,44,0,1,,,,,,,,,,,,,,,,,,,,,,,,,,,,,,,,,,,,,,,,,,,,,,,,,,,,,,,,,,,,,,,,,,,,,,,,,,,,,,,,,
,,,,,,,,,,00001463050,2020-10-12_16h09.10.247,swahili,2020.2.4,MacIntel,60,,,,,,,,,,-0.213872613,0.051710069,0,0,1,0.10043,unsorted_card,45,0,45,0,1,GRAPES - ZABIBU,,,,,,,,,,,,,,,,,,,,,,,,,,,,,,,,,,,,,,,,,,,,,,,,,,,,,,,,,,,,,,,,,,,,,,,,,,,,,,,,
,,,,,,,,,,00001463050,2020-10-12_16h09.10.247,swahili,2020.2.4,MacIntel,60,,,,,,,,,,0.471918403,0.461814236,1,0,1,0.247355,study_pile,46,0,46,0,1,GRAPES - ZABIBU,,,,,,,,,,,,,,,,,,,,,,,,,,,,,,,,,,,,,,,,,,,,,,,,,,,,,,,,,,,,,,,,,,,,,,,,,,,,,,,,
,,,,,,,,,,00001463050,2020-10-12_16h09.10.247,swahili,2020.2.4,MacIntel,60,,,,,,,,,,0.469015842,0.453107639,0,0,1,0.081265,study_pile,47,0,47,0,1,,,,,,,,,,,,,,,,,,,,,,,,,,,,,,,,,,,,,,,,,,,,,,,,,,,,,,,,,,,,,,,,,,,,,,,,,,,,,,,,,
,,,,,,,,,,00001463050,2020-10-12_16h09.10.247,swahili,2020.2.4,MacIntel,60,,,,,,,,,,-0.1871148,0.084149306,1,0,1,0.28286,unsorted_card,48,0,48,0,1,,,,,,,,,,,,,,,,,,,,,,,,,,,,,,,,,,,,,,,,,,,,,,,,,,,,,,,,,,,,,,,,,,,,,,,,,,,,,,,,,
,,,,,,,,,,00001463050,2020-10-12_16h09.10.247,swahili,2020.2.4,MacIntel,60,,,,,,,,,,-0.170458984,0.092977431,0,0,1,0.06672,unsorted_card,49,0,49,0,1,GRAVE - KABURI,,,,,,,,,,,,,,,,,,,,,,,,,,,,,,,,,,,,,,,,,,,,,,,,,,,,,,,,,,,,,,,,,,,,,,,,,,,,,,,,
,,,,,,,,,,00001463050,2020-10-12_16h09.10.247,swahili,2020.2.4,MacIntel,60,,,,,,,,,,0.508902995,0.457118056,1,0,1,0.282765,study_pile,50,0,50,0,1,GRAVE - KABURI,,,,,,,,,,,,,,,,,,,,,,,,,,,,,,,,,,,,,,,,,,,,,,,,,,,,,,,,,,,,,,,,,,,,,,,,,,,,,,,,
,,,,,,,,,,00001463050,2020-10-12_16h09.10.247,swahili,2020.2.4,MacIntel,60,,,,,,,,,,0.505029297,0.454262153,0,0,1,0.08273,study_pile,51,0,51,0,1,,,,,,,,,,,,,,,,,,,,,,,,,,,,,,,,,,,,,,,,,,,,,,,,,,,,,,,,,,,,,,,,,,,,,,,,,,,,,,,,,
,,,,,,,,,,00001463050,2020-10-12_16h09.10.247,swahili,2020.2.4,MacIntel,60,,,,,,,,,,-0.164160156,0.050659722,1,0,1,0.31666,unsorted_card,52,0,52,0,1,,,,,,,,,,,,,,,,,,,,,,,,,,,,,,,,,,,,,,,,,,,,,,,,,,,,,,,,,,,,,,,,,,,,,,,,,,,,,,,,,
,,,,,,,,,,00001463050,2020-10-12_16h09.10.247,swahili,2020.2.4,MacIntel,60,,,,,,,,,,-0.13836263,0.064001736,0,0,1,0.082155,unsorted_card,53,0,53,0,1,MANURE - SAMADI,,,,,,,,,,,,,,,,,,,,,,,,,,,,,,,,,,,,,,,,,,,,,,,,,,,,,,,,,,,,,,,,,,,,,,,,,,,,,,,,
,,,,,,,,,,00001463050,2020-10-12_16h09.10.247,swahili,2020.2.4,MacIntel,60,,,,,,,,,,0.448090278,0.460598958,1,0,1,0.25027,study_pile,54,0,54,0,1,MANURE - SAMADI,,,,,,,,,,,,,,,,,,,,,,,,,,,,,,,,,,,,,,,,,,,,,,,,,,,,,,,,,,,,,,,,,,,,,,,,,,,,,,,,
,,,,,,,,,,00001463050,2020-10-12_16h09.10.247,swahili,2020.2.4,MacIntel,60,,,,,,,,,,0.448415799,0.454930556,0,0,1,0.09788,study_pile,55,0,55,0,1,,,,,,,,,,,,,,,,,,,,,,,,,,,,,,,,,,,,,,,,,,,,,,,,,,,,,,,,,,,,,,,,,,,,,,,,,,,,,,,,,
,,,,,,,,,,00001463050,2020-10-12_16h09.10.247,swahili,2020.2.4,MacIntel,60,,,,,,,,,,-0.270187717,0.111640625,1,0,1,0.23344,unsorted_card,56,0,56,0,1,,,,,,,,,,,,,,,,,,,,,,,,,,,,,,,,,,,,,,,,,,,,,,,,,,,,,,,,,,,,,,,,,,,,,,,,,,,,,,,,,
,,,,,,,,,,00001463050,2020-10-12_16h09.10.247,swahili,2020.2.4,MacIntel,60,,,,,,,,,,-0.249734158,0.111284722,0,0,1,0.08239,unsorted_card,57,0,57,0,1,AGENT - WAKILI,,,,,,,,,,,,,,,,,,,,,,,,,,,,,,,,,,,,,,,,,,,,,,,,,,,,,,,,,,,,,,,,,,,,,,,,,,,,,,,,
,,,,,,,,,,00001463050,2020-10-12_16h09.10.247,swahili,2020.2.4,MacIntel,60,,,,,,,,,,0.490565321,0.497404514,1,0,1,0.283505,study_pile,58,0,58,0,1,AGENT - WAKILI,,,,,,,,,,,,,,,,,,,,,,,,,,,,,,,,,,,,,,,,,,,,,,,,,,,,,,,,,,,,,,,,,,,,,,,,,,,,,,,,
,,,,,,,,,,00001463050,2020-10-12_16h09.10.247,swahili,2020.2.4,MacIntel,60,,,,,,,,,,0.482682292,0.484522569,0,0,1,0.097675,study_pile,59,0,59,0,1,,,,,,,,,,,,,,,,,,,,,,,,,,,,,,,,,,,,,,,,,,,,,,,,,,,,,,,,,,,,,,,,,,,,,,,,,,,,,,,,,
,,,,,,,,,,00001463050,2020-10-12_16h09.10.247,swahili,2020.2.4,MacIntel,60,,,,,,,,,,-0.233577474,0.052777778,1,0,1,0.25059,unsorted_card,60,0,60,0,1,,,,,,,,,,,,,,,,,,,,,,,,,,,,,,,,,,,,,,,,,,,,,,,,,,,,,,,,,,,,,,,,,,,,,,,,,,,,,,,,,
,,,,,,,,,,00001463050,2020-10-12_16h09.10.247,swahili,2020.2.4,MacIntel,60,,,,,,,,,,-0.202766927,0.071901042,0,0,1,0.099305,unsorted_card,61,0,61,0,1,BRIBE - RUSHWA,,,,,,,,,,,,,,,,,,,,,,,,,,,,,,,,,,,,,,,,,,,,,,,,,,,,,,,,,,,,,,,,,,,,,,,,,,,,,,,,
,,,,,,,,,,00001463050,2020-10-12_16h09.10.247,swahili,2020.2.4,MacIntel,60,,,,,,,,,,0.368505859,0.414088542,1,0,1,0.283325,study_pile,62,0,62,0,1,BRIBE - RUSHWA,,,,,,,,,,,,,,,,,,,,,,,,,,,,,,,,,,,,,,,,,,,,,,,,,,,,,,,,,,,,,,,,,,,,,,,,,,,,,,,,
,,,,,,,,,,00001463050,2020-10-12_16h09.10.247,swahili,2020.2.4,MacIntel,60,,,,,,,,,,0.369981554,0.413498264,0,0,1,0.098445,study_pile,63,0,63,0,1,,,,,,,,,,,,,,,,,,,,,,,,,,,,,,,,,,,,,,,,,,,,,,,,,,,,,,,,,,,,,,,,,,,,,,,,,,,,,,,,,
,,,,,,,,,,00001463050,2020-10-12_16h09.10.247,swahili,2020.2.4,MacIntel,60,,,,,,,,,,-0.331515842,-0.00546875,1,0,1,0.266045,unsorted_card,64,0,64,0,1,,,,,,,,,,,,,,,,,,,,,,,,,,,,,,,,,,,,,,,,,,,,,,,,,,,,,,,,,,,,,,,,,,,,,,,,,,,,,,,,,
,,,,,,,,,,00001463050,2020-10-12_16h09.10.247,swahili,2020.2.4,MacIntel,60,,,,,,,,,,-0.302842882,0.013828125,0,0,1,0.099515,unsorted_card,65,0,65,0,1,ORPHAN - YATIMA,,,,,,,,,,,,,,,,,,,,,,,,,,,,,,,,,,,,,,,,,,,,,,,,,,,,,,,,,,,,,,,,,,,,,,,,,,,,,,,,
,,,,,,,,,,00001463050,2020-10-12_16h09.10.247,swahili,2020.2.4,MacIntel,60,,,,,,,,,,0.46242947,0.431866319,1,0,1,0.281665,study_pile,66,0,66,0,1,ORPHAN - YATIMA,,,,,,,,,,,,,,,,,,,,,,,,,,,,,,,,,,,,,,,,,,,,,,,,,,,,,,,,,,,,,,,,,,,,,,,,,,,,,,,,
,,,,,,,,,,00001463050,2020-10-12_16h09.10.247,swahili,2020.2.4,MacIntel,60,,,,,,,,,,0.45741645,0.428967014,0,0,1,0.09939,study_pile,67,0,67,0,1,,,,,,,,,,,,,,,,,,,,,,,,,,,,,,,,,,,,,,,,,,,,,,,,,,,,,,,,,,,,,,,,,,,,,,,,,,,,,,,,,
,,,,,,,,,,00001463050,2020-10-12_16h09.10.247,swahili,2020.2.4,MacIntel,60,,,,,,,,,,-0.172086589,0.046736111,1,0,1,0.283975,unsorted_card,68,0,68,0,1,,,,,,,,,,,,,,,,,,,,,,,,,,,,,,,,,,,,,,,,,,,,,,,,,,,,,,,,,,,,,,,,,,,,,,,,,,,,,,,,,
,,,,,,,,,,00001463050,2020-10-12_16h09.10.247,swahili,2020.2.4,MacIntel,60,,,,,,,,,,-0.170811632,0.048784722,0,0,1,0.09671,unsorted_card,69,0,69,0,1,DIVORCE - TALAKA,,,,,,,,,,,,,,,,,,,,,,,,,,,,,,,,,,,,,,,,,,,,,,,,,,,,,,,,,,,,,,,,,,,,,,,,,,,,,,,,
,,,,,,,,,,00001463050,2020-10-12_16h09.10.247,swahili,2020.2.4,MacIntel,60,,,,,,,,,,0.437212457,0.473706597,1,0,1,0.266145,study_pile,70,0,70,0,1,DIVORCE - TALAKA,,,,,,,,,,,,,,,,,,,,,,,,,,,,,,,,,,,,,,,,,,,,,,,,,,,,,,,,,,,,,,,,,,,,,,,,,,,,,,,,
,,,,,,,,,,00001463050,2020-10-12_16h09.10.247,swahili,2020.2.4,MacIntel,60,,,,,,,,,,0.420095486,0.458454861,0,0,1,0.099345,study_pile,71,0,71,0,1,,,,,,,,,,,,,,,,,,,,,,,,,,,,,,,,,,,,,,,,,,,,,,,,,,,,,,,,,,,,,,,,,,,,,,,,,,,,,,,,,
,,,,,,,,,,00001463050,2020-10-12_16h09.10.247,swahili,2020.2.4,MacIntel,60,,,,,,,,,,-0.220670573,0.072604167,1,0,1,0.2482,unsorted_card,72,0,72,0,1,,,,,,,,,,,,,,,,,,,,,,,,,,,,,,,,,,,,,,,,,,,,,,,,,,,,,,,,,,,,,,,,,,,,,,,,,,,,,,,,,
,,,,,,,,,,00001463050,2020-10-12_16h09.10.247,swahili,2020.2.4,MacIntel,60,,,,,,,,,,-0.198394097,0.087543403,0,0,1,0.082735,unsorted_card,73,0,73,0,1,BOAT - MASHUA,,,,,,,,,,,,,,,,,,,,,,,,,,,,,,,,,,,,,,,,,,,,,,,,,,,,,,,,,,,,,,,,,,,,,,,,,,,,,,,,
,,,,,,,,,,00001463050,2020-10-12_16h09.10.247,swahili,2020.2.4,MacIntel,60,,,,,,,,,,0.479877387,0.442222222,1,0,1,0.28328,study_pile,74,0,74,0,1,BOAT - MASHUA,,,,,,,,,,,,,,,,,,,,,,,,,,,,,,,,,,,,,,,,,,,,,,,,,,,,,,,,,,,,,,,,,,,,,,,,,,,,,,,,
,,,,,,,,,,00001463050,2020-10-12_16h09.10.247,swahili,2020.2.4,MacIntel,60,,,,,,,,,,0.46898329,0.429921875,0,0,1,0.0982,study_pile,75,0,75,0,1,,,,,,,,,,,,,,,,,,,,,,,,,,,,,,,,,,,,,,,,,,,,,,,,,,,,,,,,,,,,,,,,,,,,,,,,,,,,,,,,,
,,,,,,,,,,00001463050,2020-10-12_16h09.10.247,swahili,2020.2.4,MacIntel,60,,,,,,,,,,-0.216189236,0.014166667,1,0,1,0.26636,unsorted_card,76,0,76,0,1,,,,,,,,,,,,,,,,,,,,,,,,,,,,,,,,,,,,,,,,,,,,,,,,,,,,,,,,,,,,,,,,,,,,,,,,,,,,,,,,,
,,,,,,,,,,00001463050,2020-10-12_16h09.10.247,swahili,2020.2.4,MacIntel,60,,,,,,,,,,-0.208561198,0.017734375,0,0,1,0.09949,unsorted_card,77,0,77,0,1,TREASURE - DAFINA,,,,,,,,,,,,,,,,,,,,,,,,,,,,,,,,,,,,,,,,,,,,,,,,,,,,,,,,,,,,,,,,,,,,,,,,,,,,,,,,
,,,,,,,,,,00001463050,2020-10-12_16h09.10.247,swahili,2020.2.4,MacIntel,60,,,,,,,,,,0.552951389,0.489861111,1,0,1,0.267,study_pile,78,0,78,0,1,TREASURE - DAFINA,,,,,,,,,,,,,,,,,,,,,,,,,,,,,,,,,,,,,,,,,,,,,,,,,,,,,,,,,,,,,,,,,,,,,,,,,,,,,,,,
,,,,,,,,,,00001463050,2020-10-12_16h09.10.247,swahili,2020.2.4,MacIntel,60,,,,,,,,,,,,,,,,,,,,,,GRAPES - ZABIBU,0.546278212,0.48359375,0,0,1,0.115795,study_first,return,3.986685,return,10.60054,0,0,0,0,1,,,,,,,,,,,,,,,,,,,,,,,,,,,,,,,,,,,,,,,,,,,,,,,,,,,,,,,,,,,,,,,,
,,,,,,,,,,00001463050,2020-10-12_16h09.10.247,swahili,2020.2.4,MacIntel,60,,,,,,,,,,,,,,,,,,,,,,GRAVE - KABURI,,,,,,,,,,return,9.397765,1,0,1,0,1,,,,,,,,,,,,,,,,,,,,,,,,,,,,,,,,,,,,,,,,,,,,,,,,,,,,,,,,,,,,,,,,
,,,,,,,,,,00001463050,2020-10-12_16h09.10.247,swahili,2020.2.4,MacIntel,60,,,,,,,,,,,,,,,,,,,,,,AGENT - WAKILI,,,,,,,,,,return,4.50045,2,0,2,0,1,,,,,,,,,,,,,,,,,,,,,,,,,,,,,,,,,,,,,,,,,,,,,,,,,,,,,,,,,,,,,,,,
,,,,,,,,,,00001463050,2020-10-12_16h09.10.247,swahili,2020.2.4,MacIntel,60,,,,,,,,,,,,,,,,,,,,,,DIVORCE - TALAKA,,,,,,,,,,return,7.517915,3,0,3,0,1,,,,,,,,,,,,,,,,,,,,,,,,,,,,,,,,,,,,,,,,,,,,,,,,,,,,,,,,,,,,,,,,
,,,,,,,,,,00001463050,2020-10-12_16h09.10.247,swahili,2020.2.4,MacIntel,60,,,,,,,,,,,,,,,,,,,,,,POEM - UTENZI,,,,,,,,,,return,8.217315,4,0,4,0,1,,,,,,,,,,,,,,,,,,,,,,,,,,,,,,,,,,,,,,,,,,,,,,,,,,,,,,,,,,,,,,,,
,,,,,,,,,,00001463050,2020-10-12_16h09.10.247,swahili,2020.2.4,MacIntel,60,,,,,,,,,,,,,,,,,,,,,,TREASURE - DAFINA,,,,,,,,,,return,7.18329,5,0,5,0,1,,,,,,,,,,,,,,,,,,,,,,,,,,,,,,,,,,,,,,,,,,,,,,,,,,,,,,,,,,,,,,,,
,,,,,,,,,,00001463050,2020-10-12_16h09.10.247,swahili,2020.2.4,MacIntel,60,,,,,,,,,,,,,,,,,,,,,,PLATE - SAHANI,,,,,,,,,,return,4.669635,6,0,6,0,1,,,,,,,,,,,,,,,,,,,,,,,,,,,,,,,,,,,,,,,,,,,,,,,,,,,,,,,,,,,,,,,,
,,,,,,,,,,00001463050,2020-10-12_16h09.10.247,swahili,2020.2.4,MacIntel,60,,,,,,,,,,,,,,,,,,,,,,TAILOR - MSHONI,,,,,,,,,,return,2.996915,7,0,7,0,1,,,,,,,,,,,,,,,,,,,,,,,,,,,,,,,,,,,,,,,,,,,,,,,,,,,,,,,,,,,,,,,,
,,,,,,,,,,00001463050,2020-10-12_16h09.10.247,swahili,2020.2.4,MacIntel,60,,,,,,,,,,,,,,,,,,,,,,ORPHAN - YATIMA,,,,,,,,,,return,3.865575,8,0,8,0,1,,,,,,,,,,,,,,,,,,,,,,,,,,,,,,,,,,,,,,,,,,,,,,,,,,,,,,,,,,,,,,,,
,,,,,,,,,,00001463050,2020-10-12_16h09.10.247,swahili,2020.2.4,MacIntel,60,,,,,,,,,,,,,,,,,,,,,,MANURE - SAMADI,,,,,,,,,,return,3.35055,9,0,9,0,1,,,,,,,,,,,,,,,,,,,,,,,,,,,,,,,,,,,,,,,,,,,,,,,,,,,,,,,,,,,,,,,,
,,,,,,,,,,00001463050,2020-10-12_16h09.10.247,swahili,2020.2.4,MacIntel,60,,,,,,,,,,,,,,,,,,,,,,YEAST - HAMIRA,,,,,,,,,,return,2.336405,10,0,10,0,1,,,,,,,,,,,,,,,,,,,,,,,,,,,,,,,,,,,,,,,,,,,,,,,,,,,,,,,,,,,,,,,,
,,,,,,,,,,00001463050,2020-10-12_16h09.10.247,swahili,2020.2.4,MacIntel,60,,,,,,,,,,,,,,,,,,,,,,BRIBE - RUSHWA,,,,,,,,,,return,2.31726,11,0,11,0,1,,,,,,,,,,,,,,,,,,,,,,,,,,,,,,,,,,,,,,,,,,,,,,,,,,,,,,,,,,,,,,,,
,,,,,,,,,,00001463050,2020-10-12_16h09.10.247,swahili,2020.2.4,MacIntel,60,,,,,,,,,,,,,,,,,,,,,,OATH - YAMINI,,,,,,,,,,return,1.916425,12,0,12,0,1,,,,,,,,,,,,,,,,,,,,,,,,,,,,,,,,,,,,,,,,,,,,,,,,,,,,,,,,,,,,,,,,
,,,,,,,,,,00001463050,2020-10-12_16h09.10.247,swahili,2020.2.4,MacIntel,60,,,,,,,,,,,,,,,,,,,,,,CHEESE - JIBINI,,,,,,,,,,return,1.66965,13,0,13,0,1,,,,,,,,,,,,,,,,,,,,,,,,,,,,,,,,,,,,,,,,,,,,,,,,,,,,,,,,,,,,,,,,
,,,,,,,,,,00001463050,2020-10-12_16h09.10.247,swahili,2020.2.4,MacIntel,60,,,,,,,,,,,,,,,,,,,,,,BLAME - LAWAMA,,,,,,,,,,return,6.38412,14,0,14,0,1,,,,,,,,,,,,,,,,,,,,,,,,,,,,,,,,,,,,,,,,,,,,,,,,,,,,,,,,,,,,,,,,
,,,,,,,,,,00001463050,2020-10-12_16h09.10.247,swahili,2020.2.4,MacIntel,60,,,,,,,,,,,,,,,,,,,,,,CORN - NAFAKA,,,,,,,,,,return,7.296,15,0,15,0,1,,,,,,,,,,,,,,,,,,,,,,,,,,,,,,,,,,,,,,,,,,,,,,,,,,,,,,,,,,,,,,,,
,,,,,,,,,,00001463050,2020-10-12_16h09.10.247,swahili,2020.2.4,MacIntel,60,,,,,,,,,,,,,,,,,,,,,,BOAT - MASHUA,,,,,,,,,,return,7.36888,16,0,16,0,1,,,,,,,,,,,,,,,,,,,,,,,,,,,,,,,,,,,,,,,,,,,,,,,,,,,,,,,,,,,,,,,,
,,,,,,,,,,00001463050,2020-10-12_16h09.10.247,swahili,2020.2.4,MacIntel,60,,,,,,,,,,,,,,,,,,,,,,,,,,,,,,,,,,,,,,,,0,0,0,0,1,,,,,,,,,,,,,,,,,,,,,,,,,,,,,,,,,,,,,,,,,,,,,,,,,,,,,,,,,,
,,,,,,,,,,00001463050,2020-10-12_16h09.10.247,swahili,2020.2.4,MacIntel,60,,,,,,,,,,,,,,,,,,,,,,,,,,,,,,,,,,0,0,0,0,1,,,,,,,,,,,,,,,,,,,,,,,,,,,,,,,,,,,,,,,,,,,,,,,,,,,,,,,,,,,,,,,,
,,,,,,,,,,00001463050,2020-10-12_16h09.10.247,swahili,2020.2.4,MacIntel,60,,,,,,,,,,,,,,,,,,,,,,,,,,,,,,,,,,,,,,,return,,,,,,,,,,,0.78345,8.029355,0.287977431,-0.181666667,1,0,1,1.08423,yes,PARROT,KAKARA,incorrect,0,0,0,0,1,,,,,,,,,,,,,,,,,,,,,,,,,,,,,,,,,,,,
,,,,,,,,,,00001463050,2020-10-12_16h09.10.247,swahili,2020.2.4,MacIntel,60,,,,,,,,,,,,,,,,,,,,,,,,,,,,,,,,,,,,,,,,,,,,,,,,,,,3.665155,0.396983507,-0.188159722,1,0,1,0.85085,yes,BULL,FAJIRI,incorrect,1,0,1,0,1,,,,,,,,,,,,,,,,,,,,,,,,,,,,,,,,,,,,
,,,,,,,,,,00001463050,2020-10-12_16h09.10.247,swahili,2020.2.4,MacIntel,60,,,,,,,,,,,,,,,,,,,,,,,,,,,,,,,,,,,,,,,,,,,,,,,,,,,7.265155,0.385080295,-0.154348958,1,0,1,0.80076,yes,MERCHANT,TAJIRI,incorrect,2,0,2,0,1,,,,,,,,,,,,,,,,,,,,,,,,,,,,,,,,,,,,
,,,,,,,,,,00001463050,2020-10-12_16h09.10.247,swahili,2020.2.4,MacIntel,60,,,,,,,,,,,,,,,,,,,,,,,,,,,,,,,,,,,,,,,,1,0,1,0,1,,,,,,,,,,,,,,,,,,,,,,,,,,,,,,,,,,,,,,,,,,,,,,,,,,,,,,,,,,
,,,,,,,,,,00001463050,2020-10-12_16h09.10.247,swahili,2020.2.4,MacIntel,60,,,,,,,,,,,,,,,,,,,,,,,,,,,,,,,,,,,,,,,,,,,,,4,0,4,0,1,,,,,,,,,,,,,,,,,,,,,,,,,,,,,,,,,,,,,,,,,,,,,,,,,,,,,
,,,,,,,,,,00001463050,2020-10-12_16h09.10.247,swahili,2020.2.4,MacIntel,60,,,,,,,,,,-0.174012587,-0.04859375,1,0,1,3.62548,unsorted_card,0,0,0,0,1,,,,,,,,,,,,,,,,,,,,,,,,,,,,,,,,,,,,,,,,,,,,,,,,,,,,,,,,,,,,,,,,,,,,,,,,,,,,,,,,,
,,,,,,,,,,00001463050,2020-10-12_16h09.10.247,swahili,2020.2.4,MacIntel,60,,,,,,,,,,-0.174012587,-0.04859375,0,0,1,0.063795,unsorted_card,1,0,1,0,1,MERCHANT - TAJIRI,,,,,,,,,,,,,,,,,,,,,,,,,,,,,,,,,,,,,,,,,,,,,,,,,,,,,,,,,,,,,,,,,,,,,,,,,,,,,,,,
,,,,,,,,,,00001463050,2020-10-12_16h09.10.247,swahili,2020.2.4,MacIntel,60,,,,,,,,,,0.416672092,-0.000381944,1,0,1,16.00062,test_pile,2,0,2,0,1,MERCHANT - TAJIRI,,,,,,,,,,,,,,,,,,,,,,,,,,,,,,,,,,,,,,,,,,,,,,,,,,,,,,,,,,,,,,,,,,,,,,,,,,,,,,,,
,,,,,,,,,,00001463050,2020-10-12_16h09.10.247,swahili,2020.2.4,MacIntel,60,,,,,,,,,,0.416672092,-0.000381944,0,0,1,0.114,test_pile,3,0,3,0,1,,,,,,,,,,,,,,,,,,,,,,,,,,,,,,,,,,,,,,,,,,,,,,,,,,,,,,,,,,,,,,,,,,,,,,,,,,,,,,,,,
,,,,,,,,,,00001463050,2020-10-12_16h09.10.247,swahili,2020.2.4,MacIntel,60,,,,,,,,,,-0.186219618,-0.030789931,1,0,1,0.665625,unsorted_card,4,0,4,0,1,,,,,,,,,,,,,,,,,,,,,,,,,,,,,,,,,,,,,,,,,,,,,,,,,,,,,,,,,,,,,,,,,,,,,,,,,,,,,,,,,
,,,,,,,,,,00001463050,2020-10-12_16h09.10.247,swahili,2020.2.4,MacIntel,60,,,,,,,,,,-0.186561415,-0.031866319,0,0,1,0.099325,unsorted_card,5,0,5,0,1,PARROT - KASUKU,,,,,,,,,,,,,,,,,,,,,,,,,,,,,,,,,,,,,,,,,,,,,,,,,,,,,,,,,,,,,,,,,,,,,,,,,,,,,,,,
,,,,,,,,,,00001463050,2020-10-12_16h09.10.247,swahili,2020.2.4,MacIntel,60,,,,,,,,,,0.41491428,-0.020451389,1,0,1,3.315595,test_pile,6,0,6,0,1,PARROT - KASUKU,,,,,,,,,,,,,,,,,,,,,,,,,,,,,,,,,,,,,,,,,,,,,,,,,,,,,,,,,,,,,,,,,,,,,,,,,,,,,,,,
,,,,,,,,,,00001463050,2020-10-12_16h09.10.247,swahili,2020.2.4,MacIntel,60,,,,,,,,,,0.41491428,-0.020451389,0,0,1,0.08279,test_pile,7,0,7,0,1,,,,,,,,,,,,,,,,,,,,,,,,,,,,,,,,,,,,,,,,,,,,,,,,,,,,,,,,,,,,,,,,,,,,,,,,,,,,,,,,,
,,,,,,,,,,00001463050,2020-10-12_16h09.10.247,swahili,2020.2.4,MacIntel,60,,,,,,,,,,-0.229513889,-0.065755208,1,0,1,0.46508,unsorted_card,8,0,8,0,1,,,,,,,,,,,,,,,,,,,,,,,,,,,,,,,,,,,,,,,,,,,,,,,,,,,,,,,,,,,,,,,,,,,,,,,,,,,,,,,,,
