condition,consent_key.keys,consent_key.rt,done_with_instructions.keys,done_with_instructions.rt,instr_loop.thisRepN,instr_loop.thisTrialN,instr_loop.thisN,instr_loop.thisIndex,instr_loop.ran,Student ID #,date,expName,psychopyVersion,OS,frameRate,instr_learning_key.keys,instr_learning_key.rt,card_gen_loop.thisRepN,card_gen_loop.thisTrialN,card_gen_loop.thisN,card_gen_loop.thisIndex,card_gen_loop.ran,swa,eng,choose_pile.x,choose_pile.y,choose_pile.leftButton,choose_pile.midButton,choose_pile.rightButton,choose_pile.time,choose_pile.clicked_name,choices.thisRepN,choices.thisTrialN,choices.thisN,choices.thisIndex,choices.ran,card_to_show,mouse_pick.x,mouse_pick.y,mouse_pick.leftButton,mouse_pick.midButton,mouse_pick.rightButton,mouse_pick.time,mouse_pick.clicked_name,key_instr_study.keys,key_instr_test.keys,learn_loop.thisRepN,learn_loop.thisTrialN,learn_loop.thisN,learn_loop.thisIndex,learn_loop.ran,instr_movie_key.keys,instr_movie_key.rt,return_to_exp.keys,return_to_exp.rt,instr_assess_key.keys,instr_assess_key.rt,test_response.resp,test_response.eval,duration,assess_loop.thisRepN,assess_loop.thisTrialN,assess_loop.thisN,assess_loop.thisIndex,assess_loop.ran,ans_gen_loop.thisRepN,ans_gen_loop.thisTrialN,ans_gen_loop.thisN,ans_gen_loop.thisIndex,ans_gen_loop.ran,sen,ans,instr_transfer_key.keys,instr_transfer_key.rt,transfer_response.resp,transfer_response.eval,select_word.x,select_word.y,select_word.leftButton,select_word.midButton,select_word.rightButton,select_word.time,select_word.clicked_name,transfers.thisRepN,transfers.thisTrialN,transfers.thisN,transfers.thisIndex,transfers.ran,end_experiment.keys,end_experiment.rt
2,return,0.658315,return,6.53552,0,0,0,0,1,1093862,2020-10-23_12h08.46.222,swahili,2020.2.4,MacIntel,60,,,,,,,,,,,,,,,,,,,,,,,,,,,,,,,,,,,,,,,,,,,,,,,,,,,,,,,,,,,,,,,,,,,,,,,,,,,
,,,return,0.586065,1,0,1,0,1,1093862,2020-10-23_12h08.46.222,swahili,2020.2.4,MacIntel,60,,,,,,,,,,,,,,,,,,,,,,,,,,,,,,,,,,,,,,,,,,,,,,,,,,,,,,,,,,,,,,,,,,,,,,,,,,,
,,,,,,,,,,1093862,2020-10-23_12h08.46.222,swahili,2020.2.4,MacIntel,60,return,0.54083,0,0,0,0,1,TAJIRI,MERCHANT,,,,,,,,,,,,,,,,,,,,,,,,,,,,,,,,,,,,,,,,,,,,,,,,,,,,,,,,,,,,,,,,,,
,,,,,,,,,,1093862,2020-10-23_12h08.46.222,swahili,2020.2.4,MacIntel,60,,,0,1,1,1,1,KASUKU,PARROT,,,,,,,,,,,,,,,,,,,,,,,,,,,,,,,,,,,,,,,,,,,,,,,,,,,,,,,,,,,,,,,,,,
,,,,,,,,,,1093862,2020-10-23_12h08.46.222,swahili,2020.2.4,MacIntel,60,,,0,2,2,2,1,FAHILI,BULL,,,,,,,,,,,,,,,,,,,,,,,,,,,,,,,,,,,,,,,,,,,,,,,,,,,,,,,,,,,,,,,,,,
,,,,,,,,,,1093862,2020-10-23_12h08.46.222,swahili,2020.2.4,MacIntel,60,,,0,3,3,3,1,SAHANI,PLATE,,,,,,,,,,,,,,,,,,,,,,,,,,,,,,,,,,,,,,,,,,,,,,,,,,,,,,,,,,,,,,,,,,
,,,,,,,,,,1093862,2020-10-23_12h08.46.222,swahili,2020.2.4,MacIntel,60,,,0,4,4,4,1,HAMIRA,YEAST,,,,,,,,,,,,,,,,,,,,,,,,,,,,,,,,,,,,,,,,,,,,,,,,,,,,,,,,,,,,,,,,,,
,,,,,,,,,,1093862,2020-10-23_12h08.46.222,swahili,2020.2.4,MacIntel,60,,,0,5,5,5,1,LAWAMA,BLAME,,,,,,,,,,,,,,,,,,,,,,,,,,,,,,,,,,,,,,,,,,,,,,,,,,,,,,,,,,,,,,,,,,
,,,,,,,,,,1093862,2020-10-23_12h08.46.222,swahili,2020.2.4,MacIntel,60,,,0,6,6,6,1,YAMINI,OATH,,,,,,,,,,,,,,,,,,,,,,,,,,,,,,,,,,,,,,,,,,,,,,,,,,,,,,,,,,,,,,,,,,
,,,,,,,,,,1093862,2020-10-23_12h08.46.222,swahili,2020.2.4,MacIntel,60,,,0,7,7,7,1,NAFAKA,CORN,,,,,,,,,,,,,,,,,,,,,,,,,,,,,,,,,,,,,,,,,,,,,,,,,,,,,,,,,,,,,,,,,,
,,,,,,,,,,1093862,2020-10-23_12h08.46.222,swahili,2020.2.4,MacIntel,60,,,0,8,8,8,1,UTENZI,POEM,,,,,,,,,,,,,,,,,,,,,,,,,,,,,,,,,,,,,,,,,,,,,,,,,,,,,,,,,,,,,,,,,,
,,,,,,,,,,1093862,2020-10-23_12h08.46.222,swahili,2020.2.4,MacIntel,60,,,0,9,9,9,1,MSHONI,TAILOR,,,,,,,,,,,,,,,,,,,,,,,,,,,,,,,,,,,,,,,,,,,,,,,,,,,,,,,,,,,,,,,,,,
,,,,,,,,,,1093862,2020-10-23_12h08.46.222,swahili,2020.2.4,MacIntel,60,,,0,10,10,10,1,JIBINI,CHEESE,,,,,,,,,,,,,,,,,,,,,,,,,,,,,,,,,,,,,,,,,,,,,,,,,,,,,,,,,,,,,,,,,,
,,,,,,,,,,1093862,2020-10-23_12h08.46.222,swahili,2020.2.4,MacIntel,60,,,0,11,11,11,1,ZABIBU,GRAPES,,,,,,,,,,,,,,,,,,,,,,,,,,,,,,,,,,,,,,,,,,,,,,,,,,,,,,,,,,,,,,,,,,
,,,,,,,,,,1093862,2020-10-23_12h08.46.222,swahili,2020.2.4,MacIntel,60,,,0,12,12,12,1,KABURI,GRAVE,,,,,,,,,,,,,,,,,,,,,,,,,,,,,,,,,,,,,,,,,,,,,,,,,,,,,,,,,,,,,,,,,,
,,,,,,,,,,1093862,2020-10-23_12h08.46.222,swahili,2020.2.4,MacIntel,60,,,0,13,13,13,1,SAMADI,MANURE,,,,,,,,,,,,,,,,,,,,,,,,,,,,,,,,,,,,,,,,,,,,,,,,,,,,,,,,,,,,,,,,,,
,,,,,,,,,,1093862,2020-10-23_12h08.46.222,swahili,2020.2.4,MacIntel,60,,,0,14,14,14,1,WAKILI,AGENT,,,,,,,,,,,,,,,,,,,,,,,,,,,,,,,,,,,,,,,,,,,,,,,,,,,,,,,,,,,,,,,,,,
,,,,,,,,,,1093862,2020-10-23_12h08.46.222,swahili,2020.2.4,MacIntel,60,,,0,15,15,15,1,RUSHWA,BRIBE,,,,,,,,,,,,,,,,,,,,,,,,,,,,,,,,,,,,,,,,,,,,,,,,,,,,,,,,,,,,,,,,,,
,,,,,,,,,,1093862,2020-10-23_12h08.46.222,swahili,2020.2.4,MacIntel,60,,,0,16,16,16,1,YATIMA,ORPHAN,,,,,,,,,,,,,,,,,,,,,,,,,,,,,,,,,,,,,,,,,,,,,,,,,,,,,,,,,,,,,,,,,,
,,,,,,,,,,1093862,2020-10-23_12h08.46.222,swahili,2020.2.4,MacIntel,60,,,0,17,17,17,1,TALAKA,DIVORCE,,,,,,,,,,,,,,,,,,,,,,,,,,,,,,,,,,,,,,,,,,,,,,,,,,,,,,,,,,,,,,,,,,
,,,,,,,,,,1093862,2020-10-23_12h08.46.222,swahili,2020.2.4,MacIntel,60,,,0,18,18,18,1,MASHUA,BOAT,,,,,,,,,,,,,,,,,,,,,,,,,,,,,,,,,,,,,,,,,,,,,,,,,,,,,,,,,,,,,,,,,,
,,,,,,,,,,1093862,2020-10-23_12h08.46.222,swahili,2020.2.4,MacIntel,60,,,0,19,19,19,1,DAFINA,TREASURE,,,,,,,,,,,,,,,,,,,,,,,,,,,,,,,,,,,,,,,,,,,,,,,,,,,,,,,,,,,,,,,,,,
,,,,,,,,,,1093862,2020-10-23_12h08.46.222,swahili,2020.2.4,MacIntel,60,,,,,,,,,,-0.387304688,-0.348020833,1,0,0,1.04757,unsorted_card,0,0,0,0,1,,,,,,,,,,,,,,,,,,,,,,,,,,,,,,,,,,,,,,,,,,,,,,,,,,,,,,
,,,,,,,,,,1093862,2020-10-23_12h08.46.222,swahili,2020.2.4,MacIntel,60,,,,,,,,,,0.56391059,-0.507786458,1,0,0,1.480775,done_pile,1,0,1,0,1,MERCHANT - TAJIRI,,,,,,,,,,,,,,,,,,,,,,,,,,,,,,,,,,,,,,,,,,,,,,,,,,,,,
,,,,,,,,,,1093862,2020-10-23_12h08.46.222,swahili,2020.2.4,MacIntel,60,,,,,,,,,,-0.222200521,0.024114583,1,0,0,0.549595,unsorted_card,2,0,2,0,1,,,,,,,,,,,,,,,,,,,,,,,,,,,,,,,,,,,,,,,,,,,,,,,,,,,,,,
,,,,,,,,,,1093862,2020-10-23_12h08.46.222,swahili,2020.2.4,MacIntel,60,,,,,,,,,,0.435091146,-0.413828125,1,0,0,0.498975,done_pile,3,0,3,0,1,PARROT - KASUKU,,,,,,,,,,,,,,,,,,,,,,,,,,,,,,,,,,,,,,,,,,,,,,,,,,,,,
,,,,,,,,,,1093862,2020-10-23_12h08.46.222,swahili,2020.2.4,MacIntel,60,,,,,,,,,,-0.141400825,-0.048038194,1,0,0,0.44871,unsorted_card,4,0,4,0,1,,,,,,,,,,,,,,,,,,,,,,,,,,,,,,,,,,,,,,,,,,,,,,,,,,,,,,
,,,,,,,,,,1093862,2020-10-23_12h08.46.222,swahili,2020.2.4,MacIntel,60,,,,,,,,,,0.634239366,-0.681006944,1,0,0,0.54963,done_pile,5,0,5,0,1,BULL - FAHILI,,,,,,,,,,,,,,,,,,,,,,,,,,,,,,,,,,,,,,,,,,,,,,,,,,,,,
,,,,,,,,,,1093862,2020-10-23_12h08.46.222,swahili,2020.2.4,MacIntel,60,,,,,,,,,,-0.209613715,-0.097526042,1,0,0,0.513765,unsorted_card,6,0,6,0,1,,,,,,,,,,,,,,,,,,,,,,,,,,,,,,,,,,,,,,,,,,,,,,,,,,,,,,
,,,,,,,,,,1093862,2020-10-23_12h08.46.222,swahili,2020.2.4,MacIntel,60,,,,,,,,,,0.302994792,-0.452769097,1,0,0,0.48216,done_pile,7,0,7,0,1,PLATE - SAHANI,,,,,,,,,,,,,,,,,,,,,,,,,,,,,,,,,,,,,,,,,,,,,,,,,,,,,
,,,,,,,,,,1093862,2020-10-23_12h08.46.222,swahili,2020.2.4,MacIntel,60,,,,,,,,,,-0.288693576,-0.074817708,1,0,0,0.498885,unsorted_card,8,0,8,0,1,,,,,,,,,,,,,,,,,,,,,,,,,,,,,,,,,,,,,,,,,,,,,,,,,,,,,,
,,,,,,,,,,1093862,2020-10-23_12h08.46.222,swahili,2020.2.4,MacIntel,60,,,,,,,,,,0.318977865,-0.406284722,1,0,0,0.465575,done_pile,9,0,9,0,1,YEAST - HAMIRA,,,,,,,,,,,,,,,,,,,,,,,,,,,,,,,,,,,,,,,,,,,,,,,,,,,,,
,,,,,,,,,,1093862,2020-10-23_12h08.46.222,swahili,2020.2.4,MacIntel,60,,,,,,,,,,-0.341883681,-0.046605903,1,0,0,0.49919,unsorted_card,10,0,10,0,1,,,,,,,,,,,,,,,,,,,,,,,,,,,,,,,,,,,,,,,,,,,,,,,,,,,,,,
,,,,,,,,,,1093862,2020-10-23_12h08.46.222,swahili,2020.2.4,MacIntel,60,,,,,,,,,,0.375949436,-0.431345486,1,0,0,0.48325,done_pile,11,0,11,0,1,BLAME - LAWAMA,,,,,,,,,,,,,,,,,,,,,,,,,,,,,,,,,,,,,,,,,,,,,,,,,,,,,
,,,,,,,,,,1093862,2020-10-23_12h08.46.222,swahili,2020.2.4,MacIntel,60,,,,,,,,,,-0.260823568,-0.044678819,1,0,0,0.480675,unsorted_card,12,0,12,0,1,,,,,,,,,,,,,,,,,,,,,,,,,,,,,,,,,,,,,,,,,,,,,,,,,,,,,,
,,,,,,,,,,1093862,2020-10-23_12h08.46.222,swahili,2020.2.4,MacIntel,60,,,,,,,,,,0.421598307,-0.454670139,1,0,0,0.482375,done_pile,13,0,13,0,1,OATH - YAMINI,,,,,,,,,,,,,,,,,,,,,,,,,,,,,,,,,,,,,,,,,,,,,,,,,,,,,
,,,,,,,,,,1093862,2020-10-23_12h08.46.222,swahili,2020.2.4,MacIntel,60,,,,,,,,,,-0.342225477,-0.009131944,1,0,0,0.499575,unsorted_card,14,0,14,0,1,,,,,,,,,,,,,,,,,,,,,,,,,,,,,,,,,,,,,,,,,,,,,,,,,,,,,,
,,,,,,,,,,1093862,2020-10-23_12h08.46.222,swahili,2020.2.4,MacIntel,60,,,,,,,,,,0.26906467,-0.499809028,1,0,0,0.499055,done_pile,15,0,15,0,1,CORN - NAFAKA,,,,,,,,,,,,,,,,,,,,,,,,,,,,,,,,,,,,,,,,,,,,,,,,,,,,,
,,,,,,,,,,1093862,2020-10-23_12h08.46.222,swahili,2020.2.4,MacIntel,60,,,,,,,,,,-0.373388672,0.015078125,1,0,0,0.49384,unsorted_card,16,0,16,0,1,,,,,,,,,,,,,,,,,,,,,,,,,,,,,,,,,,,,,,,,,,,,,,,,,,,,,,
,,,,,,,,,,1093862,2020-10-23_12h08.46.222,swahili,2020.2.4,MacIntel,60,,,,,,,,,,0.442154948,-0.395815972,1,0,0,0.74936,done_pile,17,0,17,0,1,POEM - UTENZI,,,,,,,,,,,,,,,,,,,,,,,,,,,,,,,,,,,,,,,,,,,,,,,,,,,,,
,,,,,,,,,,1093862,2020-10-23_12h08.46.222,swahili,2020.2.4,MacIntel,60,,,,,,,,,,-0.336767578,0.181744792,1,0,0,0.499065,unsorted_card,18,0,18,0,1,,,,,,,,,,,,,,,,,,,,,,,,,,,,,,,,,,,,,,,,,,,,,,,,,,,,,,
,,,,,,,,,,1093862,2020-10-23_12h08.46.222,swahili,2020.2.4,MacIntel,60,,,,,,,,,,0.526763238,-0.482881944,1,0,0,0.76557,done_pile,19,0,19,0,1,TAILOR - MSHONI,,,,,,,,,,,,,,,,,,,,,,,,,,,,,,,,,,,,,,,,,,,,,,,,,,,,,
,,,,,,,,,,1093862,2020-10-23_12h08.46.222,swahili,2020.2.4,MacIntel,60,,,,,,,,,,-0.171950955,0.078072917,1,0,0,0.53171,unsorted_card,20,0,20,0,1,,,,,,,,,,,,,,,,,,,,,,,,,,,,,,,,,,,,,,,,,,,,,,,,,,,,,,
,,,,,,,,,,1093862,2020-10-23_12h08.46.222,swahili,2020.2.4,MacIntel,60,,,,,,,,,,0.490983073,-0.524600694,1,0,0,0.49917,done_pile,21,0,21,0,1,CHEESE - JIBINI,,,,,,,,,,,,,,,,,,,,,,,,,,,,,,,,,,,,,,,,,,,,,,,,,,,,,
,,,,,,,,,,1093862,2020-10-23_12h08.46.222,swahili,2020.2.4,MacIntel,60,,,,,,,,,,-0.324256727,-0.028246528,1,0,0,0.5648,unsorted_card,22,0,22,0,1,,,,,,,,,,,,,,,,,,,,,,,,,,,,,,,,,,,,,,,,,,,,,,,,,,,,,,
,,,,,,,,,,1093862,2020-10-23_12h08.46.222,swahili,2020.2.4,MacIntel,60,,,,,,,,,,0.60234375,-0.430095486,1,0,0,0.59914,done_pile,23,0,23,0,1,GRAPES - ZABIBU,,,,,,,,,,,,,,,,,,,,,,,,,,,,,,,,,,,,,,,,,,,,,,,,,,,,,
,,,,,,,,,,1093862,2020-10-23_12h08.46.222,swahili,2020.2.4,MacIntel,60,,,,,,,,,,-0.301383464,0.147682292,1,0,0,12.41615,unsorted_card,24,0,24,0,1,,,,,,,,,,,,,,,,,,,,,,,,,,,,,,,,,,,,,,,,,,,,,,,,,,,,,,
,,,,,,,,,,1093862,2020-10-23_12h08.46.222,swahili,2020.2.4,MacIntel,60,,,,,,,,,,0.359450955,-0.432352431,1,0,0,13.714215,done_pile,25,0,25,0,1,GRAVE - KABURI,,,,,,,,,,,,,,,,,,,,,,,,,,,,,,,,,,,,,,,,,,,,,,,,,,,,,
,,,,,,,,,,1093862,2020-10-23_12h08.46.222,swahili,2020.2.4,MacIntel,60,,,,,,,,,,-0.201573351,-0.000911458,1,0,0,0.5324,unsorted_card,26,0,26,0,1,,,,,,,,,,,,,,,,,,,,,,,,,,,,,,,,,,,,,,,,,,,,,,,,,,,,,,
,,,,,,,,,,1093862,2020-10-23_12h08.46.222,swahili,2020.2.4,MacIntel,60,,,,,,,,,,0.664979384,-0.506727431,1,0,0,40.266795,done_pile,27,0,27,0,1,MANURE - SAMADI,,,,,,,,,,,,,,,,,,,,,,,,,,,,,,,,,,,,,,,,,,,,,,,,,,,,,
,,,,,,,,,,1093862,2020-10-23_12h08.46.222,swahili,2020.2.4,MacIntel,60,,,,,,,,,,-0.270958116,0.408298611,1,0,0,1.080025,unsorted_card,28,0,28,0,1,,,,,,,,,,,,,,,,,,,,,,,,,,,,,,,,,,,,,,,,,,,,,,,,,,,,,,
,,,,,,,,,,1093862,2020-10-23_12h08.46.222,swahili,2020.2.4,MacIntel,60,,,,,,,,,,0.493766276,-0.433897569,1,0,0,1.2158,done_pile,29,0,29,0,1,AGENT - WAKILI,,,,,,,,,,,,,,,,,,,,,,,,,,,,,,,,,,,,,,,,,,,,,,,,,,,,,
,,,,,,,,,,1093862,2020-10-23_12h08.46.222,swahili,2020.2.4,MacIntel,60,,,,,,,,,,-0.312977431,0.265798611,1,0,0,0.74869,unsorted_card,30,0,30,0,1,,,,,,,,,,,,,,,,,,,,,,,,,,,,,,,,,,,,,,,,,,,,,,,,,,,,,,
,,,,,,,,,,1093862,2020-10-23_12h08.46.222,swahili,2020.2.4,MacIntel,60,,,,,,,,,,0.4605523,-0.507925347,1,0,0,2.66584,done_pile,31,0,31,0,1,BRIBE - RUSHWA,,,,,,,,,,,,,,,,,,,,,,,,,,,,,,,,,,,,,,,,,,,,,,,,,,,,,
,,,,,,,,,,1093862,2020-10-23_12h08.46.222,swahili,2020.2.4,MacIntel,60,,,,,,,,,,-0.328851997,0.181302083,1,0,0,0.649935,unsorted_card,32,0,32,0,1,,,,,,,,,,,,,,,,,,,,,,,,,,,,,,,,,,,,,,,,,,,,,,,,,,,,,,
,,,,,,,,,,1093862,2020-10-23_12h08.46.222,swahili,2020.2.4,MacIntel,60,,,,,,,,,,0.547916667,-0.478125,1,0,0,0.94636,done_pile,33,0,33,0,1,ORPHAN - YATIMA,,,,,,,,,,,,,,,,,,,,,,,,,,,,,,,,,,,,,,,,,,,,,,,,,,,,,
,,,,,,,,,,1093862,2020-10-23_12h08.46.222,swahili,2020.2.4,MacIntel,60,,,,,,,,,,-0.268804253,0.227083333,1,0,0,1.77848,unsorted_card,34,0,34,0,1,,,,,,,,,,,,,,,,,,,,,,,,,,,,,,,,,,,,,,,,,,,,,,,,,,,,,,
,,,,,,,,,,1093862,2020-10-23_12h08.46.222,swahili,2020.2.4,MacIntel,60,,,,,,,,,,0.64672309,-0.44703125,1,0,0,79.53139,done_pile,35,0,35,0,1,DIVORCE - TALAKA,,,,,,,,,,,,,,,,,,,,,,,,,,,,,,,,,,,,,,,,,,,,,,,,,,,,,
,,,,,,,,,,1093862,2020-10-23_12h08.46.222,swahili,2020.2.4,MacIntel,60,,,,,,,,,,-0.033550347,-0.128185764,1,0,0,0.53189,unsorted_card,36,0,36,0,1,,,,,,,,,,,,,,,,,,,,,,,,,,,,,,,,,,,,,,,,,,,,,,,,,,,,,,
,,,,,,,,,,1093862,2020-10-23_12h08.46.222,swahili,2020.2.4,MacIntel,60,,,,,,,,,,0.603537326,-0.629765625,1,0,0,1.582485,done_pile,37,0,37,0,1,BOAT - MASHUA,,,,,,,,,,,,,,,,,,,,,,,,,,,,,,,,,,,,,,,,,,,,,,,,,,,,,
,,,,,,,,,,1093862,2020-10-23_12h08.46.222,swahili,2020.2.4,MacIntel,60,,,,,,,,,,-0.323546007,-0.088776042,1,0,0,0.620325,unsorted_card,38,0,38,0,1,,,,,,,,,,,,,,,,,,,,,,,,,,,,,,,,,,,,,,,,,,,,,,,,,,,,,,
,,,,,,,,,,1093862,2020-10-23_12h08.46.222,swahili,2020.2.4,MacIntel,60,,,,,,,,,,0.58148329,-0.494826389,1,0,0,0.89376,done_pile,39,0,39,0,1,TREASURE - DAFINA,,,,,,,,,,,,,,,,,,,,,,,,,,,,,,,,,,,,,,,,,,,,,,,,,,,,,
,,,,,,,,,,1093862,2020-10-23_12h08.46.222,swahili,2020.2.4,MacIntel,60,,,,,,,,,,,,,,,,,,,,,,,,,,,,,,,,0,0,0,0,1,,,,,,,,,,,,,,,,,,,,,,,,,,,,,,,,,,,,,,,
,,,,,,,,,,1093862,2020-10-23_12h08.46.222,swahili,2020.2.4,MacIntel,60,,,,,,,,,,,,,,,,,,,,,,,,,,,,,,,,1,0,1,0,1,,,,,,,,,,,,,,,,,,,,,,,,,,,,,,,,,,,,,,,
,,,,,,,,,,1093862,2020-10-23_12h08.46.222,swahili,2020.2.4,MacIntel,60,,,,,,,,MSHONI,TAILOR,,,,,,,,,,,,,,,,,,,,,,,,,,,,return,13.94837,return,1.908285,return,6.38445,MSHONI,correct,2.95432,0,0,0,9,1,,,,,,,,,,,,,,,,,,,,,,,,,
,,,,,,,,,,1093862,2020-10-23_12h08.46.222,swahili,2020.2.4,MacIntel,60,,,,,,,,DAFINA,TREASURE,,,,,,,,,,,,,,,,,,,,,,,,,,,,,,,,,,DAFINA,correct,2.44822,0,1,1,19,1,,,,,,,,,,,,,,,,,,,,,,,,,
,,,,,,,,,,1093862,2020-10-23_12h08.46.222,swahili,2020.2.4,MacIntel,60,,,,,,,,HAMIRA,YEAST,,,,,,,,,,,,,,,,,,,,,,,,,,,,,,,,,,HAMARI,incorrect,2.68236,0,2,2,4,1,,,,,,,,,,,,,,,,,,,,,,,,,
,,,,,,,,,,1093862,2020-10-23_12h08.46.222,swahili,2020.2.4,MacIntel,60,,,,,,,,JIBINI,CHEESE,,,,,,,,,,,,,,,,,,,,,,,,,,,,,,,,,,JIBINI,correct,2.516055,0,3,3,10,1,,,,,,,,,,,,,,,,,,,,,,,,,
,,,,,,,,,,1093862,2020-10-23_12h08.46.222,swahili,2020.2.4,MacIntel,60,,,,,,,,YATIMA,ORPHAN,,,,,,,,,,,,,,,,,,,,,,,,,,,,,,,,,,YATIMA,correct,2.48394,0,4,4,16,1,,,,,,,,,,,,,,,,,,,,,,,,,
,,,,,,,,,,1093862,2020-10-23_12h08.46.222,swahili,2020.2.4,MacIntel,60,,,,,,,,TAJIRI,MERCHANT,,,,,,,,,,,,,,,,,,,,,,,,,,,,,,,,,,TAJIRI,correct,3.946835,0,5,5,0,1,,,,,,,,,,,,,,,,,,,,,,,,,
,,,,,,,,,,1093862,2020-10-23_12h08.46.222,swahili,2020.2.4,MacIntel,60,,,,,,,,ZABIBU,GRAPES,,,,,,,,,,,,,,,,,,,,,,,,,,,,,,,,,,ZABIBU,correct,5.265505,0,6,6,11,1,,,,,,,,,,,,,,,,,,,,,,,,,
,,,,,,,,,,1093862,2020-10-23_12h08.46.222,swahili,2020.2.4,MacIntel,60,,,,,,,,MASHUA,BOAT,,,,,,,,,,,,,,,,,,,,,,,,,,,,,,,,,,MASHUA,correct,1.71474,0,7,7,18,1,,,,,,,,,,,,,,,,,,,,,,,,,
,,,,,,,,,,1093862,2020-10-23_12h08.46.222,swahili,2020.2.4,MacIntel,60,,,,,,,,NAFAKA,CORN,,,,,,,,,,,,,,,,,,,,,,,,,,,,,,,,,,NAFAKA,correct,2.015795,0,8,8,7,1,,,,,,,,,,,,,,,,,,,,,,,,,
,,,,,,,,,,1093862,2020-10-23_12h08.46.222,swahili,2020.2.4,MacIntel,60,,,,,,,,KABURI,GRAVE,,,,,,,,,,,,,,,,,,,,,,,,,,,,,,,,,,KABURI,correct,2.183045,0,9,9,12,1,,,,,,,,,,,,,,,,,,,,,,,,,
,,,,,,,,,,1093862,2020-10-23_12h08.46.222,swahili,2020.2.4,MacIntel,60,,,,,,,,LAWAMA,BLAME,,,,,,,,,,,,,,,,,,,,,,,,,,,,,,,,,,LAWAMA,correct,3.69996,0,10,10,5,1,,,,,,,,,,,,,,,,,,,,,,,,,
,,,,,,,,,,1093862,2020-10-23_12h08.46.222,swahili,2020.2.4,MacIntel,60,,,,,,,,UTENZI,POEM,,,,,,,,,,,,,,,,,,,,,,,,,,,,,,,,,,UTENZI,correct,2.082125,0,11,11,8,1,,,,,,,,,,,,,,,,,,,,,,,,,
,,,,,,,,,,1093862,2020-10-23_12h08.46.222,swahili,2020.2.4,MacIntel,60,,,,,,,,KASUKU,PARROT,,,,,,,,,,,,,,,,,,,,,,,,,,,,,,,,,,KASUKU,correct,2.932345,0,12,12,1,1,,,,,,,,,,,,,,,,,,,,,,,,,
,,,,,,,,,,1093862,2020-10-23_12h08.46.222,swahili,2020.2.4,MacIntel,60,,,,,,,,SAMADI,MANURE,,,,,,,,,,,,,,,,,,,,,,,,,,,,,,,,,,SAMADI,correct,7.433555,0,13,13,13,1,,,,,,,,,,,,,,,,,,,,,,,,,
,,,,,,,,,,1093862,2020-10-23_12h08.46.222,swahili,2020.2.4,MacIntel,60,,,,,,,,TALAKA,DIVORCE,,,,,,,,,,,,,,,,,,,,,,,,,,,,,,,,,,TAKALA,incorrect,6.030795,0,14,14,17,1,,,,,,,,,,,,,,,,,,,,,,,,,
,,,,,,,,,,1093862,2020-10-23_12h08.46.222,swahili,2020.2.4,MacIntel,60,,,,,,,,SAHANI,PLATE,,,,,,,,,,,,,,,,,,,,,,,,,,,,,,,,,,SAHANI,correct,3.915425,0,15,15,3,1,,,,,,,,,,,,,,,,,,,,,,,,,
,,,,,,,,,,1093862,2020-10-23_12h08.46.222,swahili,2020.2.4,MacIntel,60,,,,,,,,WAKILI,AGENT,,,,,,,,,,,,,,,,,,,,,,,,,,,,,,,,,,WAKILI,correct,2.69941,0,16,16,14,1,,,,,,,,,,,,,,,,,,,,,,,,,
,,,,,,,,,,1093862,2020-10-23_12h08.46.222,swahili,2020.2.4,MacIntel,60,,,,,,,,RUSHWA,BRIBE,,,,,,,,,,,,,,,,,,,,,,,,,,,,,,,,,,RUSHWA,correct,7.36486,0,17,17,15,1,,,,,,,,,,,,,,,,,,,,,,,,,
,,,,,,,,,,1093862,2020-10-23_12h08.46.222,swahili,2020.2.4,MacIntel,60,,,,,,,,YAMINI,OATH,,,,,,,,,,,,,,,,,,,,,,,,,,,,,,,,,,YAMINI,correct,3.56668,0,18,18,6,1,,,,,,,,,,,,,,,,,,,,,,,,,
,,,,,,,,,,1093862,2020-10-23_12h08.46.222,swahili,2020.2.4,MacIntel,60,,,,,,,,FAHILI,BULL,,,,,,,,,,,,,,,,,,,,,,,,,,,,,,,,,,FAHILI,correct,2.198145,0,19,19,2,1,,,,,,,,,,,,,,,,,,,,,,,,,
,,,,,,,,,,1093862,2020-10-23_12h08.46.222,swahili,2020.2.4,MacIntel,60,,,,,,,,,,,,,,,,,,,,,,,,,,,,,,,,,,,,,,,,,,,,,,,,,,,0,0,0,0,1,I bought all my goods from the ____ at the market. ,TAJIRI,,,,,,,,,,,,,,,,,,
,,,,,,,,,,1093862,2020-10-23_12h08.46.222,swahili,2020.2.4,MacIntel,60,,,,,,,,,,,,,,,,,,,,,,,,,,,,,,,,,,,,,,,,,,,,,,,,,,,0,1,1,1,1,The ____ is a bird that can learn to repeat words.,KASUKU,,,,,,,,,,,,,,,,,,
,,,,,,,,,,1093862,2020-10-23_12h08.46.222,swahili,2020.2.4,MacIntel,60,,,,,,,,,,,,,,,,,,,,,,,,,,,,,,,,,,,,,,,,,,,,,,,,,,,0,2,2,2,1,The ____ charged the matador's red cape. ,FAHILI,,,,,,,,,,,,,,,,,,
,,,,,,,,,,1093862,2020-10-23_12h08.46.222,swahili,2020.2.4,MacIntel,60,,,,,,,,,,,,,,,,,,,,,,,,,,,,,,,,,,,,,,,,,,,,,,,,,,,0,3,3,3,1,I filled my ____ with food at the buffet. ,SAHANI,,,,,,,,,,,,,,,,,,
,,,,,,,,,,1093862,2020-10-23_12h08.46.222,swahili,2020.2.4,MacIntel,60,,,,,,,,,,,,,,,,,,,,,,,,,,,,,,,,,,,,,,,,,,,,,,,,,,,0,4,4,4,1,_____ makes bread rise. ,HAMIRA,,,,,,,,,,,,,,,,,,
,,,,,,,,,,1093862,2020-10-23_12h08.46.222,swahili,2020.2.4,MacIntel,60,,,,,,,,,,,,,,,,,,,,,,,,,,,,,,,,,,,,,,,,,,,,,,,,,,,0,5,5,5,1,Shannon had no one else to  ____ for what happened.,LAWAMA,,,,,,,,,,,,,,,,,,
,,,,,,,,,,1093862,2020-10-23_12h08.46.222,swahili,2020.2.4,MacIntel,60,,,,,,,,,,,,,,,,,,,,,,,,,,,,,,,,,,,,,,,,,,,,,,,,,,,0,6,6,6,1,The president takes the  ____ of office to uphold the Constitution.,YAMINI,,,,,,,,,,,,,,,,,,
,,,,,,,,,,1093862,2020-10-23_12h08.46.222,swahili,2020.2.4,MacIntel,60,,,,,,,,,,,,,,,,,,,,,,,,,,,,,,,,,,,,,,,,,,,,,,,,,,,0,7,7,7,1,Kate doesn't like ____ on the cob because it gets stuck between her teeth. ,NAFAKA,,,,,,,,,,,,,,,,,,
,,,,,,,,,,1093862,2020-10-23_12h08.46.222,swahili,2020.2.4,MacIntel,60,,,,,,,,,,,,,,,,,,,,,,,,,,,,,,,,,,,,,,,,,,,,,,,,,,,0,8,8,8,1,David wrote Cynthia a romantic ____  but she thought it rhymed too much.,UTENZI,,,,,,,,,,,,,,,,,,
,,,,,,,,,,1093862,2020-10-23_12h08.46.222,swahili,2020.2.4,MacIntel,60,,,,,,,,,,,,,,,,,,,,,,,,,,,,,,,,,,,,,,,,,,,,,,,,,,,0,9,9,9,1,Charles went to the ____ to get his suit adjusted. ,MSHONI,,,,,,,,,,,,,,,,,,
,,,,,,,,,,1093862,2020-10-23_12h08.46.222,swahili,2020.2.4,MacIntel,60,,,,,,,,,,,,,,,,,,,,,,,,,,,,,,,,,,,,,,,,,,,,,,,,,,,0,10,10,10,1,Amy cooked a grilled ____ sandwich to go with her tomato soup.,JIBINI,,,,,,,,,,,,,,,,,,
,,,,,,,,,,1093862,2020-10-23_12h08.46.222,swahili,2020.2.4,MacIntel,60,,,,,,,,,,,,,,,,,,,,,,,,,,,,,,,,,,,,,,,,,,,,,,,,,,,0,11,11,11,1,Fermented _______ are used to make wine.,ZABIBU,,,,,,,,,,,,,,,,,,
,,,,,,,,,,1093862,2020-10-23_12h08.46.222,swahili,2020.2.4,MacIntel,60,,,,,,,,,,,,,,,,,,,,,,,,,,,,,,,,,,,,,,,,,,,,,,,,,,,0,12,12,12,1,She visited her father's ___ on the anniversary of his death. ,KABURI,,,,,,,,,,,,,,,,,,
,,,,,,,,,,1093862,2020-10-23_12h08.46.222,swahili,2020.2.4,MacIntel,60,,,,,,,,,,,,,,,,,,,,,,,,,,,,,,,,,,,,,,,,,,,,,,,,,,,0,13,13,13,1,"On a farm, there is a good chance you will step into a pile of ______.",SAMADI,,,,,,,,,,,,,,,,,,
,,,,,,,,,,1093862,2020-10-23_12h08.46.222,swahili,2020.2.4,MacIntel,60,,,,,,,,,,,,,,,,,,,,,,,,,,,,,,,,,,,,,,,,,,,,,,,,,,,0,14,14,14,1,"To buy a house, you may need to speak with a real estate ______.",WAKILI,,,,,,,,,,,,,,,,,,
,,,,,,,,,,1093862,2020-10-23_12h08.46.222,swahili,2020.2.4,MacIntel,60,,,,,,,,,,,,,,,,,,,,,,,,,,,,,,,,,,,,,,,,,,,,,,,,,,,0,15,15,15,1,The politician was arrested for taking a _____.,RUSHWA,,,,,,,,,,,,,,,,,,
,,,,,,,,,,1093862,2020-10-23_12h08.46.222,swahili,2020.2.4,MacIntel,60,,,,,,,,,,,,,,,,,,,,,,,,,,,,,,,,,,,,,,,,,,,,,,,,,,,0,16,16,16,1,The _____ is living with foster parents.,YATIMA,,,,,,,,,,,,,,,,,,
,,,,,,,,,,1093862,2020-10-23_12h08.46.222,swahili,2020.2.4,MacIntel,60,,,,,,,,,,,,,,,,,,,,,,,,,,,,,,,,,,,,,,,,,,,,,,,,,,,0,17,17,17,1,My aunt and uncle got a _________ after two years of marriage.,TALAKA,,,,,,,,,,,,,,,,,,
,,,,,,,,,,1093862,2020-10-23_12h08.46.222,swahili,2020.2.4,MacIntel,60,,,,,,,,,,,,,,,,,,,,,,,,,,,,,,,,,,,,,,,,,,,,,,,,,,,0,18,18,18,1,You need a ______ to go fishing in the middle of a lake.,MASHUA,,,,,,,,,,,,,,,,,,
,,,,,,,,,,1093862,2020-10-23_12h08.46.222,swahili,2020.2.4,MacIntel,60,,,,,,,,,,,,,,,,,,,,,,,,,,,,,,,,,,,,,,,,,,,,,,,,,,,0,19,19,19,1,Pirates looked for buried _________ at the bottom of the sea.,DAFINA,,,,,,,,,,,,,,,,,,
,,,,,,,,,,1093862,2020-10-23_12h08.46.222,swahili,2020.2.4,MacIntel,60,,,,,,,,,,,,,,,,,,,,,,,,,,,,,,,,,,,,,,,,,,,,,,,,,,,,,,,,David wrote Cynthia a romantic ____  but she thought it rhymed too much.,UTENZI,return,4.34087,UTENZI,correct,-0.529047309,-0.480980903,1,0,0,5.35066,a,0,0,0,8,1,,
,,,,,,,,,,1093862,2020-10-23_12h08.46.222,swahili,2020.2.4,MacIntel,60,,,,,,,,,,,,,,,,,,,,,,,,,,,,,,,,,,,,,,,,,,,,,,,,,,,,,,,,_____ makes bread rise. ,HAMIRA,,,HAMIRA,correct,-0.106884766,-0.512473958,1,0,0,3.91063,b,0,1,1,4,1,,
,,,,,,,,,,1093862,2020-10-23_12h08.46.222,swahili,2020.2.4,MacIntel,60,,,,,,,,,,,,,,,,,,,,,,,,,,,,,,,,,,,,,,,,,,,,,,,,,,,,,,,,The president takes the  ____ of office to uphold the Constitution.,YAMINI,,,TAJIRI,incorrect,0.658094618,-0.621779514,1,0,0,25.52619,c,0,2,2,6,1,,
,,,,,,,,,,1093862,2020-10-23_12h08.46.222,swahili,2020.2.4,MacIntel,60,,,,,,,,,,,,,,,,,,,,,,,,,,,,,,,,,,,,,,,,,,,,,,,,,,,,,,,,I bought all my goods from the ____ at the market. ,TAJIRI,,,TAJIRI,correct,0.57016059,-0.494418403,1,0,0,4.42815,c,0,3,3,0,1,,
,,,,,,,,,,1093862,2020-10-23_12h08.46.222,swahili,2020.2.4,MacIntel,60,,,,,,,,,,,,,,,,,,,,,,,,,,,,,,,,,,,,,,,,,,,,,,,,,,,,,,,,Kate doesn't like ____ on the cob because it gets stuck between her teeth. ,NAFAKA,,,NAFAKA,correct,0.557318793,-0.596987847,1,0,0,3.66101,c,0,4,4,7,1,,
,,,,,,,,,,1093862,2020-10-23_12h08.46.222,swahili,2020.2.4,MacIntel,60,,,,,,,,,,,,,,,,,,,,,,,,,,,,,,,,,,,,,,,,,,,,,,,,,,,,,,,,She visited her father's ___ on the anniversary of his death. ,KABURI,,,KABURI,correct,0.073806424,-0.612881944,1,0,0,3.777615,b,0,5,5,12,1,,
,,,,,,,,,,1093862,2020-10-23_12h08.46.222,swahili,2020.2.4,MacIntel,60,,,,,,,,,,,,,,,,,,,,,,,,,,,,,,,,,,,,,,,,,,,,,,,,,,,,,,,,Amy cooked a grilled ____ sandwich to go with her tomato soup.,JIBINI,,,JIBINI,correct,0.465152995,-0.436024306,1,0,0,7.22734,c,0,6,6,10,1,,
,,,,,,,,,,1093862,2020-10-23_12h08.46.222,swahili,2020.2.4,MacIntel,60,,,,,,,,,,,,,,,,,,,,,,,,,,,,,,,,,,,,,,,,,,,,,,,,,,,,,,,,Pirates looked for buried _________ at the bottom of the sea.,DAFINA,,,DAFINA,correct,-0.465972222,-0.432508681,1,0,0,2.878775,a,0,7,7,19,1,,
,,,,,,,,,,1093862,2020-10-23_12h08.46.222,swahili,2020.2.4,MacIntel,60,,,,,,,,,,,,,,,,,,,,,,,,,,,,,,,,,,,,,,,,,,,,,,,,,,,,,,,,I filled my ____ with food at the buffet. ,SAHANI,,,SAHANI,correct,0.488156467,-0.614444444,1,0,0,14.125505,c,0,8,8,3,1,,
,,,,,,,,,,1093862,2020-10-23_12h08.46.222,swahili,2020.2.4,MacIntel,60,,,,,,,,,,,,,,,,,,,,,,,,,,,,,,,,,,,,,,,,,,,,,,,,,,,,,,,,Shannon had no one else to  ____ for what happened.,LAWAMA,,,LAWAMA,correct,0.117361111,-0.567291667,1,0,0,7.264565,b,0,9,9,5,1,,
,,,,,,,,,,1093862,2020-10-23_12h08.46.222,swahili,2020.2.4,MacIntel,60,,,,,,,,,,,,,,,,,,,,,,,,,,,,,,,,,,,,,,,,,,,,,,,,,,,,,,,,Fermented _______ are used to make wine.,ZABIBU,,,ZABIBU,correct,0.563812934,-0.627378472,1,0,0,3.55711,c,0,10,10,11,1,,
,,,,,,,,,,1093862,2020-10-23_12h08.46.222,swahili,2020.2.4,MacIntel,60,,,,,,,,,,,,,,,,,,,,,,,,,,,,,,,,,,,,,,,,,,,,,,,,,,,,,,,,The _____ is living with foster parents.,YATIMA,,,YATIMA,correct,0.562456597,-0.626796875,1,0,0,5.21359,c,0,11,11,16,1,,
,,,,,,,,,,1093862,2020-10-23_12h08.46.222,swahili,2020.2.4,MacIntel,60,,,,,,,,,,,,,,,,,,,,,,,,,,,,,,,,,,,,,,,,,,,,,,,,,,,,,,,,"On a farm, there is a good chance you will step into a pile of ______.",SAMADI,,,SAMADI,correct,0.017442491,-0.420069444,1,0,0,5.19126,b,0,12,12,13,1,,
,,,,,,,,,,1093862,2020-10-23_12h08.46.222,swahili,2020.2.4,MacIntel,60,,,,,,,,,,,,,,,,,,,,,,,,,,,,,,,,,,,,,,,,,,,,,,,,,,,,,,,,My aunt and uncle got a _________ after two years of marriage.,TALAKA,,,TALAKA,correct,-0.405381944,-0.395043403,1,0,0,4.11259,a,0,13,13,17,1,,
,,,,,,,,,,1093862,2020-10-23_12h08.46.222,swahili,2020.2.4,MacIntel,60,,,,,,,,,,,,,,,,,,,,,,,,,,,,,,,,,,,,,,,,,,,,,,,,,,,,,,,,You need a ______ to go fishing in the middle of a lake.,MASHUA,,,MASHUA,correct,0.375575087,-0.490138889,1,0,0,3.144585,c,0,14,14,18,1,,
,,,,,,,,,,1093862,2020-10-23_12h08.46.222,swahili,2020.2.4,MacIntel,60,,,,,,,,,,,,,,,,,,,,,,,,,,,,,,,,,,,,,,,,,,,,,,,,,,,,,,,,"To buy a house, you may need to speak with a real estate ______.",WAKILI,,,WAKILI,correct,0.0003852,-0.553142361,1,0,0,5.00987,b,0,15,15,14,1,,
,,,,,,,,,,1093862,2020-10-23_12h08.46.222,swahili,2020.2.4,MacIntel,60,,,,,,,,,,,,,,,,,,,,,,,,,,,,,,,,,,,,,,,,,,,,,,,,,,,,,,,,Charles went to the ____ to get his suit adjusted. ,MSHONI,,,MSHONI,correct,0.678461372,-0.602960069,1,0,0,9.29628,c,0,16,16,9,1,,
,,,,,,,,,,1093862,2020-10-23_12h08.46.222,swahili,2020.2.4,MacIntel,60,,,,,,,,,,,,,,,,,,,,,,,,,,,,,,,,,,,,,,,,,,,,,,,,,,,,,,,,The ____ charged the matador's red cape. ,FAHILI,,,FAHILI,correct,0.615500217,-0.6165625,1,0,0,2.79408,c,0,17,17,2,1,,
,,,,,,,,,,1093862,2020-10-23_12h08.46.222,swahili,2020.2.4,MacIntel,60,,,,,,,,,,,,,,,,,,,,,,,,,,,,,,,,,,,,,,,,,,,,,,,,,,,,,,,,The ____ is a bird that can learn to repeat words.,KASUKU,,,KASUKU,correct,0.155311415,-0.480173611,1,0,0,2.26489,b,0,18,18,1,1,,
,,,,,,,,,,1093862,2020-10-23_12h08.46.222,swahili,2020.2.4,MacIntel,60,,,,,,,,,,,,,,,,,,,,,,,,,,,,,,,,,,,,,,,,,,,,,,,,,,,,,,,,The politician was arrested for taking a _____.,RUSHWA,,,RUSHWA,correct,0.074294705,-0.435425347,1,0,0,5.613365,b,0,19,19,15,1,,
,,,,,,,,,,1093862,2020-10-23_12h08.46.222,swahili,2020.2.4,MacIntel,60,,,,,,,,,,,,,,,,,,,,,,,,,,,,,,,,,,,,,,,,,,,,,,,,,,,,,,,,,,,,,,,,,,,,,,,,,,return,11.35355
