condition,consent_key.keys,consent_key.rt,done_with_instructions.keys,done_with_instructions.rt,instr_loop.thisRepN,instr_loop.thisTrialN,instr_loop.thisN,instr_loop.thisIndex,instr_loop.ran,Student ID #,date,expName,psychopyVersion,OS,frameRate,instr_learning_key.keys,instr_learning_key.rt,card_gen_loop.thisRepN,card_gen_loop.thisTrialN,card_gen_loop.thisN,card_gen_loop.thisIndex,card_gen_loop.ran,swa,eng,choose_pile.x,choose_pile.y,choose_pile.leftButton,choose_pile.midButton,choose_pile.rightButton,choose_pile.time,choose_pile.clicked_name,choices.thisRepN,choices.thisTrialN,choices.thisN,choices.thisIndex,choices.ran,card_to_show,mouse_pick.x,mouse_pick.y,mouse_pick.leftButton,mouse_pick.midButton,mouse_pick.rightButton,mouse_pick.time,mouse_pick.clicked_name,key_instr_study.keys,key_instr_study.rt,next_study.keys,next_study.rt,study_loop.thisRepN,study_loop.thisTrialN,study_loop.thisN,study_loop.thisIndex,study_loop.ran,key_instr_test.keys,learn_loop.thisRepN,learn_loop.thisTrialN,learn_loop.thisN,learn_loop.thisIndex,learn_loop.ran,key_instr_test.rt,duration,yes_or_no.x,yes_or_no.y,yes_or_no.leftButton,yes_or_no.midButton,yes_or_no.rightButton,yes_or_no.time,yes_or_no.clicked_name,test_response.stim,test_response.resp,test_response.eval,test_loop.thisRepN,test_loop.thisTrialN,test_loop.thisN,test_loop.thisIndex,test_loop.ran,trials.thisRepN,trials.thisTrialN,trials.thisN,trials.thisIndex,trials.ran,instr_movie_key.keys,instr_movie_key.rt,return_to_exp.keys,return_to_exp.rt,instr_assess_key.keys,instr_assess_key.rt,assess_loop.thisRepN,assess_loop.thisTrialN,assess_loop.thisN,assess_loop.thisIndex,assess_loop.ran,ans_gen_loop.thisRepN,ans_gen_loop.thisTrialN,ans_gen_loop.thisN,ans_gen_loop.thisIndex,ans_gen_loop.ran,sen,ans,instr_transfer_key.keys,instr_transfer_key.rt,transfer_response.resp,transfer_response.eval,select_word.x,select_word.y,select_word.leftButton,select_word.midButton,select_word.rightButton,select_word.time,select_word.clicked_name,transfers.thisRepN,transfers.thisTrialN,transfers.thisN,transfers.thisIndex,transfers.ran,end_experiment.keys,end_experiment.rt
2,return,29.71385,return,14.938645,0,0,0,0,1,1568135,2020-10-23_17h47.27.229,swahili,2020.2.4,MacIntel,60,,,,,,,,,,,,,,,,,,,,,,,,,,,,,,,,,,,,,,,,,,,,,,,,,,,,,,,,,,,,,,,,,,,,,,,,,,,,,,,,,,,,,,,,,,,,,,,,,,,,,,
,,,return,28.47636,1,0,1,0,1,1568135,2020-10-23_17h47.27.229,swahili,2020.2.4,MacIntel,60,,,,,,,,,,,,,,,,,,,,,,,,,,,,,,,,,,,,,,,,,,,,,,,,,,,,,,,,,,,,,,,,,,,,,,,,,,,,,,,,,,,,,,,,,,,,,,,,,,,,,,
,,,,,,,,,,1568135,2020-10-23_17h47.27.229,swahili,2020.2.4,MacIntel,60,return,10.44518,0,0,0,0,1,TAJIRI,MERCHANT,,,,,,,,,,,,,,,,,,,,,,,,,,,,,,,,,,,,,,,,,,,,,,,,,,,,,,,,,,,,,,,,,,,,,,,,,,,,,,,,,,,,,,,,,,,,,
,,,,,,,,,,1568135,2020-10-23_17h47.27.229,swahili,2020.2.4,MacIntel,60,,,0,1,1,1,1,KASUKU,PARROT,,,,,,,,,,,,,,,,,,,,,,,,,,,,,,,,,,,,,,,,,,,,,,,,,,,,,,,,,,,,,,,,,,,,,,,,,,,,,,,,,,,,,,,,,,,,,
,,,,,,,,,,1568135,2020-10-23_17h47.27.229,swahili,2020.2.4,MacIntel,60,,,0,2,2,2,1,FAHILI,BULL,,,,,,,,,,,,,,,,,,,,,,,,,,,,,,,,,,,,,,,,,,,,,,,,,,,,,,,,,,,,,,,,,,,,,,,,,,,,,,,,,,,,,,,,,,,,,
,,,,,,,,,,1568135,2020-10-23_17h47.27.229,swahili,2020.2.4,MacIntel,60,,,0,3,3,3,1,SAHANI,PLATE,,,,,,,,,,,,,,,,,,,,,,,,,,,,,,,,,,,,,,,,,,,,,,,,,,,,,,,,,,,,,,,,,,,,,,,,,,,,,,,,,,,,,,,,,,,,,
,,,,,,,,,,1568135,2020-10-23_17h47.27.229,swahili,2020.2.4,MacIntel,60,,,0,4,4,4,1,HAMIRA,YEAST,,,,,,,,,,,,,,,,,,,,,,,,,,,,,,,,,,,,,,,,,,,,,,,,,,,,,,,,,,,,,,,,,,,,,,,,,,,,,,,,,,,,,,,,,,,,,
,,,,,,,,,,1568135,2020-10-23_17h47.27.229,swahili,2020.2.4,MacIntel,60,,,0,5,5,5,1,LAWAMA,BLAME,,,,,,,,,,,,,,,,,,,,,,,,,,,,,,,,,,,,,,,,,,,,,,,,,,,,,,,,,,,,,,,,,,,,,,,,,,,,,,,,,,,,,,,,,,,,,
,,,,,,,,,,1568135,2020-10-23_17h47.27.229,swahili,2020.2.4,MacIntel,60,,,0,6,6,6,1,YAMINI,OATH,,,,,,,,,,,,,,,,,,,,,,,,,,,,,,,,,,,,,,,,,,,,,,,,,,,,,,,,,,,,,,,,,,,,,,,,,,,,,,,,,,,,,,,,,,,,,
,,,,,,,,,,1568135,2020-10-23_17h47.27.229,swahili,2020.2.4,MacIntel,60,,,0,7,7,7,1,NAFAKA,CORN,,,,,,,,,,,,,,,,,,,,,,,,,,,,,,,,,,,,,,,,,,,,,,,,,,,,,,,,,,,,,,,,,,,,,,,,,,,,,,,,,,,,,,,,,,,,,
,,,,,,,,,,1568135,2020-10-23_17h47.27.229,swahili,2020.2.4,MacIntel,60,,,0,8,8,8,1,UTENZI,POEM,,,,,,,,,,,,,,,,,,,,,,,,,,,,,,,,,,,,,,,,,,,,,,,,,,,,,,,,,,,,,,,,,,,,,,,,,,,,,,,,,,,,,,,,,,,,,
,,,,,,,,,,1568135,2020-10-23_17h47.27.229,swahili,2020.2.4,MacIntel,60,,,0,9,9,9,1,MSHONI,TAILOR,,,,,,,,,,,,,,,,,,,,,,,,,,,,,,,,,,,,,,,,,,,,,,,,,,,,,,,,,,,,,,,,,,,,,,,,,,,,,,,,,,,,,,,,,,,,,
,,,,,,,,,,1568135,2020-10-23_17h47.27.229,swahili,2020.2.4,MacIntel,60,,,0,10,10,10,1,JIBINI,CHEESE,,,,,,,,,,,,,,,,,,,,,,,,,,,,,,,,,,,,,,,,,,,,,,,,,,,,,,,,,,,,,,,,,,,,,,,,,,,,,,,,,,,,,,,,,,,,,
,,,,,,,,,,1568135,2020-10-23_17h47.27.229,swahili,2020.2.4,MacIntel,60,,,0,11,11,11,1,ZABIBU,GRAPES,,,,,,,,,,,,,,,,,,,,,,,,,,,,,,,,,,,,,,,,,,,,,,,,,,,,,,,,,,,,,,,,,,,,,,,,,,,,,,,,,,,,,,,,,,,,,
,,,,,,,,,,1568135,2020-10-23_17h47.27.229,swahili,2020.2.4,MacIntel,60,,,0,12,12,12,1,KABURI,GRAVE,,,,,,,,,,,,,,,,,,,,,,,,,,,,,,,,,,,,,,,,,,,,,,,,,,,,,,,,,,,,,,,,,,,,,,,,,,,,,,,,,,,,,,,,,,,,,
,,,,,,,,,,1568135,2020-10-23_17h47.27.229,swahili,2020.2.4,MacIntel,60,,,0,13,13,13,1,SAMADI,MANURE,,,,,,,,,,,,,,,,,,,,,,,,,,,,,,,,,,,,,,,,,,,,,,,,,,,,,,,,,,,,,,,,,,,,,,,,,,,,,,,,,,,,,,,,,,,,,
,,,,,,,,,,1568135,2020-10-23_17h47.27.229,swahili,2020.2.4,MacIntel,60,,,0,14,14,14,1,WAKILI,AGENT,,,,,,,,,,,,,,,,,,,,,,,,,,,,,,,,,,,,,,,,,,,,,,,,,,,,,,,,,,,,,,,,,,,,,,,,,,,,,,,,,,,,,,,,,,,,,
,,,,,,,,,,1568135,2020-10-23_17h47.27.229,swahili,2020.2.4,MacIntel,60,,,0,15,15,15,1,RUSHWA,BRIBE,,,,,,,,,,,,,,,,,,,,,,,,,,,,,,,,,,,,,,,,,,,,,,,,,,,,,,,,,,,,,,,,,,,,,,,,,,,,,,,,,,,,,,,,,,,,,
,,,,,,,,,,1568135,2020-10-23_17h47.27.229,swahili,2020.2.4,MacIntel,60,,,0,16,16,16,1,YATIMA,ORPHAN,,,,,,,,,,,,,,,,,,,,,,,,,,,,,,,,,,,,,,,,,,,,,,,,,,,,,,,,,,,,,,,,,,,,,,,,,,,,,,,,,,,,,,,,,,,,,
,,,,,,,,,,1568135,2020-10-23_17h47.27.229,swahili,2020.2.4,MacIntel,60,,,0,17,17,17,1,TALAKA,DIVORCE,,,,,,,,,,,,,,,,,,,,,,,,,,,,,,,,,,,,,,,,,,,,,,,,,,,,,,,,,,,,,,,,,,,,,,,,,,,,,,,,,,,,,,,,,,,,,
,,,,,,,,,,1568135,2020-10-23_17h47.27.229,swahili,2020.2.4,MacIntel,60,,,0,18,18,18,1,MASHUA,BOAT,,,,,,,,,,,,,,,,,,,,,,,,,,,,,,,,,,,,,,,,,,,,,,,,,,,,,,,,,,,,,,,,,,,,,,,,,,,,,,,,,,,,,,,,,,,,,
,,,,,,,,,,1568135,2020-10-23_17h47.27.229,swahili,2020.2.4,MacIntel,60,,,0,19,19,19,1,DAFINA,TREASURE,,,,,,,,,,,,,,,,,,,,,,,,,,,,,,,,,,,,,,,,,,,,,,,,,,,,,,,,,,,,,,,,,,,,,,,,,,,,,,,,,,,,,,,,,,,,,
,,,,,,,,,,1568135,2020-10-23_17h47.27.229,swahili,2020.2.4,MacIntel,60,,,,,,,,,,-0.275097656,-0.048914931,1,0,0,7.915565,unsorted_card,0,0,0,0,1,,,,,,,,,,,,,,,,,,,,,,,,,,,,,,,,,,,,,,,,,,,,,,,,,,,,,,,,,,,,,,,,,,,,,,,,,,,,,,,,,
,,,,,,,,,,1568135,2020-10-23_17h47.27.229,swahili,2020.2.4,MacIntel,60,,,,,,,,,,0.405653212,0.499913194,1,0,0,6.394325,study_pile,1,0,1,0,1,MERCHANT - TAJIRI,,,,,,,,,,,,,,,,,,,,,,,,,,,,,,,,,,,,,,,,,,,,,,,,,,,,,,,,,,,,,,,,,,,,,,,,,,,,,,,,
,,,,,,,,,,1568135,2020-10-23_17h47.27.229,swahili,2020.2.4,MacIntel,60,,,,,,,,,,0.444086372,-0.064010417,1,0,0,1.73079,test_pile,2,0,2,0,1,,,,,,,,,,,,,,,,,,,,,,,,,,,,,,,,,,,,,,,,,,,,,,,,,,,,,,,,,,,,,,,,,,,,,,,,,,,,,,,,,
,,,,,,,,,,1568135,2020-10-23_17h47.27.229,swahili,2020.2.4,MacIntel,60,,,,,,,,,,-0.148773872,-0.052621528,1,0,0,1.6476,unsorted_card,3,0,3,0,1,,,,,,,,,,,,,,,,,,,,,,,,,,,,,,,,,,,,,,,,,,,,,,,,,,,,,,,,,,,,,,,,,,,,,,,,,,,,,,,,,
,,,,,,,,,,1568135,2020-10-23_17h47.27.229,swahili,2020.2.4,MacIntel,60,,,,,,,,,,0.405284288,0.077447917,1,0,0,3.965935,test_pile,4,0,4,0,1,PARROT - KASUKU,,,,,,,,,,,,,,,,,,,,,,,,,,,,,,,,,,,,,,,,,,,,,,,,,,,,,,,,,,,,,,,,,,,,,,,,,,,,,,,,
,,,,,,,,,,1568135,2020-10-23_17h47.27.229,swahili,2020.2.4,MacIntel,60,,,,,,,,,,-0.219813368,0.042517361,1,0,0,1.213925,unsorted_card,5,0,5,0,1,,,,,,,,,,,,,,,,,,,,,,,,,,,,,,,,,,,,,,,,,,,,,,,,,,,,,,,,,,,,,,,,,,,,,,,,,,,,,,,,,
,,,,,,,,,,1568135,2020-10-23_17h47.27.229,swahili,2020.2.4,MacIntel,60,,,,,,,,,,0.405642361,-0.042760417,1,0,0,3.215795,test_pile,6,0,6,0,1,BULL - FAHILI,,,,,,,,,,,,,,,,,,,,,,,,,,,,,,,,,,,,,,,,,,,,,,,,,,,,,,,,,,,,,,,,,,,,,,,,,,,,,,,,
,,,,,,,,,,1568135,2020-10-23_17h47.27.229,swahili,2020.2.4,MacIntel,60,,,,,,,,,,-0.314415148,0.03765625,1,0,0,2.28159,unsorted_card,7,0,7,0,1,,,,,,,,,,,,,,,,,,,,,,,,,,,,,,,,,,,,,,,,,,,,,,,,,,,,,,,,,,,,,,,,,,,,,,,,,,,,,,,,,
,,,,,,,,,,1568135,2020-10-23_17h47.27.229,swahili,2020.2.4,MacIntel,60,,,,,,,,,,0.542811415,-0.036831597,1,0,0,2.799235,test_pile,8,0,8,0,1,PLATE - SAHANI,,,,,,,,,,,,,,,,,,,,,,,,,,,,,,,,,,,,,,,,,,,,,,,,,,,,,,,,,,,,,,,,,,,,,,,,,,,,,,,,
,,,,,,,,,,1568135,2020-10-23_17h47.27.229,swahili,2020.2.4,MacIntel,60,,,,,,,,,,-0.096940104,-0.010538194,1,0,0,1.066175,unsorted_card,9,0,9,0,1,,,,,,,,,,,,,,,,,,,,,,,,,,,,,,,,,,,,,,,,,,,,,,,,,,,,,,,,,,,,,,,,,,,,,,,,,,,,,,,,,
,,,,,,,,,,1568135,2020-10-23_17h47.27.229,swahili,2020.2.4,MacIntel,60,,,,,,,,,,0.393375651,-0.00875,1,0,0,2.848505,test_pile,10,0,10,0,1,YEAST - HAMIRA,,,,,,,,,,,,,,,,,,,,,,,,,,,,,,,,,,,,,,,,,,,,,,,,,,,,,,,,,,,,,,,,,,,,,,,,,,,,,,,,
,,,,,,,,,,1568135,2020-10-23_17h47.27.229,swahili,2020.2.4,MacIntel,60,,,,,,,,,,-0.149441189,-0.010399306,1,0,0,1.198005,unsorted_card,11,0,11,0,1,,,,,,,,,,,,,,,,,,,,,,,,,,,,,,,,,,,,,,,,,,,,,,,,,,,,,,,,,,,,,,,,,,,,,,,,,,,,,,,,,
,,,,,,,,,,1568135,2020-10-23_17h47.27.229,swahili,2020.2.4,MacIntel,60,,,,,,,,,,0.39858941,0.056527778,1,0,0,2.11673,test_pile,12,0,12,0,1,BLAME - LAWAMA,,,,,,,,,,,,,,,,,,,,,,,,,,,,,,,,,,,,,,,,,,,,,,,,,,,,,,,,,,,,,,,,,,,,,,,,,,,,,,,,
,,,,,,,,,,1568135,2020-10-23_17h47.27.229,swahili,2020.2.4,MacIntel,60,,,,,,,,,,-0.193451606,-0.082230903,1,0,0,0.93096,unsorted_card,13,0,13,0,1,,,,,,,,,,,,,,,,,,,,,,,,,,,,,,,,,,,,,,,,,,,,,,,,,,,,,,,,,,,,,,,,,,,,,,,,,,,,,,,,,
,,,,,,,,,,1568135,2020-10-23_17h47.27.229,swahili,2020.2.4,MacIntel,60,,,,,,,,,,0.404633247,-0.035442708,1,0,0,2.232165,test_pile,14,0,14,0,1,OATH - YAMINI,,,,,,,,,,,,,,,,,,,,,,,,,,,,,,,,,,,,,,,,,,,,,,,,,,,,,,,,,,,,,,,,,,,,,,,,,,,,,,,,
,,,,,,,,,,1568135,2020-10-23_17h47.27.229,swahili,2020.2.4,MacIntel,60,,,,,,,,,,-0.176904297,-0.007829861,1,0,0,0.848055,unsorted_card,15,0,15,0,1,,,,,,,,,,,,,,,,,,,,,,,,,,,,,,,,,,,,,,,,,,,,,,,,,,,,,,,,,,,,,,,,,,,,,,,,,,,,,,,,,
,,,,,,,,,,1568135,2020-10-23_17h47.27.229,swahili,2020.2.4,MacIntel,60,,,,,,,,,,0.393082682,0.014887153,1,0,0,1.43256,test_pile,16,0,16,0,1,CORN - NAFAKA,,,,,,,,,,,,,,,,,,,,,,,,,,,,,,,,,,,,,,,,,,,,,,,,,,,,,,,,,,,,,,,,,,,,,,,,,,,,,,,,
,,,,,,,,,,1568135,2020-10-23_17h47.27.229,swahili,2020.2.4,MacIntel,60,,,,,,,,,,-0.206759983,-0.035182292,1,0,0,1.56452,unsorted_card,17,0,17,0,1,,,,,,,,,,,,,,,,,,,,,,,,,,,,,,,,,,,,,,,,,,,,,,,,,,,,,,,,,,,,,,,,,,,,,,,,,,,,,,,,,
,,,,,,,,,,1568135,2020-10-23_17h47.27.229,swahili,2020.2.4,MacIntel,60,,,,,,,,,,0.391883681,-0.003967014,1,0,0,2.382975,test_pile,18,0,18,0,1,POEM - UTENZI,,,,,,,,,,,,,,,,,,,,,,,,,,,,,,,,,,,,,,,,,,,,,,,,,,,,,,,,,,,,,,,,,,,,,,,,,,,,,,,,
,,,,,,,,,,1568135,2020-10-23_17h47.27.229,swahili,2020.2.4,MacIntel,60,,,,,,,,,,-0.16226671,-0.065399306,1,0,0,0.898985,unsorted_card,19,0,19,0,1,,,,,,,,,,,,,,,,,,,,,,,,,,,,,,,,,,,,,,,,,,,,,,,,,,,,,,,,,,,,,,,,,,,,,,,,,,,,,,,,,
,,,,,,,,,,1568135,2020-10-23_17h47.27.229,swahili,2020.2.4,MacIntel,60,,,,,,,,,,0.356195747,0.014869792,1,0,0,3.28089,test_pile,20,0,20,0,1,TAILOR - MSHONI,,,,,,,,,,,,,,,,,,,,,,,,,,,,,,,,,,,,,,,,,,,,,,,,,,,,,,,,,,,,,,,,,,,,,,,,,,,,,,,,
,,,,,,,,,,1568135,2020-10-23_17h47.27.229,swahili,2020.2.4,MacIntel,60,,,,,,,,,,-0.189740668,-0.010972222,1,0,0,1.3312,unsorted_card,21,0,21,0,1,,,,,,,,,,,,,,,,,,,,,,,,,,,,,,,,,,,,,,,,,,,,,,,,,,,,,,,,,,,,,,,,,,,,,,,,,,,,,,,,,
,,,,,,,,,,1568135,2020-10-23_17h47.27.229,swahili,2020.2.4,MacIntel,60,,,,,,,,,,0.380674913,-0.015390625,1,0,0,3.99959,test_pile,22,0,22,0,1,CHEESE - JIBINI,,,,,,,,,,,,,,,,,,,,,,,,,,,,,,,,,,,,,,,,,,,,,,,,,,,,,,,,,,,,,,,,,,,,,,,,,,,,,,,,
,,,,,,,,,,1568135,2020-10-23_17h47.27.229,swahili,2020.2.4,MacIntel,60,,,,,,,,,,-0.164089627,-0.027482639,1,0,0,0.89671,unsorted_card,23,0,23,0,1,,,,,,,,,,,,,,,,,,,,,,,,,,,,,,,,,,,,,,,,,,,,,,,,,,,,,,,,,,,,,,,,,,,,,,,,,,,,,,,,,
,,,,,,,,,,1568135,2020-10-23_17h47.27.229,swahili,2020.2.4,MacIntel,60,,,,,,,,,,0.393473307,-0.030104167,1,0,0,1.69864,test_pile,24,0,24,0,1,GRAPES - ZABIBU,,,,,,,,,,,,,,,,,,,,,,,,,,,,,,,,,,,,,,,,,,,,,,,,,,,,,,,,,,,,,,,,,,,,,,,,,,,,,,,,
,,,,,,,,,,1568135,2020-10-23_17h47.27.229,swahili,2020.2.4,MacIntel,60,,,,,,,,,,-0.160384115,-0.058723958,1,0,0,0.816285,unsorted_card,25,0,25,0,1,,,,,,,,,,,,,,,,,,,,,,,,,,,,,,,,,,,,,,,,,,,,,,,,,,,,,,,,,,,,,,,,,,,,,,,,,,,,,,,,,
,,,,,,,,,,1568135,2020-10-23_17h47.27.229,swahili,2020.2.4,MacIntel,60,,,,,,,,,,0.392567274,-0.018046875,1,0,0,1.81458,test_pile,26,0,26,0,1,GRAVE - KABURI,,,,,,,,,,,,,,,,,,,,,,,,,,,,,,,,,,,,,,,,,,,,,,,,,,,,,,,,,,,,,,,,,,,,,,,,,,,,,,,,
,,,,,,,,,,1568135,2020-10-23_17h47.27.229,swahili,2020.2.4,MacIntel,60,,,,,,,,,,-0.220871311,-0.000364583,1,0,0,0.66642,unsorted_card,27,0,27,0,1,,,,,,,,,,,,,,,,,,,,,,,,,,,,,,,,,,,,,,,,,,,,,,,,,,,,,,,,,,,,,,,,,,,,,,,,,,,,,,,,,
,,,,,,,,,,1568135,2020-10-23_17h47.27.229,swahili,2020.2.4,MacIntel,60,,,,,,,,,,0.418614366,0.018125,1,0,0,2.031955,test_pile,28,0,28,0,1,MANURE - SAMADI,,,,,,,,,,,,,,,,,,,,,,,,,,,,,,,,,,,,,,,,,,,,,,,,,,,,,,,,,,,,,,,,,,,,,,,,,,,,,,,,
,,,,,,,,,,1568135,2020-10-23_17h47.27.229,swahili,2020.2.4,MacIntel,60,,,,,,,,,,-0.224972873,0.025451389,1,0,0,0.94717,unsorted_card,29,0,29,0,1,,,,,,,,,,,,,,,,,,,,,,,,,,,,,,,,,,,,,,,,,,,,,,,,,,,,,,,,,,,,,,,,,,,,,,,,,,,,,,,,,
,,,,,,,,,,1568135,2020-10-23_17h47.27.229,swahili,2020.2.4,MacIntel,60,,,,,,,,,,0.41328125,8.6856E-06,1,0,0,4.531925,test_pile,30,0,30,0,1,AGENT - WAKILI,,,,,,,,,,,,,,,,,,,,,,,,,,,,,,,,,,,,,,,,,,,,,,,,,,,,,,,,,,,,,,,,,,,,,,,,,,,,,,,,
,,,,,,,,,,1568135,2020-10-23_17h47.27.229,swahili,2020.2.4,MacIntel,60,,,,,,,,,,-0.207231988,0.033324653,1,0,0,0.965035,unsorted_card,31,0,31,0,1,,,,,,,,,,,,,,,,,,,,,,,,,,,,,,,,,,,,,,,,,,,,,,,,,,,,,,,,,,,,,,,,,,,,,,,,,,,,,,,,,
,,,,,,,,,,1568135,2020-10-23_17h47.27.229,swahili,2020.2.4,MacIntel,60,,,,,,,,,,0.41500651,-0.003932292,1,0,0,4.599075,test_pile,32,0,32,0,1,BRIBE - RUSHWA,,,,,,,,,,,,,,,,,,,,,,,,,,,,,,,,,,,,,,,,,,,,,,,,,,,,,,,,,,,,,,,,,,,,,,,,,,,,,,,,
,,,,,,,,,,1568135,2020-10-23_17h47.27.229,swahili,2020.2.4,MacIntel,60,,,,,,,,,,-0.262505425,-0.001571181,1,0,0,0.93186,unsorted_card,33,0,33,0,1,,,,,,,,,,,,,,,,,,,,,,,,,,,,,,,,,,,,,,,,,,,,,,,,,,,,,,,,,,,,,,,,,,,,,,,,,,,,,,,,,
,,,,,,,,,,1568135,2020-10-23_17h47.27.229,swahili,2020.2.4,MacIntel,60,,,,,,,,,,0.418429905,0.035512153,1,0,0,6.11548,test_pile,34,0,34,0,1,ORPHAN - YATIMA,,,,,,,,,,,,,,,,,,,,,,,,,,,,,,,,,,,,,,,,,,,,,,,,,,,,,,,,,,,,,,,,,,,,,,,,,,,,,,,,
,,,,,,,,,,1568135,2020-10-23_17h47.27.229,swahili,2020.2.4,MacIntel,60,,,,,,,,,,-0.174582248,-0.011605903,1,0,0,0.5967,unsorted_card,35,0,35,0,1,,,,,,,,,,,,,,,,,,,,,,,,,,,,,,,,,,,,,,,,,,,,,,,,,,,,,,,,,,,,,,,,,,,,,,,,,,,,,,,,,
,,,,,,,,,,1568135,2020-10-23_17h47.27.229,swahili,2020.2.4,MacIntel,60,,,,,,,,,,0.424593099,-0.022378472,1,0,0,1.3501,test_pile,36,0,36,0,1,DIVORCE - TALAKA,,,,,,,,,,,,,,,,,,,,,,,,,,,,,,,,,,,,,,,,,,,,,,,,,,,,,,,,,,,,,,,,,,,,,,,,,,,,,,,,
,,,,,,,,,,1568135,2020-10-23_17h47.27.229,swahili,2020.2.4,MacIntel,60,,,,,,,,,,-0.150949436,-0.024175347,1,0,0,0.730785,unsorted_card,37,0,37,0,1,,,,,,,,,,,,,,,,,,,,,,,,,,,,,,,,,,,,,,,,,,,,,,,,,,,,,,,,,,,,,,,,,,,,,,,,,,,,,,,,,
,,,,,,,,,,1568135,2020-10-23_17h47.27.229,swahili,2020.2.4,MacIntel,60,,,,,,,,,,0.376123047,-0.011076389,1,0,0,1.632365,test_pile,38,0,38,0,1,BOAT - MASHUA,,,,,,,,,,,,,,,,,,,,,,,,,,,,,,,,,,,,,,,,,,,,,,,,,,,,,,,,,,,,,,,,,,,,,,,,,,,,,,,,
,,,,,,,,,,1568135,2020-10-23_17h47.27.229,swahili,2020.2.4,MacIntel,60,,,,,,,,,,-0.264453125,-0.023211806,1,0,0,1.981255,unsorted_card,39,0,39,0,1,,,,,,,,,,,,,,,,,,,,,,,,,,,,,,,,,,,,,,,,,,,,,,,,,,,,,,,,,,,,,,,,,,,,,,,,,,,,,,,,,
,,,,,,,,,,1568135,2020-10-23_17h47.27.229,swahili,2020.2.4,MacIntel,60,,,,,,,,,,0.385150825,-0.055234375,1,0,0,1.550075,test_pile,40,0,40,0,1,TREASURE - DAFINA,,,,,,,,,,,,,,,,,,,,,,,,,,,,,,,,,,,,,,,,,,,,,,,,,,,,,,,,,,,,,,,,,,,,,,,,,,,,,,,,
,,,,,,,,,,1568135,2020-10-23_17h47.27.229,swahili,2020.2.4,MacIntel,60,,,,,,,,,,,,,,,,,,,,,,MERCHANT - TAJIRI,-0.388834635,0.010998264,1,0,0,3.378375,study_first,return,4.10275,return,1.93351,0,0,0,0,1,,,,,,,,,,,,,,,,,,,,,,,,,,,,,,,,,,,,,,,,,,,,,,,,,,,,,,,,,,,,,,,,
,,,,,,,,,,1568135,2020-10-23_17h47.27.229,swahili,2020.2.4,MacIntel,60,,,,,,,,,,,,,,,,,,,,,,,,,,,,,,,,,,,,,,,,0,0,0,0,1,,,,,,,,,,,,,,,,,,,,,,,,,,,,,,,,,,,,,,,,,,,,,,,,,,,,,,,,,,
,,,,,,,,,,1568135,2020-10-23_17h47.27.229,swahili,2020.2.4,MacIntel,60,,,,,,,,,,,,,,,,,,,,,,,,,,,,,,,,,,0,0,0,0,1,,,,,,,,,,,,,,,,,,,,,,,,,,,,,,,,,,,,,,,,,,,,,,,,,,,,,,,,,,,,,,,,
,,,,,,,,,,1568135,2020-10-23_17h47.27.229,swahili,2020.2.4,MacIntel,60,,,,,,,,,,,,,,,,,,,,,,,,,,,,,,,,,,,,,,,return,,,,,,7.932975,8.430185,0.34303928,0.024973958,1,0,0,2.748425,yes,MANURE,SKFJA,incorrect,0,0,0,0,1,,,,,,,,,,,,,,,,,,,,,,,,,,,,,,,,,,,,,,,,,
,,,,,,,,,,1568135,2020-10-23_17h47.27.229,swahili,2020.2.4,MacIntel,60,,,,,,,,,,,,,,,,,,,,,,,,,,,,,,,,,,,,,,,,,,,,,,6.49868,0.285753038,-0.086119792,1,0,0,1.96637,yes,ORPHAN,JUJU,incorrect,1,0,1,0,1,,,,,,,,,,,,,,,,,,,,,,,,,,,,,,,,,,,,,,,,,
,,,,,,,,,,1568135,2020-10-23_17h47.27.229,swahili,2020.2.4,MacIntel,60,,,,,,,,,,,,,,,,,,,,,,,,,,,,,,,,,,,,,,,,,,,,,,7.263675,0.339355469,-0.020616319,1,0,0,0.882365,yes,TAILOR,MCH,incorrect,2,0,2,0,1,,,,,,,,,,,,,,,,,,,,,,,,,,,,,,,,,,,,,,,,,
,,,,,,,,,,1568135,2020-10-23_17h47.27.229,swahili,2020.2.4,MacIntel,60,,,,,,,,,,,,,,,,,,,,,,,,,,,,,,,,,,,,,,,,,,,,,,7.01564,0.468451606,-0.084505208,1,0,0,0.79843,yes,BRIBE,D,incorrect,3,0,3,0,1,,,,,,,,,,,,,,,,,,,,,,,,,,,,,,,,,,,,,,,,,
,,,,,,,,,,1568135,2020-10-23_17h47.27.229,swahili,2020.2.4,MacIntel,60,,,,,,,,,,,,,,,,,,,,,,,,,,,,,,,,,,,,,,,,,,,,,,4.730525,0.434364149,0.01484375,1,0,0,0.91808,yes,BOAT,S,incorrect,4,0,4,0,1,,,,,,,,,,,,,,,,,,,,,,,,,,,,,,,,,,,,,,,,,
,,,,,,,,,,1568135,2020-10-23_17h47.27.229,swahili,2020.2.4,MacIntel,60,,,,,,,,,,,,,,,,,,,,,,,,,,,,,,,,,,,,,,,,,,,,,,3.197585,0.328445095,-0.076050347,1,0,0,0.68251,yes,PARROT,D,incorrect,5,0,5,0,1,,,,,,,,,,,,,,,,,,,,,,,,,,,,,,,,,,,,,,,,,
,,,,,,,,,,1568135,2020-10-23_17h47.27.229,swahili,2020.2.4,MacIntel,60,,,,,,,,,,,,,,,,,,,,,,,,,,,,,,,,,,,,,,,,,,,,,,4.165465,0.324522569,-0.020546875,1,0,0,2.16627,yes,TREASURE,M,incorrect,6,0,6,0,1,,,,,,,,,,,,,,,,,,,,,,,,,,,,,,,,,,,,,,,,,
,,,,,,,,,,1568135,2020-10-23_17h47.27.229,swahili,2020.2.4,MacIntel,60,,,,,,,,,,,,,,,,,,,,,,,,,,,,,,,,,,,,,,,,,,,,,,5.398385,0.332796224,0.005234375,1,0,0,0.617375,yes,BULL,NU,incorrect,7,0,7,0,1,,,,,,,,,,,,,,,,,,,,,,,,,,,,,,,,,,,,,,,,,
,,,,,,,,,,1568135,2020-10-23_17h47.27.229,swahili,2020.2.4,MacIntel,60,,,,,,,,,,,,,,,,,,,,,,,,,,,,,,,,,,,,,,,,,,,,,,4.532025,0.34147678,0.005572917,1,0,0,0.832955,yes,BLAME,NU,incorrect,8,0,8,0,1,,,,,,,,,,,,,,,,,,,,,,,,,,,,,,,,,,,,,,,,,
,,,,,,,,,,1568135,2020-10-23_17h47.27.229,swahili,2020.2.4,MacIntel,60,,,,,,,,,,,,,,,,,,,,,,,,,,,,,,,,,,,,,,,,,,,,,,2.94814,0.323887804,-0.079913194,1,0,0,0.801795,yes,CHEESE,JIBINI,incorrect,9,0,9,0,1,,,,,,,,,,,,,,,,,,,,,,,,,,,,,,,,,,,,,,,,,
,,,,,,,,,,1568135,2020-10-23_17h47.27.229,swahili,2020.2.4,MacIntel,60,,,,,,,,,,,,,,,,,,,,,,,,,,,,,,,,,,,,,,,,,,,,,,5.46544,0.278271484,-0.018784722,1,0,0,0.78254,yes,POEM,TENOR,incorrect,10,0,10,0,1,,,,,,,,,,,,,,,,,,,,,,,,,,,,,,,,,,,,,,,,,
,,,,,,,,,,1568135,2020-10-23_17h47.27.229,swahili,2020.2.4,MacIntel,60,,,,,,,,,,,,,,,,,,,,,,,,,,,,,,,,,,,,,,,,,,,,,,4.41575,0.316292318,0.072960069,1,0,0,1.38128,yes,AGENT,RE,incorrect,11,0,11,0,1,,,,,,,,,,,,,,,,,,,,,,,,,,,,,,,,,,,,,,,,,
,,,,,,,,,,1568135,2020-10-23_17h47.27.229,swahili,2020.2.4,MacIntel,60,,,,,,,,,,,,,,,,,,,,,,,,,,,,,,,,,,,,,,,,,,,,,,2.998095,0.311056858,0.105208333,1,0,0,0.78319,yes,GRAPES,ZUMBUBU,incorrect,12,0,12,0,1,,,,,,,,,,,,,,,,,,,,,,,,,,,,,,,,,,,,,,,,,
,,,,,,,,,,1568135,2020-10-23_17h47.27.229,swahili,2020.2.4,MacIntel,60,,,,,,,,,,,,,,,,,,,,,,,,,,,,,,,,,,,,,,,,,,,,,,3.08252,0.260378689,0.167109375,1,0,0,0.698785,yes,OATH,RE,incorrect,13,0,13,0,1,,,,,,,,,,,,,,,,,,,,,,,,,,,,,,,,,,,,,,,,,
,,,,,,,,,,1568135,2020-10-23_17h47.27.229,swahili,2020.2.4,MacIntel,60,,,,,,,,,,,,,,,,,,,,,,,,,,,,,,,,,,,,,,,,,,,,,,4.048665,0.338802083,0.087456597,1,0,0,0.69964,yes,CORN,YAKAI,incorrect,14,0,14,0,1,,,,,,,,,,,,,,,,,,,,,,,,,,,,,,,,,,,,,,,,,
,,,,,,,,,,1568135,2020-10-23_17h47.27.229,swahili,2020.2.4,MacIntel,60,,,,,,,,,,,,,,,,,,,,,,,,,,,,,,,,,,,,,,,,,,,,,,2.24696,0.358930122,0.153836806,1,0,0,0.566655,yes,YEAST,GH,incorrect,15,0,15,0,1,,,,,,,,,,,,,,,,,,,,,,,,,,,,,,,,,,,,,,,,,
,,,,,,,,,,1568135,2020-10-23_17h47.27.229,swahili,2020.2.4,MacIntel,60,,,,,,,,,,,,,,,,,,,,,,,,,,,,,,,,,,,,,,,,,,,,,,2.881195,0.349690755,0.159704861,1,0,0,0.58223,yes,GRAVE,KURAZU,incorrect,16,0,16,0,1,,,,,,,,,,,,,,,,,,,,,,,,,,,,,,,,,,,,,,,,,
,,,,,,,,,,1568135,2020-10-23_17h47.27.229,swahili,2020.2.4,MacIntel,60,,,,,,,,,,,,,,,,,,,,,,,,,,,,,,,,,,,,,,,,,,,,,,2.765105,0.349690755,0.159704861,1,0,0,0.466155,yes,DIVORCE,TAKA,incorrect,17,0,17,0,1,,,,,,,,,,,,,,,,,,,,,,,,,,,,,,,,,,,,,,,,,
,,,,,,,,,,1568135,2020-10-23_17h47.27.229,swahili,2020.2.4,MacIntel,60,,,,,,,,,,,,,,,,,,,,,,,,,,,,,,,,,,,,,,,,,,,,,,3.51417,0.349690755,0.159704861,1,0,0,0.48234,yes,PLATE,J,incorrect,18,0,18,0,1,,,,,,,,,,,,,,,,,,,,,,,,,,,,,,,,,,,,,,,,,
,,,,,,,,,,1568135,2020-10-23_17h47.27.229,swahili,2020.2.4,MacIntel,60,,,,,,,,,,,,,,,,,,,,,,,,,,,,,,,,,,,,,,,,1,0,1,0,1,,,,,,,,,,,,,,,,,,,,,,,,,,,,,,,,,,,,,,,,,,,,,,,,,,,,,,,,,,
,,,,,,,,,,1568135,2020-10-23_17h47.27.229,swahili,2020.2.4,MacIntel,60,,,,,,,,,,,,,,,,,,,,,,,,,,,,,,,,,,,,,,,,,,,,,,,,,,,,,,,,,,,,,,0,0,0,0,1,,,,,,,,,,,,,,,,,,,,,,,,,,,,,,,,,,,,
,,,,,,,,,,1568135,2020-10-23_17h47.27.229,swahili,2020.2.4,MacIntel,60,,,,,,,,,,-0.185633681,-0.008385417,1,0,0,5.85054,unsorted_card,0,0,0,0,1,,,,,,,,,,,,,,,,,,,,,,,,,,,,,,,,,,,,,,,,,,,,,,,,,,,,,,,,,,,,,,,,,,,,,,,,,,,,,,,,,
,,,,,,,,,,1568135,2020-10-23_17h47.27.229,swahili,2020.2.4,MacIntel,60,,,,,,,,,,0.43008355,-0.060590278,1,0,0,1.26519,test_pile,1,0,1,0,1,MERCHANT - TAJIRI,,,,,,,,,,,,,,,,,,,,,,,,,,,,,,,,,,,,,,,,,,,,,,,,,,,,,,,,,,,,,,,,,,,,,,,,,,,,,,,,
,,,,,,,,,,1568135,2020-10-23_17h47.27.229,swahili,2020.2.4,MacIntel,60,,,,,,,,,,-0.182986111,-0.081423611,1,0,0,0.699175,unsorted_card,2,0,2,0,1,,,,,,,,,,,,,,,,,,,,,,,,,,,,,,,,,,,,,,,,,,,,,,,,,,,,,,,,,,,,,,,,,,,,,,,,,,,,,,,,,
,,,,,,,,,,1568135,2020-10-23_17h47.27.229,swahili,2020.2.4,MacIntel,60,,,,,,,,,,0.453651259,-0.011458333,1,0,0,0.531955,test_pile,3,0,3,0,1,PARROT - KASUKU,,,,,,,,,,,,,,,,,,,,,,,,,,,,,,,,,,,,,,,,,,,,,,,,,,,,,,,,,,,,,,,,,,,,,,,,,,,,,,,,
,,,,,,,,,,1568135,2020-10-23_17h47.27.229,swahili,2020.2.4,MacIntel,60,,,,,,,,,,-0.186121962,-0.101927083,1,0,0,0.44915,unsorted_card,4,0,4,0,1,,,,,,,,,,,,,,,,,,,,,,,,,,,,,,,,,,,,,,,,,,,,,,,,,,,,,,,,,,,,,,,,,,,,,,,,,,,,,,,,,
,,,,,,,,,,1568135,2020-10-23_17h47.27.229,swahili,2020.2.4,MacIntel,60,,,,,,,,,,0.421158854,-0.039210069,1,0,0,0.46626,test_pile,5,0,5,0,1,BULL - FAHILI,,,,,,,,,,,,,,,,,,,,,,,,,,,,,,,,,,,,,,,,,,,,,,,,,,,,,,,,,,,,,,,,,,,,,,,,,,,,,,,,
,,,,,,,,,,1568135,2020-10-23_17h47.27.229,swahili,2020.2.4,MacIntel,60,,,,,,,,,,-0.216889106,-0.053984375,1,0,0,0.431105,unsorted_card,6,0,6,0,1,,,,,,,,,,,,,,,,,,,,,,,,,,,,,,,,,,,,,,,,,,,,,,,,,,,,,,,,,,,,,,,,,,,,,,,,,,,,,,,,,
,,,,,,,,,,1568135,2020-10-23_17h47.27.229,swahili,2020.2.4,MacIntel,60,,,,,,,,,,0.485519748,-0.007421875,1,0,0,0.50002,test_pile,7,0,7,0,1,PLATE - SAHANI,,,,,,,,,,,,,,,,,,,,,,,,,,,,,,,,,,,,,,,,,,,,,,,,,,,,,,,,,,,,,,,,,,,,,,,,,,,,,,,,
,,,,,,,,,,1568135,2020-10-23_17h47.27.229,swahili,2020.2.4,MacIntel,60,,,,,,,,,,-0.316319444,-0.102586806,1,0,0,0.51582,unsorted_card,8,0,8,0,1,,,,,,,,,,,,,,,,,,,,,,,,,,,,,,,,,,,,,,,,,,,,,,,,,,,,,,,,,,,,,,,,,,,,,,,,,,,,,,,,,
,,,,,,,,,,1568135,2020-10-23_17h47.27.229,swahili,2020.2.4,MacIntel,60,,,,,,,,,,0.430029297,0.006050347,1,0,0,1.482045,test_pile,9,0,9,0,1,YEAST - HAMIRA,,,,,,,,,,,,,,,,,,,,,,,,,,,,,,,,,,,,,,,,,,,,,,,,,,,,,,,,,,,,,,,,,,,,,,,,,,,,,,,,
,,,,,,,,,,1568135,2020-10-23_17h47.27.229,swahili,2020.2.4,MacIntel,60,,,,,,,,,,-0.192708333,0.017144097,1,0,0,0.68242,unsorted_card,10,0,10,0,1,,,,,,,,,,,,,,,,,,,,,,,,,,,,,,,,,,,,,,,,,,,,,,,,,,,,,,,,,,,,,,,,,,,,,,,,,,,,,,,,,
,,,,,,,,,,1568135,2020-10-23_17h47.27.229,swahili,2020.2.4,MacIntel,60,,,,,,,,,,0.422167969,0.006501736,1,0,0,1.232425,test_pile,11,0,11,0,1,BLAME - LAWAMA,,,,,,,,,,,,,,,,,,,,,,,,,,,,,,,,,,,,,,,,,,,,,,,,,,,,,,,,,,,,,,,,,,,,,,,,,,,,,,,,
,,,,,,,,,,1568135,2020-10-23_17h47.27.229,swahili,2020.2.4,MacIntel,60,,,,,,,,,,-0.15475803,-0.056371528,1,0,0,0.833125,unsorted_card,12,0,12,0,1,,,,,,,,,,,,,,,,,,,,,,,,,,,,,,,,,,,,,,,,,,,,,,,,,,,,,,,,,,,,,,,,,,,,,,,,,,,,,,,,,
,,,,,,,,,,1568135,2020-10-23_17h47.27.229,swahili,2020.2.4,MacIntel,60,,,,,,,,,,0.426812066,0.006770833,1,0,0,1.014175,test_pile,13,0,13,0,1,OATH - YAMINI,,,,,,,,,,,,,,,,,,,,,,,,,,,,,,,,,,,,,,,,,,,,,,,,,,,,,,,,,,,,,,,,,,,,,,,,,,,,,,,,
,,,,,,,,,,1568135,2020-10-23_17h47.27.229,swahili,2020.2.4,MacIntel,60,,,,,,,,,,-0.245502387,0.019079861,1,0,0,0.54939,unsorted_card,14,0,14,0,1,,,,,,,,,,,,,,,,,,,,,,,,,,,,,,,,,,,,,,,,,,,,,,,,,,,,,,,,,,,,,,,,,,,,,,,,,,,,,,,,,
,,,,,,,,,,1568135,2020-10-23_17h47.27.229,swahili,2020.2.4,MacIntel,60,,,,,,,,,,0.288406033,-0.000885417,1,0,0,0.915165,test_pile,15,0,15,0,1,CORN - NAFAKA,,,,,,,,,,,,,,,,,,,,,,,,,,,,,,,,,,,,,,,,,,,,,,,,,,,,,,,,,,,,,,,,,,,,,,,,,,,,,,,,
,,,,,,,,,,1568135,2020-10-23_17h47.27.229,swahili,2020.2.4,MacIntel,60,,,,,,,,,,-0.20539822,-0.028107639,1,0,0,0.847945,unsorted_card,16,0,16,0,1,,,,,,,,,,,,,,,,,,,,,,,,,,,,,,,,,,,,,,,,,,,,,,,,,,,,,,,,,,,,,,,,,,,,,,,,,,,,,,,,,
,,,,,,,,,,1568135,2020-10-23_17h47.27.229,swahili,2020.2.4,MacIntel,60,,,,,,,,,,0.351741536,0.013967014,1,0,0,1.316445,test_pile,17,0,17,0,1,POEM - UTENZI,,,,,,,,,,,,,,,,,,,,,,,,,,,,,,,,,,,,,,,,,,,,,,,,,,,,,,,,,,,,,,,,,,,,,,,,,,,,,,,,
,,,,,,,,,,1568135,2020-10-23_17h47.27.229,swahili,2020.2.4,MacIntel,60,,,,,,,,,,-0.181277127,0.006987847,1,0,0,0.665455,unsorted_card,18,0,18,0,1,,,,,,,,,,,,,,,,,,,,,,,,,,,,,,,,,,,,,,,,,,,,,,,,,,,,,,,,,,,,,,,,,,,,,,,,,,,,,,,,,
,,,,,,,,,,1568135,2020-10-23_17h47.27.229,swahili,2020.2.4,MacIntel,60,,,,,,,,,,0.425906033,-0.043654514,1,0,0,2.46585,test_pile,19,0,19,0,1,TAILOR - MSHONI,,,,,,,,,,,,,,,,,,,,,,,,,,,,,,,,,,,,,,,,,,,,,,,,,,,,,,,,,,,,,,,,,,,,,,,,,,,,,,,,
,,,,,,,,,,1568135,2020-10-23_17h47.27.229,swahili,2020.2.4,MacIntel,60,,,,,,,,,,-0.213481988,-0.085451389,1,0,0,0.66484,unsorted_card,20,0,20,0,1,,,,,,,,,,,,,,,,,,,,,,,,,,,,,,,,,,,,,,,,,,,,,,,,,,,,,,,,,,,,,,,,,,,,,,,,,,,,,,,,,
,,,,,,,,,,1568135,2020-10-23_17h47.27.229,swahili,2020.2.4,MacIntel,60,,,,,,,,,,0.405289714,-0.023376736,1,0,0,1.19912,test_pile,21,0,21,0,1,CHEESE - JIBINI,,,,,,,,,,,,,,,,,,,,,,,,,,,,,,,,,,,,,,,,,,,,,,,,,,,,,,,,,,,,,,,,,,,,,,,,,,,,,,,,
,,,,,,,,,,1568135,2020-10-23_17h47.27.229,swahili,2020.2.4,MacIntel,60,,,,,,,,,,-0.349479167,-0.079088542,1,0,0,0.64857,unsorted_card,22,0,22,0,1,,,,,,,,,,,,,,,,,,,,,,,,,,,,,,,,,,,,,,,,,,,,,,,,,,,,,,,,,,,,,,,,,,,,,,,,,,,,,,,,,
,,,,,,,,,,1568135,2020-10-23_17h47.27.229,swahili,2020.2.4,MacIntel,60,,,,,,,,,,0.443543837,-0.042907986,1,0,0,2.36663,test_pile,23,0,23,0,1,GRAPES - ZABIBU,,,,,,,,,,,,,,,,,,,,,,,,,,,,,,,,,,,,,,,,,,,,,,,,,,,,,,,,,,,,,,,,,,,,,,,,,,,,,,,,
,,,,,,,,,,1568135,2020-10-23_17h47.27.229,swahili,2020.2.4,MacIntel,60,,,,,,,,,,-0.33031684,-0.016501736,1,0,0,0.698175,unsorted_card,24,0,24,0,1,,,,,,,,,,,,,,,,,,,,,,,,,,,,,,,,,,,,,,,,,,,,,,,,,,,,,,,,,,,,,,,,,,,,,,,,,,,,,,,,,
,,,,,,,,,,1568135,2020-10-23_17h47.27.229,swahili,2020.2.4,MacIntel,60,,,,,,,,,,0.394547526,-0.014140625,1,0,0,1.54961,test_pile,25,0,25,0,1,GRAVE - KABURI,,,,,,,,,,,,,,,,,,,,,,,,,,,,,,,,,,,,,,,,,,,,,,,,,,,,,,,,,,,,,,,,,,,,,,,,,,,,,,,,
,,,,,,,,,,1568135,2020-10-23_17h47.27.229,swahili,2020.2.4,MacIntel,60,,,,,,,,,,-0.267377387,-0.026015625,1,0,0,0.93143,unsorted_card,26,0,26,0,1,,,,,,,,,,,,,,,,,,,,,,,,,,,,,,,,,,,,,,,,,,,,,,,,,,,,,,,,,,,,,,,,,,,,,,,,,,,,,,,,,
,,,,,,,,,,1568135,2020-10-23_17h47.27.229,swahili,2020.2.4,MacIntel,60,,,,,,,,,,0.428309462,-0.025416667,1,0,0,1.648275,test_pile,27,0,27,0,1,MANURE - SAMADI,,,,,,,,,,,,,,,,,,,,,,,,,,,,,,,,,,,,,,,,,,,,,,,,,,,,,,,,,,,,,,,,,,,,,,,,,,,,,,,,
,,,,,,,,,,1568135,2020-10-23_17h47.27.229,swahili,2020.2.4,MacIntel,60,,,,,,,,,,-0.231325955,-0.028671875,1,0,0,0.55016,unsorted_card,28,0,28,0,1,,,,,,,,,,,,,,,,,,,,,,,,,,,,,,,,,,,,,,,,,,,,,,,,,,,,,,,,,,,,,,,,,,,,,,,,,,,,,,,,,
,,,,,,,,,,1568135,2020-10-23_17h47.27.229,swahili,2020.2.4,MacIntel,60,,,,,,,,,,0.384418403,-0.031128472,1,0,0,1.148805,test_pile,29,0,29,0,1,AGENT - WAKILI,,,,,,,,,,,,,,,,,,,,,,,,,,,,,,,,,,,,,,,,,,,,,,,,,,,,,,,,,,,,,,,,,,,,,,,,,,,,,,,,
,,,,,,,,,,1568135,2020-10-23_17h47.27.229,swahili,2020.2.4,MacIntel,60,,,,,,,,,,-0.199842665,-0.032829861,1,0,0,0.96564,unsorted_card,30,0,30,0,1,,,,,,,,,,,,,,,,,,,,,,,,,,,,,,,,,,,,,,,,,,,,,,,,,,,,,,,,,,,,,,,,,,,,,,,,,,,,,,,,,
,,,,,,,,,,1568135,2020-10-23_17h47.27.229,swahili,2020.2.4,MacIntel,60,,,,,,,,,,0.337912326,-0.022673611,1,0,0,1.881735,test_pile,31,0,31,0,1,BRIBE - RUSHWA,,,,,,,,,,,,,,,,,,,,,,,,,,,,,,,,,,,,,,,,,,,,,,,,,,,,,,,,,,,,,,,,,,,,,,,,,,,,,,,,
,,,,,,,,,,1568135,2020-10-23_17h47.27.229,swahili,2020.2.4,MacIntel,60,,,,,,,,,,-0.185123698,-0.023828125,1,0,0,0.799195,unsorted_card,32,0,32,0,1,,,,,,,,,,,,,,,,,,,,,,,,,,,,,,,,,,,,,,,,,,,,,,,,,,,,,,,,,,,,,,,,,,,,,,,,,,,,,,,,,
,,,,,,,,,,1568135,2020-10-23_17h47.27.229,swahili,2020.2.4,MacIntel,60,,,,,,,,,,0.400607639,-0.026666667,1,0,0,2.68124,test_pile,33,0,33,0,1,ORPHAN - YATIMA,,,,,,,,,,,,,,,,,,,,,,,,,,,,,,,,,,,,,,,,,,,,,,,,,,,,,,,,,,,,,,,,,,,,,,,,,,,,,,,,
,,,,,,,,,,1568135,2020-10-23_17h47.27.229,swahili,2020.2.4,MacIntel,60,,,,,,,,,,-0.314621311,-0.037838542,1,0,0,0.59953,unsorted_card,34,0,34,0,1,,,,,,,,,,,,,,,,,,,,,,,,,,,,,,,,,,,,,,,,,,,,,,,,,,,,,,,,,,,,,,,,,,,,,,,,,,,,,,,,,
,,,,,,,,,,1568135,2020-10-23_17h47.27.229,swahili,2020.2.4,MacIntel,60,,,,,,,,,,0.433072917,-0.049019097,1,0,0,1.648205,test_pile,35,0,35,0,1,DIVORCE - TALAKA,,,,,,,,,,,,,,,,,,,,,,,,,,,,,,,,,,,,,,,,,,,,,,,,,,,,,,,,,,,,,,,,,,,,,,,,,,,,,,,,
,,,,,,,,,,1568135,2020-10-23_17h47.27.229,swahili,2020.2.4,MacIntel,60,,,,,,,,,,-0.218109809,-0.031171875,1,0,0,0.86569,unsorted_card,36,0,36,0,1,,,,,,,,,,,,,,,,,,,,,,,,,,,,,,,,,,,,,,,,,,,,,,,,,,,,,,,,,,,,,,,,,,,,,,,,,,,,,,,,,
,,,,,,,,,,1568135,2020-10-23_17h47.27.229,swahili,2020.2.4,MacIntel,60,,,,,,,,,,0.525217014,-0.090095486,1,0,0,1.432115,test_pile,37,0,37,0,1,BOAT - MASHUA,,,,,,,,,,,,,,,,,,,,,,,,,,,,,,,,,,,,,,,,,,,,,,,,,,,,,,,,,,,,,,,,,,,,,,,,,,,,,,,,
,,,,,,,,,,1568135,2020-10-23_17h47.27.229,swahili,2020.2.4,MacIntel,60,,,,,,,,,,-0.299788411,-0.04484375,1,0,0,0.715335,unsorted_card,38,0,38,0,1,,,,,,,,,,,,,,,,,,,,,,,,,,,,,,,,,,,,,,,,,,,,,,,,,,,,,,,,,,,,,,,,,,,,,,,,,,,,,,,,,
,,,,,,,,,,1568135,2020-10-23_17h47.27.229,swahili,2020.2.4,MacIntel,60,,,,,,,,,,0.38008355,-0.063619792,1,0,0,2.11532,test_pile,39,0,39,0,1,TREASURE - DAFINA,,,,,,,,,,,,,,,,,,,,,,,,,,,,,,,,,,,,,,,,,,,,,,,,,,,,,,,,,,,,,,,,,,,,,,,,,,,,,,,,
,,,,,,,,,,1568135,2020-10-23_17h47.27.229,swahili,2020.2.4,MacIntel,60,,,,,,,,,,,,,,,,,,,,,,,,,,,,,,,,,,0,0,0,0,1,,,,,,,,,,,,,,,,,,,,,,,,,,,,,,,,,,,,,,,,,,,,,,,,,,,,,,,,,,,,,,,,
,,,,,,,,,,1568135,2020-10-23_17h47.27.229,swahili,2020.2.4,MacIntel,60,,,,,,,,,,,,,,,,,,,,,,,,,,,,,,,,,,,,,,,return,,,,,,5.364945,3.647475,0.307128906,-0.058038194,1,0,0,0.949105,yes,BRIBE,RUSHWA,incorrect,0,0,0,0,1,,,,,,,,,,,,,,,,,,,,,,,,,,,,,,,,,,,,,,,,,
,,,,,,,,,,1568135,2020-10-23_17h47.27.229,swahili,2020.2.4,MacIntel,60,,,,,,,,,,,,,,,,,,,,,,,,,,,,,,,,,,,,,,,,,,,,,,3.59882,0.317697483,0.005980903,1,0,0,0.627655,yes,TREASURE,BTAKA,incorrect,1,0,1,0,1,,,,,,,,,,,,,,,,,,,,,,,,,,,,,,,,,,,,,,,,,
,,,,,,,,,,1568135,2020-10-23_17h47.27.229,swahili,2020.2.4,MacIntel,60,,,,,,,,,,,,,,,,,,,,,,,,,,,,,,,,,,,,,,,,,,,,,,4.29792,0.317697483,0.005980903,1,0,0,0.565265,yes,BULL,FILIJI,incorrect,2,0,2,0,1,,,,,,,,,,,,,,,,,,,,,,,,,,,,,,,,,,,,,,,,,
,,,,,,,,,,1568135,2020-10-23_17h47.27.229,swahili,2020.2.4,MacIntel,60,,,,,,,,,,,,,,,,,,,,,,,,,,,,,,,,,,,,,,,,,,,,,,6.48092,0.226774089,0.011892361,1,0,0,0.716175,yes,BLAME,OSUA,incorrect,3,0,3,0,1,,,,,,,,,,,,,,,,,,,,,,,,,,,,,,,,,,,,,,,,,
,,,,,,,,,,1568135,2020-10-23_17h47.27.229,swahili,2020.2.4,MacIntel,60,,,,,,,,,,,,,,,,,,,,,,,,,,,,,,,,,,,,,,,,,,,,,,3.3663,0.302376302,-0.029392361,1,0,0,0.88189,yes,GRAPES,ZUBIBU,incorrect,4,0,4,0,1,,,,,,,,,,,,,,,,,,,,,,,,,,,,,,,,,,,,,,,,,
,,,,,,,,,,1568135,2020-10-23_17h47.27.229,swahili,2020.2.4,MacIntel,60,,,,,,,,,,,,,,,,,,,,,,,,,,,,,,,,,,,,,,,,,,,,,,5.53283,0.311583116,-0.039644097,1,0,0,0.582345,yes,OATH,YAME,incorrect,5,0,5,0,1,,,,,,,,,,,,,,,,,,,,,,,,,,,,,,,,,,,,,,,,,
,,,,,,,,,,1568135,2020-10-23_17h47.27.229,swahili,2020.2.4,MacIntel,60,,,,,,,,,,,,,,,,,,,,,,,,,,,,,,,,,,,,,,,,,,,,,,3.713835,0.311583116,-0.039644097,1,0,0,0.58155,yes,POEM,UTENZI,incorrect,6,0,6,0,1,,,,,,,,,,,,,,,,,,,,,,,,,,,,,,,,,,,,,,,,,
,,,,,,,,,,1568135,2020-10-23_17h47.27.229,swahili,2020.2.4,MacIntel,60,,,,,,,,,,,,,,,,,,,,,,,,,,,,,,,,,,,,,,,,,,,,,,3.698215,0.311583116,-0.039644097,1,0,0,0.498585,yes,CORN,KALAKA,incorrect,7,0,7,0,1,,,,,,,,,,,,,,,,,,,,,,,,,,,,,,,,,,,,,,,,,
,,,,,,,,,,1568135,2020-10-23_17h47.27.229,swahili,2020.2.4,MacIntel,60,,,,,,,,,,,,,,,,,,,,,,,,,,,,,,,,,,,,,,,,,,,,,,11.69693,0.311583116,-0.039644097,1,0,0,0.500095,yes,AGENT,J,incorrect,8,0,8,0,1,,,,,,,,,,,,,,,,,,,,,,,,,,,,,,,,,,,,,,,,,
,,,,,,,,,,1568135,2020-10-23_17h47.27.229,swahili,2020.2.4,MacIntel,60,,,,,,,,,,,,,,,,,,,,,,,,,,,,,,,,,,,,,,,,,,,,,,3.831105,0.311583116,-0.039644097,1,0,0,0.466555,yes,BOAT,OSHUA,incorrect,9,0,9,0,1,,,,,,,,,,,,,,,,,,,,,,,,,,,,,,,,,,,,,,,,,
,,,,,,,,,,1568135,2020-10-23_17h47.27.229,swahili,2020.2.4,MacIntel,60,,,,,,,,,,,,,,,,,,,,,,,,,,,,,,,,,,,,,,,,,,,,,,2.39752,0.311583116,-0.045416667,1,0,0,0.50092,yes,PARROT,B,incorrect,10,0,10,0,1,,,,,,,,,,,,,,,,,,,,,,,,,,,,,,,,,,,,,,,,,
,,,,,,,,,,1568135,2020-10-23_17h47.27.229,swahili,2020.2.4,MacIntel,60,,,,,,,,,,,,,,,,,,,,,,,,,,,,,,,,,,,,,,,,,,,,,,3.04781,0.312543403,-0.045416667,1,0,0,1.600285,yes,CHEESE,JIBINI,incorrect,11,0,11,0,1,,,,,,,,,,,,,,,,,,,,,,,,,,,,,,,,,,,,,,,,,
,,,,,,,,,,1568135,2020-10-23_17h47.27.229,swahili,2020.2.4,MacIntel,60,,,,,,,,,,,,,,,,,,,,,,,,,,,,,,,,,,,,,,,,,,,,,,2.977695,0.313812934,-0.037109375,1,0,0,1.117045,yes,YEAST,RES,incorrect,12,0,12,0,1,,,,,,,,,,,,,,,,,,,,,,,,,,,,,,,,,,,,,,,,,
,,,,,,,,,,1568135,2020-10-23_17h47.27.229,swahili,2020.2.4,MacIntel,60,,,,,,,,,,,,,,,,,,,,,,,,,,,,,,,,,,,,,,,,,,,,,,4.281515,0.314567057,-0.034730903,1,0,0,1.09842,yes,ORPHAN,YATIMA,incorrect,13,0,13,0,1,,,,,,,,,,,,,,,,,,,,,,,,,,,,,,,,,,,,,,,,,
,,,,,,,,,,1568135,2020-10-23_17h47.27.229,swahili,2020.2.4,MacIntel,60,,,,,,,,,,,,,,,,,,,,,,,,,,,,,,,,,,,,,,,,,,,,,,5.43069,0.341026476,-0.039340278,1,0,0,1.25079,yes,DIVORCE,TALAKA,incorrect,14,0,14,0,1,,,,,,,,,,,,,,,,,,,,,,,,,,,,,,,,,,,,,,,,,
,,,,,,,,,,1568135,2020-10-23_17h47.27.229,swahili,2020.2.4,MacIntel,60,,,,,,,,,,,,,,,,,,,,,,,,,,,,,,,,,,,,,,,,,,,,,,2.96531,0.296153429,-0.106519097,1,0,0,1.32922,yes,GRAVE,KABURA,incorrect,15,0,15,0,1,,,,,,,,,,,,,,,,,,,,,,,,,,,,,,,,,,,,,,,,,
,,,,,,,,,,1568135,2020-10-23_17h47.27.229,swahili,2020.2.4,MacIntel,60,,,,,,,,,,,,,,,,,,,,,,,,,,,,,,,,,,,,,,,,,,,,,,9.21525,0.29570855,-0.145425347,1,0,0,0.6828,yes,MANURE,JU,incorrect,16,0,16,0,1,,,,,,,,,,,,,,,,,,,,,,,,,,,,,,,,,,,,,,,,,
,,,,,,,,,,1568135,2020-10-23_17h47.27.229,swahili,2020.2.4,MacIntel,60,,,,,,,,,,,,,,,,,,,,,,,,,,,,,,,,,,,,,,,,,,,,,,5.149245,0.318359375,-0.1925,1,0,0,0.58317,yes,TAILOR,OSH,incorrect,17,0,17,0,1,,,,,,,,,,,,,,,,,,,,,,,,,,,,,,,,,,,,,,,,,
,,,,,,,,,,1568135,2020-10-23_17h47.27.229,swahili,2020.2.4,MacIntel,60,,,,,,,,,,,,,,,,,,,,,,,,,,,,,,,,,,,,,,,,,,,,,,2.731565,0.296131727,-0.140625,1,0,0,0.96572,yes,MERCHANT,ING,incorrect,18,0,18,0,1,,,,,,,,,,,,,,,,,,,,,,,,,,,,,,,,,,,,,,,,,
,,,,,,,,,,1568135,2020-10-23_17h47.27.229,swahili,2020.2.4,MacIntel,60,,,,,,,,,,,,,,,,,,,,,,,,,,,,,,,,,,,,,,,,,,,,,,4.463895,0.305523003,-0.143289931,1,0,0,0.516535,yes,PLATE,SAHIKA,incorrect,19,0,19,0,1,,,,,,,,,,,,,,,,,,,,,,,,,,,,,,,,,,,,,,,,,
,,,,,,,,,,1568135,2020-10-23_17h47.27.229,swahili,2020.2.4,MacIntel,60,,,,,,,,,,,,,,,,,,,,,,,,,,,,,,,,,,,,,,,,0,0,0,0,1,,,,,,,,,,,,,,,,,,,,,,,,,,,,,,,,,,,,,,,,,,,,,,,,,,,,,,,,,,
,,,,,,,,,,1568135,2020-10-23_17h47.27.229,swahili,2020.2.4,MacIntel,60,,,,,,,,,,,,,,,,,,,,,,,,,,,,,,,,,,,,,,,,1,0,1,0,1,,,,,,,,,,,,,,,,,,,,,,,,,,,,,,,,,,,,,,,,,,,,,,,,,,,,,,,,,,
,,,,,,,,,,1568135,2020-10-23_17h47.27.229,swahili,2020.2.4,MacIntel,60,,,,,,,,,,,,,,,,,,,,,,,,,,,,,,,,,,,,,,,,,,,,,,,,,,,,,,,,,,,,,,1,0,1,0,1,,,,,,,,,,,,,,,,,,,,,,,,,,,,,,,,,,,,
,,,,,,,,,,1568135,2020-10-23_17h47.27.229,swahili,2020.2.4,MacIntel,60,,,,,,,,,,-0.28296441,6.07639E-05,1,0,0,1.733245,unsorted_card,0,0,0,0,1,,,,,,,,,,,,,,,,,,,,,,,,,,,,,,,,,,,,,,,,,,,,,,,,,,,,,,,,,,,,,,,,,,,,,,,,,,,,,,,,,
,,,,,,,,,,1568135,2020-10-23_17h47.27.229,swahili,2020.2.4,MacIntel,60,,,,,,,,,,0.437440321,0.017447917,1,0,0,1.747285,test_pile,1,0,1,0,1,MERCHANT - TAJIRI,,,,,,,,,,,,,,,,,,,,,,,,,,,,,,,,,,,,,,,,,,,,,,,,,,,,,,,,,,,,,,,,,,,,,,,,,,,,,,,,
,,,,,,,,,,1568135,2020-10-23_17h47.27.229,swahili,2020.2.4,MacIntel,60,,,,,,,,,,-0.19382053,-0.013359375,1,0,0,1.399845,unsorted_card,2,0,2,0,1,,,,,,,,,,,,,,,,,,,,,,,,,,,,,,,,,,,,,,,,,,,,,,,,,,,,,,,,,,,,,,,,,,,,,,,,,,,,,,,,,
,,,,,,,,,,1568135,2020-10-23_17h47.27.229,swahili,2020.2.4,MacIntel,60,,,,,,,,,,0.450146484,-0.039548611,1,0,0,1.43267,test_pile,3,0,3,0,1,PARROT - KASUKU,,,,,,,,,,,,,,,,,,,,,,,,,,,,,,,,,,,,,,,,,,,,,,,,,,,,,,,,,,,,,,,,,,,,,,,,,,,,,,,,
,,,,,,,,,,1568135,2020-10-23_17h47.27.229,swahili,2020.2.4,MacIntel,60,,,,,,,,,,-0.233317057,-0.046267361,1,0,0,0.731845,unsorted_card,4,0,4,0,1,,,,,,,,,,,,,,,,,,,,,,,,,,,,,,,,,,,,,,,,,,,,,,,,,,,,,,,,,,,,,,,,,,,,,,,,,,,,,,,,,
,,,,,,,,,,1568135,2020-10-23_17h47.27.229,swahili,2020.2.4,MacIntel,60,,,,,,,,,,0.408626302,-0.006579861,1,0,0,1.416575,test_pile,5,0,5,0,1,BULL - FAHILI,,,,,,,,,,,,,,,,,,,,,,,,,,,,,,,,,,,,,,,,,,,,,,,,,,,,,,,,,,,,,,,,,,,,,,,,,,,,,,,,
,,,,,,,,,,1568135,2020-10-23_17h47.27.229,swahili,2020.2.4,MacIntel,60,,,,,,,,,,-0.221082899,-0.000138889,1,0,0,0.69742,unsorted_card,6,0,6,0,1,,,,,,,,,,,,,,,,,,,,,,,,,,,,,,,,,,,,,,,,,,,,,,,,,,,,,,,,,,,,,,,,,,,,,,,,,,,,,,,,,
,,,,,,,,,,1568135,2020-10-23_17h47.27.229,swahili,2020.2.4,MacIntel,60,,,,,,,,,,0.345741102,-0.030607639,1,0,0,1.3666,test_pile,7,0,7,0,1,PLATE - SAHANI,,,,,,,,,,,,,,,,,,,,,,,,,,,,,,,,,,,,,,,,,,,,,,,,,,,,,,,,,,,,,,,,,,,,,,,,,,,,,,,,
,,,,,,,,,,1568135,2020-10-23_17h47.27.229,swahili,2020.2.4,MacIntel,60,,,,,,,,,,-0.251991102,-0.128368056,1,0,0,0.68203,unsorted_card,8,0,8,0,1,,,,,,,,,,,,,,,,,,,,,,,,,,,,,,,,,,,,,,,,,,,,,,,,,,,,,,,,,,,,,,,,,,,,,,,,,,,,,,,,,
,,,,,,,,,,1568135,2020-10-23_17h47.27.229,swahili,2020.2.4,MacIntel,60,,,,,,,,,,0.412413194,-0.118628472,1,0,0,1.33304,test_pile,9,0,9,0,1,YEAST - HAMIRA,,,,,,,,,,,,,,,,,,,,,,,,,,,,,,,,,,,,,,,,,,,,,,,,,,,,,,,,,,,,,,,,,,,,,,,,,,,,,,,,
,,,,,,,,,,1568135,2020-10-23_17h47.27.229,swahili,2020.2.4,MacIntel,60,,,,,,,,,,-0.375726997,-0.053489583,1,0,0,0.5985,unsorted_card,10,0,10,0,1,,,,,,,,,,,,,,,,,,,,,,,,,,,,,,,,,,,,,,,,,,,,,,,,,,,,,,,,,,,,,,,,,,,,,,,,,,,,,,,,,
,,,,,,,,,,1568135,2020-10-23_17h47.27.229,swahili,2020.2.4,MacIntel,60,,,,,,,,,,0.337022569,-0.043967014,1,0,0,1.86576,test_pile,11,0,11,0,1,BLAME - LAWAMA,,,,,,,,,,,,,,,,,,,,,,,,,,,,,,,,,,,,,,,,,,,,,,,,,,,,,,,,,,,,,,,,,,,,,,,,,,,,,,,,
,,,,,,,,,,1568135,2020-10-23_17h47.27.229,swahili,2020.2.4,MacIntel,60,,,,,,,,,,-0.201296658,-0.098237847,1,0,0,0.86401,unsorted_card,12,0,12,0,1,,,,,,,,,,,,,,,,,,,,,,,,,,,,,,,,,,,,,,,,,,,,,,,,,,,,,,,,,,,,,,,,,,,,,,,,,,,,,,,,,
,,,,,,,,,,1568135,2020-10-23_17h47.27.229,swahili,2020.2.4,MacIntel,60,,,,,,,,,,0.391644965,-0.008368056,1,0,0,2.04876,test_pile,13,0,13,0,1,OATH - YAMINI,,,,,,,,,,,,,,,,,,,,,,,,,,,,,,,,,,,,,,,,,,,,,,,,,,,,,,,,,,,,,,,,,,,,,,,,,,,,,,,,
,,,,,,,,,,1568135,2020-10-23_17h47.27.229,swahili,2020.2.4,MacIntel,60,,,,,,,,,,-0.236187066,0.029800347,1,0,0,0.83243,unsorted_card,14,0,14,0,1,,,,,,,,,,,,,,,,,,,,,,,,,,,,,,,,,,,,,,,,,,,,,,,,,,,,,,,,,,,,,,,,,,,,,,,,,,,,,,,,,
,,,,,,,,,,1568135,2020-10-23_17h47.27.229,swahili,2020.2.4,MacIntel,60,,,,,,,,,,0.362635634,0.002144097,1,0,0,1.58373,test_pile,15,0,15,0,1,CORN - NAFAKA,,,,,,,,,,,,,,,,,,,,,,,,,,,,,,,,,,,,,,,,,,,,,,,,,,,,,,,,,,,,,,,,,,,,,,,,,,,,,,,,
,,,,,,,,,,1568135,2020-10-23_17h47.27.229,swahili,2020.2.4,MacIntel,60,,,,,,,,,,-0.308935547,-0.020581597,1,0,0,0.681615,unsorted_card,16,0,16,0,1,,,,,,,,,,,,,,,,,,,,,,,,,,,,,,,,,,,,,,,,,,,,,,,,,,,,,,,,,,,,,,,,,,,,,,,,,,,,,,,,,
,,,,,,,,,,1568135,2020-10-23_17h47.27.229,swahili,2020.2.4,MacIntel,60,,,,,,,,,,0.364789497,0.009861111,1,0,0,1.59915,test_pile,17,0,17,0,1,POEM - UTENZI,,,,,,,,,,,,,,,,,,,,,,,,,,,,,,,,,,,,,,,,,,,,,,,,,,,,,,,,,,,,,,,,,,,,,,,,,,,,,,,,
,,,,,,,,,,1568135,2020-10-23_17h47.27.229,swahili,2020.2.4,MacIntel,60,,,,,,,,,,-0.248046875,0.008515625,1,0,0,0.865055,unsorted_card,18,0,18,0,1,,,,,,,,,,,,,,,,,,,,,,,,,,,,,,,,,,,,,,,,,,,,,,,,,,,,,,,,,,,,,,,,,,,,,,,,,,,,,,,,,
,,,,,,,,,,1568135,2020-10-23_17h47.27.229,swahili,2020.2.4,MacIntel,60,,,,,,,,,,0.353618707,0.003559028,1,0,0,2.4335,test_pile,19,0,19,0,1,TAILOR - MSHONI,,,,,,,,,,,,,,,,,,,,,,,,,,,,,,,,,,,,,,,,,,,,,,,,,,,,,,,,,,,,,,,,,,,,,,,,,,,,,,,,
,,,,,,,,,,1568135,2020-10-23_17h47.27.229,swahili,2020.2.4,MacIntel,60,,,,,,,,,,-0.262597656,-0.0378125,1,0,0,2.01543,unsorted_card,20,0,20,0,1,,,,,,,,,,,,,,,,,,,,,,,,,,,,,,,,,,,,,,,,,,,,,,,,,,,,,,,,,,,,,,,,,,,,,,,,,,,,,,,,,
,,,,,,,,,,1568135,2020-10-23_17h47.27.229,swahili,2020.2.4,MacIntel,60,,,,,,,,,,0.393771701,-0.116953125,1,0,0,2.415095,test_pile,21,0,21,0,1,CHEESE - JIBINI,,,,,,,,,,,,,,,,,,,,,,,,,,,,,,,,,,,,,,,,,,,,,,,,,,,,,,,,,,,,,,,,,,,,,,,,,,,,,,,,
,,,,,,,,,,1568135,2020-10-23_17h47.27.229,swahili,2020.2.4,MacIntel,60,,,,,,,,,,-0.159592014,-0.113541667,1,0,0,0.58152,unsorted_card,22,0,22,0,1,,,,,,,,,,,,,,,,,,,,,,,,,,,,,,,,,,,,,,,,,,,,,,,,,,,,,,,,,,,,,,,,,,,,,,,,,,,,,,,,,
,,,,,,,,,,1568135,2020-10-23_17h47.27.229,swahili,2020.2.4,MacIntel,60,,,,,,,,,,0.348708767,0.002213542,1,0,0,1.8835,test_pile,23,0,23,0,1,GRAPES - ZABIBU,,,,,,,,,,,,,,,,,,,,,,,,,,,,,,,,,,,,,,,,,,,,,,,,,,,,,,,,,,,,,,,,,,,,,,,,,,,,,,,,
,,,,,,,,,,1568135,2020-10-23_17h47.27.229,swahili,2020.2.4,MacIntel,60,,,,,,,,,,-0.146506076,0.065416667,1,0,0,0.74816,unsorted_card,24,0,24,0,1,,,,,,,,,,,,,,,,,,,,,,,,,,,,,,,,,,,,,,,,,,,,,,,,,,,,,,,,,,,,,,,,,,,,,,,,,,,,,,,,,
,,,,,,,,,,1568135,2020-10-23_17h47.27.229,swahili,2020.2.4,MacIntel,60,,,,,,,,,,0.334640842,-0.022916667,1,0,0,1.38233,test_pile,25,0,25,0,1,GRAVE - KABURI,,,,,,,,,,,,,,,,,,,,,,,,,,,,,,,,,,,,,,,,,,,,,,,,,,,,,,,,,,,,,,,,,,,,,,,,,,,,,,,,
,,,,,,,,,,1568135,2020-10-23_17h47.27.229,swahili,2020.2.4,MacIntel,60,,,,,,,,,,-0.240831163,0.028611111,1,0,0,1.0989,unsorted_card,26,0,26,0,1,,,,,,,,,,,,,,,,,,,,,,,,,,,,,,,,,,,,,,,,,,,,,,,,,,,,,,,,,,,,,,,,,,,,,,,,,,,,,,,,,
,,,,,,,,,,1568135,2020-10-23_17h47.27.229,swahili,2020.2.4,MacIntel,60,,,,,,,,,,0.375265842,-0.037517361,1,0,0,5.49883,test_pile,27,0,27,0,1,MANURE - SAMADI,,,,,,,,,,,,,,,,,,,,,,,,,,,,,,,,,,,,,,,,,,,,,,,,,,,,,,,,,,,,,,,,,,,,,,,,,,,,,,,,
,,,,,,,,,,1568135,2020-10-23_17h47.27.229,swahili,2020.2.4,MacIntel,60,,,,,,,,,,-0.192225477,-0.034010417,1,0,0,2.63208,unsorted_card,28,0,28,0,1,,,,,,,,,,,,,,,,,,,,,,,,,,,,,,,,,,,,,,,,,,,,,,,,,,,,,,,,,,,,,,,,,,,,,,,,,,,,,,,,,
,,,,,,,,,,1568135,2020-10-23_17h47.27.229,swahili,2020.2.4,MacIntel,60,,,,,,,,,,0.36906467,0.062638889,1,0,0,3.032025,test_pile,29,0,29,0,1,AGENT - WAKILI,,,,,,,,,,,,,,,,,,,,,,,,,,,,,,,,,,,,,,,,,,,,,,,,,,,,,,,,,,,,,,,,,,,,,,,,,,,,,,,,
,,,,,,,,,,1568135,2020-10-23_17h47.27.229,swahili,2020.2.4,MacIntel,60,,,,,,,,,,-0.273692491,0.07171875,1,0,0,1.01593,unsorted_card,30,0,30,0,1,,,,,,,,,,,,,,,,,,,,,,,,,,,,,,,,,,,,,,,,,,,,,,,,,,,,,,,,,,,,,,,,,,,,,,,,,,,,,,,,,
,,,,,,,,,,1568135,2020-10-23_17h47.27.229,swahili,2020.2.4,MacIntel,60,,,,,,,,,,0.372699653,-0.043081597,1,0,0,2.74889,test_pile,31,0,31,0,1,BRIBE - RUSHWA,,,,,,,,,,,,,,,,,,,,,,,,,,,,,,,,,,,,,,,,,,,,,,,,,,,,,,,,,,,,,,,,,,,,,,,,,,,,,,,,
,,,,,,,,,,1568135,2020-10-23_17h47.27.229,swahili,2020.2.4,MacIntel,60,,,,,,,,,,-0.33601888,-0.030911458,1,0,0,1.28256,unsorted_card,32,0,32,0,1,,,,,,,,,,,,,,,,,,,,,,,,,,,,,,,,,,,,,,,,,,,,,,,,,,,,,,,,,,,,,,,,,,,,,,,,,,,,,,,,,
,,,,,,,,,,1568135,2020-10-23_17h47.27.229,swahili,2020.2.4,MacIntel,60,,,,,,,,,,0.362407769,-0.011796875,1,0,0,1.31592,test_pile,33,0,33,0,1,ORPHAN - YATIMA,,,,,,,,,,,,,,,,,,,,,,,,,,,,,,,,,,,,,,,,,,,,,,,,,,,,,,,,,,,,,,,,,,,,,,,,,,,,,,,,
,,,,,,,,,,1568135,2020-10-23_17h47.27.229,swahili,2020.2.4,MacIntel,60,,,,,,,,,,-0.345225694,-0.043038194,1,0,0,0.61428,unsorted_card,34,0,34,0,1,,,,,,,,,,,,,,,,,,,,,,,,,,,,,,,,,,,,,,,,,,,,,,,,,,,,,,,,,,,,,,,,,,,,,,,,,,,,,,,,,
,,,,,,,,,,1568135,2020-10-23_17h47.27.229,swahili,2020.2.4,MacIntel,60,,,,,,,,,,0.407253689,-0.033810764,1,0,0,1.383175,test_pile,35,0,35,0,1,DIVORCE - TALAKA,,,,,,,,,,,,,,,,,,,,,,,,,,,,,,,,,,,,,,,,,,,,,,,,,,,,,,,,,,,,,,,,,,,,,,,,,,,,,,,,
,,,,,,,,,,1568135,2020-10-23_17h47.27.229,swahili,2020.2.4,MacIntel,60,,,,,,,,,,-0.207069227,-0.063081597,1,0,0,0.599035,unsorted_card,36,0,36,0,1,,,,,,,,,,,,,,,,,,,,,,,,,,,,,,,,,,,,,,,,,,,,,,,,,,,,,,,,,,,,,,,,,,,,,,,,,,,,,,,,,
,,,,,,,,,,1568135,2020-10-23_17h47.27.229,swahili,2020.2.4,MacIntel,60,,,,,,,,,,0.410281033,-0.038107639,1,0,0,1.51606,test_pile,37,0,37,0,1,BOAT - MASHUA,,,,,,,,,,,,,,,,,,,,,,,,,,,,,,,,,,,,,,,,,,,,,,,,,,,,,,,,,,,,,,,,,,,,,,,,,,,,,,,,
,,,,,,,,,,1568135,2020-10-23_17h47.27.229,swahili,2020.2.4,MacIntel,60,,,,,,,,,,-0.257644314,-0.046223958,1,0,0,0.66501,unsorted_card,38,0,38,0,1,,,,,,,,,,,,,,,,,,,,,,,,,,,,,,,,,,,,,,,,,,,,,,,,,,,,,,,,,,,,,,,,,,,,,,,,,,,,,,,,,
,,,,,,,,,,1568135,2020-10-23_17h47.27.229,swahili,2020.2.4,MacIntel,60,,,,,,,,,,0.41617296,0.020512153,1,0,0,1.26575,test_pile,39,0,39,0,1,TREASURE - DAFINA,,,,,,,,,,,,,,,,,,,,,,,,,,,,,,,,,,,,,,,,,,,,,,,,,,,,,,,,,,,,,,,,,,,,,,,,,,,,,,,,
,,,,,,,,,,1568135,2020-10-23_17h47.27.229,swahili,2020.2.4,MacIntel,60,,,,,,,,,,,,,,,,,,,,,,,,,,,,,,,,,,0,0,0,0,1,,,,,,,,,,,,,,,,,,,,,,,,,,,,,,,,,,,,,,,,,,,,,,,,,,,,,,,,,,,,,,,,
,,,,,,,,,,1568135,2020-10-23_17h47.27.229,swahili,2020.2.4,MacIntel,60,,,,,,,,,,,,,,,,,,,,,,,,,,,,,,,,,,,,,,,return,,,,,,3.052205,5.314095,0.317675781,0.014947917,1,0,0,0.449155,yes,MANURE,OHSIN,incorrect,0,0,0,0,1,,,,,,,,,,,,,,,,,,,,,,,,,,,,,,,,,,,,,,,,,
,,,,,,,,,,1568135,2020-10-23_17h47.27.229,swahili,2020.2.4,MacIntel,60,,,,,,,,,,,,,,,,,,,,,,,,,,,,,,,,,,,,,,,,,,,,,,3.731095,0.317675781,0.014947917,1,0,0,0.69925,yes,OATH,YAMINI,incorrect,1,0,1,0,1,,,,,,,,,,,,,,,,,,,,,,,,,,,,,,,,,,,,,,,,,
,,,,,,,,,,1568135,2020-10-23_17h47.27.229,swahili,2020.2.4,MacIntel,60,,,,,,,,,,,,,,,,,,,,,,,,,,,,,,,,,,,,,,,,,,,,,,2.998265,0.268033854,0.015998264,1,0,0,0.85088,yes,POEM,UTENZI,incorrect,2,0,2,0,1,,,,,,,,,,,,,,,,,,,,,,,,,,,,,,,,,,,,,,,,,
,,,,,,,,,,1568135,2020-10-23_17h47.27.229,swahili,2020.2.4,MacIntel,60,,,,,,,,,,,,,,,,,,,,,,,,,,,,,,,,,,,,,,,,,,,,,,5.747645,0.302218967,0.038038194,1,0,0,0.748915,yes,BRIBE,RUSHWA,incorrect,3,0,3,0,1,,,,,,,,,,,,,,,,,,,,,,,,,,,,,,,,,,,,,,,,,
,,,,,,,,,,1568135,2020-10-23_17h47.27.229,swahili,2020.2.4,MacIntel,60,,,,,,,,,,,,,,,,,,,,,,,,,,,,,,,,,,,,,,,,,,,,,,2.31707,0.298643663,-0.072317708,1,0,0,0.732395,yes,DIVORCE,TALAKA,incorrect,4,0,4,0,1,,,,,,,,,,,,,,,,,,,,,,,,,,,,,,,,,,,,,,,,,
,,,,,,,,,,1568135,2020-10-23_17h47.27.229,swahili,2020.2.4,MacIntel,60,,,,,,,,,,,,,,,,,,,,,,,,,,,,,,,,,,,,,,,,,,,,,,3.181575,0.291183811,-0.065164931,1,0,0,0.46593,yes,PLATE,SAHANI,incorrect,5,0,5,0,1,,,,,,,,,,,,,,,,,,,,,,,,,,,,,,,,,,,,,,,,,
,,,,,,,,,,1568135,2020-10-23_17h47.27.229,swahili,2020.2.4,MacIntel,60,,,,,,,,,,,,,,,,,,,,,,,,,,,,,,,,,,,,,,,,,,,,,,2.848855,0.291183811,-0.065164931,1,0,0,0.48361,yes,TREASURE,DAVITA,incorrect,6,0,6,0,1,,,,,,,,,,,,,,,,,,,,,,,,,,,,,,,,,,,,,,,,,
,,,,,,,,,,1568135,2020-10-23_17h47.27.229,swahili,2020.2.4,MacIntel,60,,,,,,,,,,,,,,,,,,,,,,,,,,,,,,,,,,,,,,,,,,,,,,4.15097,0.291183811,-0.051953125,1,0,0,0.63262,yes,BOAT,MSHUA,incorrect,7,0,7,0,1,,,,,,,,,,,,,,,,,,,,,,,,,,,,,,,,,,,,,,,,,
,,,,,,,,,,1568135,2020-10-23_17h47.27.229,swahili,2020.2.4,MacIntel,60,,,,,,,,,,,,,,,,,,,,,,,,,,,,,,,,,,,,,,,,,,,,,,3.914505,0.291183811,-0.051953125,1,0,0,0.49992,yes,BLAME,H,incorrect,8,0,8,0,1,,,,,,,,,,,,,,,,,,,,,,,,,,,,,,,,,,,,,,,,,
,,,,,,,,,,1568135,2020-10-23_17h47.27.229,swahili,2020.2.4,MacIntel,60,,,,,,,,,,,,,,,,,,,,,,,,,,,,,,,,,,,,,,,,,,,,,,3.796715,0.291183811,-0.051953125,1,0,0,0.45024,yes,MERCHANT,OSHUA,incorrect,9,0,9,0,1,,,,,,,,,,,,,,,,,,,,,,,,,,,,,,,,,,,,,,,,,
,,,,,,,,,,1568135,2020-10-23_17h47.27.229,swahili,2020.2.4,MacIntel,60,,,,,,,,,,,,,,,,,,,,,,,,,,,,,,,,,,,,,,,,,,,,,,4.13134,0.291183811,-0.051953125,1,0,0,0.783595,yes,GRAVE,KABURI,incorrect,10,0,10,0,1,,,,,,,,,,,,,,,,,,,,,,,,,,,,,,,,,,,,,,,,,
,,,,,,,,,,1568135,2020-10-23_17h47.27.229,swahili,2020.2.4,MacIntel,60,,,,,,,,,,,,,,,,,,,,,,,,,,,,,,,,,,,,,,,,,,,,,,3.331335,0.291183811,-0.051953125,1,0,0,0.46593,yes,PARROT,KAPAR,incorrect,11,0,11,0,1,,,,,,,,,,,,,,,,,,,,,,,,,,,,,,,,,,,,,,,,,
,,,,,,,,,,1568135,2020-10-23_17h47.27.229,swahili,2020.2.4,MacIntel,60,,,,,,,,,,,,,,,,,,,,,,,,,,,,,,,,,,,,,,,,,,,,,,3.0318,0.291183811,-0.051953125,1,0,0,0.665015,yes,ORPHAN,YATIMA,incorrect,12,0,12,0,1,,,,,,,,,,,,,,,,,,,,,,,,,,,,,,,,,,,,,,,,,
,,,,,,,,,,1568135,2020-10-23_17h47.27.229,swahili,2020.2.4,MacIntel,60,,,,,,,,,,,,,,,,,,,,,,,,,,,,,,,,,,,,,,,,,,,,,,4.266485,0.291183811,-0.051953125,1,0,0,0.966395,yes,GRAPES,ZUBIBU,incorrect,13,0,13,0,1,,,,,,,,,,,,,,,,,,,,,,,,,,,,,,,,,,,,,,,,,
,,,,,,,,,,1568135,2020-10-23_17h47.27.229,swahili,2020.2.4,MacIntel,60,,,,,,,,,,,,,,,,,,,,,,,,,,,,,,,,,,,,,,,,,,,,,,2.71355,0.291183811,-0.051953125,1,0,0,0.615575,yes,BULL,FAJIL,incorrect,14,0,14,0,1,,,,,,,,,,,,,,,,,,,,,,,,,,,,,,,,,,,,,,,,,
,,,,,,,,,,1568135,2020-10-23_17h47.27.229,swahili,2020.2.4,MacIntel,60,,,,,,,,,,,,,,,,,,,,,,,,,,,,,,,,,,,,,,,,,,,,,,4.431665,0.291183811,-0.051953125,1,0,0,0.96715,yes,CHEESE,JIBINI,incorrect,15,0,15,0,1,,,,,,,,,,,,,,,,,,,,,,,,,,,,,,,,,,,,,,,,,
,,,,,,,,,,1568135,2020-10-23_17h47.27.229,swahili,2020.2.4,MacIntel,60,,,,,,,,,,,,,,,,,,,,,,,,,,,,,,,,,,,,,,,,,,,,,,9.414995,0.291183811,-0.051953125,1,0,0,0.566385,yes,CORN,NAKAKA,incorrect,16,0,16,0,1,,,,,,,,,,,,,,,,,,,,,,,,,,,,,,,,,,,,,,,,,
,,,,,,,,,,1568135,2020-10-23_17h47.27.229,swahili,2020.2.4,MacIntel,60,,,,,,,,,,,,,,,,,,,,,,,,,,,,,,,,,,,,,,,,,,,,,,2.131445,0.291183811,-0.051953125,1,0,0,0.466345,yes,YEAST,O,incorrect,17,0,17,0,1,,,,,,,,,,,,,,,,,,,,,,,,,,,,,,,,,,,,,,,,,
,,,,,,,,,,1568135,2020-10-23_17h47.27.229,swahili,2020.2.4,MacIntel,60,,,,,,,,,,,,,,,,,,,,,,,,,,,,,,,,,,,,,,,,,,,,,,8.014415,0.290820313,-0.001770833,1,0,0,0.466765,yes,TAILOR,J,incorrect,18,0,18,0,1,,,,,,,,,,,,,,,,,,,,,,,,,,,,,,,,,,,,,,,,,
,,,,,,,,,,1568135,2020-10-23_17h47.27.229,swahili,2020.2.4,MacIntel,60,,,,,,,,,,,,,,,,,,,,,,,,,,,,,,,,,,,,,,,,,,,,,,2.14574,0.286664497,-0.004288194,1,0,0,0.766105,yes,AGENT,V,incorrect,19,0,19,0,1,,,,,,,,,,,,,,,,,,,,,,,,,,,,,,,,,,,,,,,,,
,,,,,,,,,,1568135,2020-10-23_17h47.27.229,swahili,2020.2.4,MacIntel,60,,,,,,,,,,,,,,,,,,,,,,,,,,,,,,,,,,,,,,,,0,0,0,0,1,,,,,,,,,,,,,,,,,,,,,,,,,,,,,,,,,,,,,,,,,,,,,,,,,,,,,,,,,,
,,,,,,,,,,1568135,2020-10-23_17h47.27.229,swahili,2020.2.4,MacIntel,60,,,,,,,,,,,,,,,,,,,,,,,,,,,,,,,,,,,,,,,,1,0,1,0,1,,,,,,,,,,,,,,,,,,,,,,,,,,,,,,,,,,,,,,,,,,,,,,,,,,,,,,,,,,
,,,,,,,,,,1568135,2020-10-23_17h47.27.229,swahili,2020.2.4,MacIntel,60,,,,,,,,,,,,,,,,,,,,,,,,,,,,,,,,,,,,,,,,,,,,,,,,,,,,,,,,,,,,,,2,0,2,0,1,,,,,,,,,,,,,,,,,,,,,,,,,,,,,,,,,,,,
,,,,,,,,,,1568135,2020-10-23_17h47.27.229,swahili,2020.2.4,MacIntel,60,,,,,,,,,,-0.23296441,-0.01515625,1,0,0,1.482515,unsorted_card,0,0,0,0,1,,,,,,,,,,,,,,,,,,,,,,,,,,,,,,,,,,,,,,,,,,,,,,,,,,,,,,,,,,,,,,,,,,,,,,,,,,,,,,,,,
,,,,,,,,,,1568135,2020-10-23_17h47.27.229,swahili,2020.2.4,MacIntel,60,,,,,,,,,,0.377631293,0.007907986,1,0,0,1.58215,test_pile,1,0,1,0,1,MERCHANT - TAJIRI,,,,,,,,,,,,,,,,,,,,,,,,,,,,,,,,,,,,,,,,,,,,,,,,,,,,,,,,,,,,,,,,,,,,,,,,,,,,,,,,
,,,,,,,,,,1568135,2020-10-23_17h47.27.229,swahili,2020.2.4,MacIntel,60,,,,,,,,,,-0.197330729,-0.076909722,1,0,0,1.83278,unsorted_card,2,0,2,0,1,,,,,,,,,,,,,,,,,,,,,,,,,,,,,,,,,,,,,,,,,,,,,,,,,,,,,,,,,,,,,,,,,,,,,,,,,,,,,,,,,
,,,,,,,,,,1568135,2020-10-23_17h47.27.229,swahili,2020.2.4,MacIntel,60,,,,,,,,,,0.43804796,-0.014392361,1,0,0,3.14935,test_pile,3,0,3,0,1,PARROT - KASUKU,,,,,,,,,,,,,,,,,,,,,,,,,,,,,,,,,,,,,,,,,,,,,,,,,,,,,,,,,,,,,,,,,,,,,,,,,,,,,,,,
,,,,,,,,,,1568135,2020-10-23_17h47.27.229,swahili,2020.2.4,MacIntel,60,,,,,,,,,,-0.215131293,-0.054991319,1,0,0,1.61402,unsorted_card,4,0,4,0,1,,,,,,,,,,,,,,,,,,,,,,,,,,,,,,,,,,,,,,,,,,,,,,,,,,,,,,,,,,,,,,,,,,,,,,,,,,,,,,,,,
,,,,,,,,,,1568135,2020-10-23_17h47.27.229,swahili,2020.2.4,MacIntel,60,,,,,,,,,,0.384868707,-0.052326389,1,0,0,4.66609,test_pile,5,0,5,0,1,BULL - FAHILI,,,,,,,,,,,,,,,,,,,,,,,,,,,,,,,,,,,,,,,,,,,,,,,,,,,,,,,,,,,,,,,,,,,,,,,,,,,,,,,,
,,,,,,,,,,1568135,2020-10-23_17h47.27.229,swahili,2020.2.4,MacIntel,60,,,,,,,,,,-0.214572483,-0.084262153,1,0,0,1.88227,unsorted_card,6,0,6,0,1,,,,,,,,,,,,,,,,,,,,,,,,,,,,,,,,,,,,,,,,,,,,,,,,,,,,,,,,,,,,,,,,,,,,,,,,,,,,,,,,,
,,,,,,,,,,1568135,2020-10-23_17h47.27.229,swahili,2020.2.4,MacIntel,60,,,,,,,,,,0.381928168,-0.076744792,1,0,0,1.28212,test_pile,7,0,7,0,1,PLATE - SAHANI,,,,,,,,,,,,,,,,,,,,,,,,,,,,,,,,,,,,,,,,,,,,,,,,,,,,,,,,,,,,,,,,,,,,,,,,,,,,,,,,
,,,,,,,,,,1568135,2020-10-23_17h47.27.229,swahili,2020.2.4,MacIntel,60,,,,,,,,,,-0.193565538,-0.076744792,1,0,0,0.531805,unsorted_card,8,0,8,0,1,,,,,,,,,,,,,,,,,,,,,,,,,,,,,,,,,,,,,,,,,,,,,,,,,,,,,,,,,,,,,,,,,,,,,,,,,,,,,,,,,
,,,,,,,,,,1568135,2020-10-23_17h47.27.229,swahili,2020.2.4,MacIntel,60,,,,,,,,,,0.415907118,-0.027708333,1,0,0,2.4158,test_pile,9,0,9,0,1,YEAST - HAMIRA,,,,,,,,,,,,,,,,,,,,,,,,,,,,,,,,,,,,,,,,,,,,,,,,,,,,,,,,,,,,,,,,,,,,,,,,,,,,,,,,
,,,,,,,,,,1568135,2020-10-23_17h47.27.229,swahili,2020.2.4,MacIntel,60,,,,,,,,,,-0.166059028,-0.030824653,1,0,0,0.5816,unsorted_card,10,0,10,0,1,,,,,,,,,,,,,,,,,,,,,,,,,,,,,,,,,,,,,,,,,,,,,,,,,,,,,,,,,,,,,,,,,,,,,,,,,,,,,,,,,
,,,,,,,,,,1568135,2020-10-23_17h47.27.229,swahili,2020.2.4,MacIntel,60,,,,,,,,,,0.397227648,0.029210069,1,0,0,1.249365,test_pile,11,0,11,0,1,BLAME - LAWAMA,,,,,,,,,,,,,,,,,,,,,,,,,,,,,,,,,,,,,,,,,,,,,,,,,,,,,,,,,,,,,,,,,,,,,,,,,,,,,,,,
,,,,,,,,,,1568135,2020-10-23_17h47.27.229,swahili,2020.2.4,MacIntel,60,,,,,,,,,,-0.177316623,-0.059236111,1,0,0,0.55029,unsorted_card,12,0,12,0,1,,,,,,,,,,,,,,,,,,,,,,,,,,,,,,,,,,,,,,,,,,,,,,,,,,,,,,,,,,,,,,,,,,,,,,,,,,,,,,,,,
,,,,,,,,,,1568135,2020-10-23_17h47.27.229,swahili,2020.2.4,MacIntel,60,,,,,,,,,,0.394200304,0.014756944,1,0,0,1.232705,test_pile,13,0,13,0,1,OATH - YAMINI,,,,,,,,,,,,,,,,,,,,,,,,,,,,,,,,,,,,,,,,,,,,,,,,,,,,,,,,,,,,,,,,,,,,,,,,,,,,,,,,
,,,,,,,,,,1568135,2020-10-23_17h47.27.229,swahili,2020.2.4,MacIntel,60,,,,,,,,,,-0.277951389,-0.024817708,1,0,0,0.564185,unsorted_card,14,0,14,0,1,,,,,,,,,,,,,,,,,,,,,,,,,,,,,,,,,,,,,,,,,,,,,,,,,,,,,,,,,,,,,,,,,,,,,,,,,,,,,,,,,
,,,,,,,,,,1568135,2020-10-23_17h47.27.229,swahili,2020.2.4,MacIntel,60,,,,,,,,,,0.377842882,0.056519097,1,0,0,1.39974,test_pile,15,0,15,0,1,CORN - NAFAKA,,,,,,,,,,,,,,,,,,,,,,,,,,,,,,,,,,,,,,,,,,,,,,,,,,,,,,,,,,,,,,,,,,,,,,,,,,,,,,,,
,,,,,,,,,,1568135,2020-10-23_17h47.27.229,swahili,2020.2.4,MacIntel,60,,,,,,,,,,-0.264279514,0.014079861,1,0,0,0.481405,unsorted_card,16,0,16,0,1,,,,,,,,,,,,,,,,,,,,,,,,,,,,,,,,,,,,,,,,,,,,,,,,,,,,,,,,,,,,,,,,,,,,,,,,,,,,,,,,,
,,,,,,,,,,1568135,2020-10-23_17h47.27.229,swahili,2020.2.4,MacIntel,60,,,,,,,,,,0.341102431,-0.040651042,1,0,0,1.21725,test_pile,17,0,17,0,1,POEM - UTENZI,,,,,,,,,,,,,,,,,,,,,,,,,,,,,,,,,,,,,,,,,,,,,,,,,,,,,,,,,,,,,,,,,,,,,,,,,,,,,,,,
,,,,,,,,,,1568135,2020-10-23_17h47.27.229,swahili,2020.2.4,MacIntel,60,,,,,,,,,,-0.177294922,-0.040651042,1,0,0,0.46438,unsorted_card,18,0,18,0,1,,,,,,,,,,,,,,,,,,,,,,,,,,,,,,,,,,,,,,,,,,,,,,,,,,,,,,,,,,,,,,,,,,,,,,,,,,,,,,,,,
,,,,,,,,,,1568135,2020-10-23_17h47.27.229,swahili,2020.2.4,MacIntel,60,,,,,,,,,,0.376703559,-0.036953125,1,0,0,8.13195,test_pile,19,0,19,0,1,TAILOR - MSHONI,,,,,,,,,,,,,,,,,,,,,,,,,,,,,,,,,,,,,,,,,,,,,,,,,,,,,,,,,,,,,,,,,,,,,,,,,,,,,,,,
,,,,,,,,,,1568135,2020-10-23_17h47.27.229,swahili,2020.2.4,MacIntel,60,,,,,,,,,,-0.194769965,-0.054774306,1,0,0,0.75029,unsorted_card,20,0,20,0,1,,,,,,,,,,,,,,,,,,,,,,,,,,,,,,,,,,,,,,,,,,,,,,,,,,,,,,,,,,,,,,,,,,,,,,,,,,,,,,,,,
,,,,,,,,,,1568135,2020-10-23_17h47.27.229,swahili,2020.2.4,MacIntel,60,,,,,,,,,,0.39554579,0.018559028,1,0,0,0.89748,test_pile,21,0,21,0,1,CHEESE - JIBINI,,,,,,,,,,,,,,,,,,,,,,,,,,,,,,,,,,,,,,,,,,,,,,,,,,,,,,,,,,,,,,,,,,,,,,,,,,,,,,,,
,,,,,,,,,,1568135,2020-10-23_17h47.27.229,swahili,2020.2.4,MacIntel,60,,,,,,,,,,-0.177685547,-0.045520833,1,0,0,0.44965,unsorted_card,22,0,22,0,1,,,,,,,,,,,,,,,,,,,,,,,,,,,,,,,,,,,,,,,,,,,,,,,,,,,,,,,,,,,,,,,,,,,,,,,,,,,,,,,,,
,,,,,,,,,,1568135,2020-10-23_17h47.27.229,swahili,2020.2.4,MacIntel,60,,,,,,,,,,0.338384332,-0.038359375,1,0,0,1.149035,test_pile,23,0,23,0,1,GRAPES - ZABIBU,,,,,,,,,,,,,,,,,,,,,,,,,,,,,,,,,,,,,,,,,,,,,,,,,,,,,,,,,,,,,,,,,,,,,,,,,,,,,,,,
,,,,,,,,,,1568135,2020-10-23_17h47.27.229,swahili,2020.2.4,MacIntel,60,,,,,,,,,,-0.237396918,-0.037925347,1,0,0,0.74844,unsorted_card,24,0,24,0,1,,,,,,,,,,,,,,,,,,,,,,,,,,,,,,,,,,,,,,,,,,,,,,,,,,,,,,,,,,,,,,,,,,,,,,,,,,,,,,,,,
,,,,,,,,,,1568135,2020-10-23_17h47.27.229,swahili,2020.2.4,MacIntel,60,,,,,,,,,,0.325103082,-0.008411458,1,0,0,1.23263,test_pile,25,0,25,0,1,GRAVE - KABURI,,,,,,,,,,,,,,,,,,,,,,,,,,,,,,,,,,,,,,,,,,,,,,,,,,,,,,,,,,,,,,,,,,,,,,,,,,,,,,,,
,,,,,,,,,,1568135,2020-10-23_17h47.27.229,swahili,2020.2.4,MacIntel,60,,,,,,,,,,-0.204063585,-0.008411458,1,0,0,0.498675,unsorted_card,26,0,26,0,1,,,,,,,,,,,,,,,,,,,,,,,,,,,,,,,,,,,,,,,,,,,,,,,,,,,,,,,,,,,,,,,,,,,,,,,,,,,,,,,,,
,,,,,,,,,,1568135,2020-10-23_17h47.27.229,swahili,2020.2.4,MacIntel,60,,,,,,,,,,0.389887153,-0.041918403,1,0,0,4.132815,test_pile,27,0,27,0,1,MANURE - SAMADI,,,,,,,,,,,,,,,,,,,,,,,,,,,,,,,,,,,,,,,,,,,,,,,,,,,,,,,,,,,,,,,,,,,,,,,,,,,,,,,,
,,,,,,,,,,1568135,2020-10-23_17h47.27.229,swahili,2020.2.4,MacIntel,60,,,,,,,,,,-0.121978082,-0.055963542,1,0,0,0.581825,unsorted_card,28,0,28,0,1,,,,,,,,,,,,,,,,,,,,,,,,,,,,,,,,,,,,,,,,,,,,,,,,,,,,,,,,,,,,,,,,,,,,,,,,,,,,,,,,,
,,,,,,,,,,1568135,2020-10-23_17h47.27.229,swahili,2020.2.4,MacIntel,60,,,,,,,,,,0.36281467,-0.052560764,1,0,0,3.664535,test_pile,29,0,29,0,1,AGENT - WAKILI,,,,,,,,,,,,,,,,,,,,,,,,,,,,,,,,,,,,,,,,,,,,,,,,,,,,,,,,,,,,,,,,,,,,,,,,,,,,,,,,
,,,,,,,,,,1568135,2020-10-23_17h47.27.229,swahili,2020.2.4,MacIntel,60,,,,,,,,,,-0.149245877,-0.094166667,1,0,0,1.08204,unsorted_card,30,0,30,0,1,,,,,,,,,,,,,,,,,,,,,,,,,,,,,,,,,,,,,,,,,,,,,,,,,,,,,,,,,,,,,,,,,,,,,,,,,,,,,,,,,
,,,,,,,,,,1568135,2020-10-23_17h47.27.229,swahili,2020.2.4,MacIntel,60,,,,,,,,,,0.46500651,-0.013272569,1,0,0,1.782515,test_pile,31,0,31,0,1,BRIBE - RUSHWA,,,,,,,,,,,,,,,,,,,,,,,,,,,,,,,,,,,,,,,,,,,,,,,,,,,,,,,,,,,,,,,,,,,,,,,,,,,,,,,,
,,,,,,,,,,1568135,2020-10-23_17h47.27.229,swahili,2020.2.4,MacIntel,60,,,,,,,,,,-0.237169054,-0.030512153,1,0,0,0.632925,unsorted_card,32,0,32,0,1,,,,,,,,,,,,,,,,,,,,,,,,,,,,,,,,,,,,,,,,,,,,,,,,,,,,,,,,,,,,,,,,,,,,,,,,,,,,,,,,,
,,,,,,,,,,1568135,2020-10-23_17h47.27.229,swahili,2020.2.4,MacIntel,60,,,,,,,,,,0.400092231,-0.045633681,1,0,0,1.84838,test_pile,33,0,33,0,1,ORPHAN - YATIMA,,,,,,,,,,,,,,,,,,,,,,,,,,,,,,,,,,,,,,,,,,,,,,,,,,,,,,,,,,,,,,,,,,,,,,,,,,,,,,,,
,,,,,,,,,,1568135,2020-10-23_17h47.27.229,swahili,2020.2.4,MacIntel,60,,,,,,,,,,-0.251573351,-0.040225694,1,0,0,0.61586,unsorted_card,34,0,34,0,1,,,,,,,,,,,,,,,,,,,,,,,,,,,,,,,,,,,,,,,,,,,,,,,,,,,,,,,,,,,,,,,,,,,,,,,,,,,,,,,,,
,,,,,,,,,,1568135,2020-10-23_17h47.27.229,swahili,2020.2.4,MacIntel,60,,,,,,,,,,0.379166667,-0.063888889,1,0,0,1.53282,test_pile,35,0,35,0,1,DIVORCE - TALAKA,,,,,,,,,,,,,,,,,,,,,,,,,,,,,,,,,,,,,,,,,,,,,,,,,,,,,,,,,,,,,,,,,,,,,,,,,,,,,,,,
,,,,,,,,,,1568135,2020-10-23_17h47.27.229,swahili,2020.2.4,MacIntel,60,,,,,,,,,,-0.268847656,0.023263889,1,0,0,0.600165,unsorted_card,36,0,36,0,1,,,,,,,,,,,,,,,,,,,,,,,,,,,,,,,,,,,,,,,,,,,,,,,,,,,,,,,,,,,,,,,,,,,,,,,,,,,,,,,,,
,,,,,,,,,,1568135,2020-10-23_17h47.27.229,swahili,2020.2.4,MacIntel,60,,,,,,,,,,0.360584852,-0.065069444,1,0,0,1.48241,test_pile,37,0,37,0,1,BOAT - MASHUA,,,,,,,,,,,,,,,,,,,,,,,,,,,,,,,,,,,,,,,,,,,,,,,,,,,,,,,,,,,,,,,,,,,,,,,,,,,,,,,,
,,,,,,,,,,1568135,2020-10-23_17h47.27.229,swahili,2020.2.4,MacIntel,60,,,,,,,,,,-0.35071072,-0.164019097,1,0,0,0.529875,unsorted_card,38,0,38,0,1,,,,,,,,,,,,,,,,,,,,,,,,,,,,,,,,,,,,,,,,,,,,,,,,,,,,,,,,,,,,,,,,,,,,,,,,,,,,,,,,,
,,,,,,,,,,1568135,2020-10-23_17h47.27.229,swahili,2020.2.4,MacIntel,60,,,,,,,,,,0.41273329,-0.053611111,1,0,0,1.31592,test_pile,39,0,39,0,1,TREASURE - DAFINA,,,,,,,,,,,,,,,,,,,,,,,,,,,,,,,,,,,,,,,,,,,,,,,,,,,,,,,,,,,,,,,,,,,,,,,,,,,,,,,,
,,,,,,,,,,1568135,2020-10-23_17h47.27.229,swahili,2020.2.4,MacIntel,60,,,,,,,,,,,,,,,,,,,,,,,,,,,,,,,,,,0,0,0,0,1,,,,,,,,,,,,,,,,,,,,,,,,,,,,,,,,,,,,,,,,,,,,,,,,,,,,,,,,,,,,,,,,
,,,,,,,,,,1568135,2020-10-23_17h47.27.229,swahili,2020.2.4,MacIntel,60,,,,,,,,,,,,,,,,,,,,,,,,,,,,,,,,,,,,,,,return,,,,,,1.23106,5.280305,0.35788303,-0.048125,1,0,0,0.515805,yes,MERCHANT,TAJINI,incorrect,0,0,0,0,1,,,,,,,,,,,,,,,,,,,,,,,,,,,,,,,,,,,,,,,,,
,,,,,,,,,,1568135,2020-10-23_17h47.27.229,swahili,2020.2.4,MacIntel,60,,,,,,,,,,,,,,,,,,,,,,,,,,,,,,,,,,,,,,,,,,,,,,2.715595,0.353900825,-0.032560764,1,0,0,0.44989,yes,OATH,YAMINI,incorrect,1,0,1,0,1,,,,,,,,,,,,,,,,,,,,,,,,,,,,,,,,,,,,,,,,,
,,,,,,,,,,1568135,2020-10-23_17h47.27.229,swahili,2020.2.4,MacIntel,60,,,,,,,,,,,,,,,,,,,,,,,,,,,,,,,,,,,,,,,,,,,,,,3.417,0.353900825,-0.032560764,1,0,0,0.615685,yes,BULL,FAHILI,incorrect,2,0,2,0,1,,,,,,,,,,,,,,,,,,,,,,,,,,,,,,,,,,,,,,,,,
,,,,,,,,,,1568135,2020-10-23_17h47.27.229,swahili,2020.2.4,MacIntel,60,,,,,,,,,,,,,,,,,,,,,,,,,,,,,,,,,,,,,,,,,,,,,,2.998765,0.353900825,-0.032560764,1,0,0,0.600465,yes,CHEESE,JIBINI,incorrect,3,0,3,0,1,,,,,,,,,,,,,,,,,,,,,,,,,,,,,,,,,,,,,,,,,
,,,,,,,,,,1568135,2020-10-23_17h47.27.229,swahili,2020.2.4,MacIntel,60,,,,,,,,,,,,,,,,,,,,,,,,,,,,,,,,,,,,,,,,,,,,,,3.09832,0.320762804,-0.084635417,1,0,0,0.649555,yes,CORN,NAFAKA,incorrect,4,0,4,0,1,,,,,,,,,,,,,,,,,,,,,,,,,,,,,,,,,,,,,,,,,
,,,,,,,,,,1568135,2020-10-23_17h47.27.229,swahili,2020.2.4,MacIntel,60,,,,,,,,,,,,,,,,,,,,,,,,,,,,,,,,,,,,,,,,,,,,,,2.447085,0.320762804,-0.084635417,1,0,0,0.6829,yes,PLATE,SAHANA,incorrect,5,0,5,0,1,,,,,,,,,,,,,,,,,,,,,,,,,,,,,,,,,,,,,,,,,
,,,,,,,,,,1568135,2020-10-23_17h47.27.229,swahili,2020.2.4,MacIntel,60,,,,,,,,,,,,,,,,,,,,,,,,,,,,,,,,,,,,,,,,,,,,,,5.483165,0.320762804,-0.084635417,1,0,0,0.48336,yes,AGENT,MSHOA,incorrect,6,0,6,0,1,,,,,,,,,,,,,,,,,,,,,,,,,,,,,,,,,,,,,,,,,
,,,,,,,,,,1568135,2020-10-23_17h47.27.229,swahili,2020.2.4,MacIntel,60,,,,,,,,,,,,,,,,,,,,,,,,,,,,,,,,,,,,,,,,,,,,,,4.33183,0.320762804,-0.084635417,1,0,0,0.598325,yes,MANURE,G,incorrect,7,0,7,0,1,,,,,,,,,,,,,,,,,,,,,,,,,,,,,,,,,,,,,,,,,
,,,,,,,,,,1568135,2020-10-23_17h47.27.229,swahili,2020.2.4,MacIntel,60,,,,,,,,,,,,,,,,,,,,,,,,,,,,,,,,,,,,,,,,,,,,,,3.59839,0.320762804,-0.084635417,1,0,0,0.765065,yes,BLAME,LAWAKA,incorrect,8,0,8,0,1,,,,,,,,,,,,,,,,,,,,,,,,,,,,,,,,,,,,,,,,,
,,,,,,,,,,1568135,2020-10-23_17h47.27.229,swahili,2020.2.4,MacIntel,60,,,,,,,,,,,,,,,,,,,,,,,,,,,,,,,,,,,,,,,,,,,,,,2.53017,0.320762804,-0.084635417,1,0,0,0.48443,yes,BRIBE,RUSHWA,incorrect,9,0,9,0,1,,,,,,,,,,,,,,,,,,,,,,,,,,,,,,,,,,,,,,,,,
,,,,,,,,,,1568135,2020-10-23_17h47.27.229,swahili,2020.2.4,MacIntel,60,,,,,,,,,,,,,,,,,,,,,,,,,,,,,,,,,,,,,,,,,,,,,,5.96559,0.320762804,-0.084635417,1,0,0,0.49845,yes,BOAT,MASHOA,incorrect,10,0,10,0,1,,,,,,,,,,,,,,,,,,,,,,,,,,,,,,,,,,,,,,,,,
,,,,,,,,,,1568135,2020-10-23_17h47.27.229,swahili,2020.2.4,MacIntel,60,,,,,,,,,,,,,,,,,,,,,,,,,,,,,,,,,,,,,,,,,,,,,,2.39692,0.320762804,-0.084635417,1,0,0,0.73416,yes,DIVORCE,TALAKA,incorrect,11,0,11,0,1,,,,,,,,,,,,,,,,,,,,,,,,,,,,,,,,,,,,,,,,,
,,,,,,,,,,1568135,2020-10-23_17h47.27.229,swahili,2020.2.4,MacIntel,60,,,,,,,,,,,,,,,,,,,,,,,,,,,,,,,,,,,,,,,,,,,,,,3.3473,0.320762804,-0.084635417,1,0,0,0.84976,yes,PARROT,KUZUKU,incorrect,12,0,12,0,1,,,,,,,,,,,,,,,,,,,,,,,,,,,,,,,,,,,,,,,,,
,,,,,,,,,,1568135,2020-10-23_17h47.27.229,swahili,2020.2.4,MacIntel,60,,,,,,,,,,,,,,,,,,,,,,,,,,,,,,,,,,,,,,,,,,,,,,3.23042,0.320762804,-0.084635417,1,0,0,0.46639,yes,TAILOR,MSHOA,incorrect,13,0,13,0,1,,,,,,,,,,,,,,,,,,,,,,,,,,,,,,,,,,,,,,,,,
,,,,,,,,,,1568135,2020-10-23_17h47.27.229,swahili,2020.2.4,MacIntel,60,,,,,,,,,,,,,,,,,,,,,,,,,,,,,,,,,,,,,,,,,,,,,,9.233125,0.320762804,-0.084635417,1,0,0,0.63163,yes,GRAPES,ZABIBU,incorrect,14,0,14,0,1,,,,,,,,,,,,,,,,,,,,,,,,,,,,,,,,,,,,,,,,,
,,,,,,,,,,1568135,2020-10-23_17h47.27.229,swahili,2020.2.4,MacIntel,60,,,,,,,,,,,,,,,,,,,,,,,,,,,,,,,,,,,,,,,,,,,,,,2.748095,0.320762804,-0.084635417,1,0,0,0.68428,yes,TREASURE,DAFINA,incorrect,15,0,15,0,1,,,,,,,,,,,,,,,,,,,,,,,,,,,,,,,,,,,,,,,,,
,,,,,,,,,,1568135,2020-10-23_17h47.27.229,swahili,2020.2.4,MacIntel,60,,,,,,,,,,,,,,,,,,,,,,,,,,,,,,,,,,,,,,,,,,,,,,2.24702,0.320762804,-0.084635417,1,0,0,0.96769,yes,POEM,UTENZI,incorrect,16,0,16,0,1,,,,,,,,,,,,,,,,,,,,,,,,,,,,,,,,,,,,,,,,,
,,,,,,,,,,1568135,2020-10-23_17h47.27.229,swahili,2020.2.4,MacIntel,60,,,,,,,,,,,,,,,,,,,,,,,,,,,,,,,,,,,,,,,,,,,,,,4.282685,0.320762804,-0.084635417,1,0,0,0.433475,yes,YEAST,NEWUZI,incorrect,17,0,17,0,1,,,,,,,,,,,,,,,,,,,,,,,,,,,,,,,,,,,,,,,,,
,,,,,,,,,,1568135,2020-10-23_17h47.27.229,swahili,2020.2.4,MacIntel,60,,,,,,,,,,,,,,,,,,,,,,,,,,,,,,,,,,,,,,,,,,,,,,2.76496,0.320762804,-0.084635417,1,0,0,0.849955,yes,GRAVE,KABURA,incorrect,18,0,18,0,1,,,,,,,,,,,,,,,,,,,,,,,,,,,,,,,,,,,,,,,,,
,,,,,,,,,,1568135,2020-10-23_17h47.27.229,swahili,2020.2.4,MacIntel,60,,,,,,,,,,,,,,,,,,,,,,,,,,,,,,,,,,,,,,,,,,,,,,2.7649,0.320762804,-0.084635417,1,0,0,0.499245,yes,ORPHAN,YATIMA,incorrect,19,0,19,0,1,,,,,,,,,,,,,,,,,,,,,,,,,,,,,,,,,,,,,,,,,
,,,,,,,,,,1568135,2020-10-23_17h47.27.229,swahili,2020.2.4,MacIntel,60,,,,,,,,,,,,,,,,,,,,,,,,,,,,,,,,,,,,,,,,0,0,0,0,1,,,,,,,,,,,,,,,,,,,,,,,,,,,,,,,,,,,,,,,,,,,,,,,,,,,,,,,,,,
,,,,,,,,,,1568135,2020-10-23_17h47.27.229,swahili,2020.2.4,MacIntel,60,,,,,,,,,,,,,,,,,,,,,,,,,,,,,,,,,,,,,,,,1,0,1,0,1,,,,,,,,,,,,,,,,,,,,,,,,,,,,,,,,,,,,,,,,,,,,,,,,,,,,,,,,,,
,,,,,,,,,,1568135,2020-10-23_17h47.27.229,swahili,2020.2.4,MacIntel,60,,,,,,,,,,,,,,,,,,,,,,,,,,,,,,,,,,,,,,,,,,,,,,,,,,,,,,,,,,,,,,3,0,3,0,1,,,,,,,,,,,,,,,,,,,,,,,,,,,,,,,,,,,,
,,,,,,,,,,1568135,2020-10-23_17h47.27.229,swahili,2020.2.4,MacIntel,60,,,,,,,,,,-0.289794922,-0.051727431,1,0,0,1.387405,unsorted_card,0,0,0,0,1,,,,,,,,,,,,,,,,,,,,,,,,,,,,,,,,,,,,,,,,,,,,,,,,,,,,,,,,,,,,,,,,,,,,,,,,,,,,,,,,,
,,,,,,,,,,1568135,2020-10-23_17h47.27.229,swahili,2020.2.4,MacIntel,60,,,,,,,,,,0.400276693,-0.012560764,1,0,0,1.31316,test_pile,1,0,1,0,1,MERCHANT - TAJIRI,,,,,,,,,,,,,,,,,,,,,,,,,,,,,,,,,,,,,,,,,,,,,,,,,,,,,,,,,,,,,,,,,,,,,,,,,,,,,,,,
,,,,,,,,,,1568135,2020-10-23_17h47.27.229,swahili,2020.2.4,MacIntel,60,,,,,,,,,,-0.183913845,-0.110789931,1,0,0,0.98251,unsorted_card,2,0,2,0,1,,,,,,,,,,,,,,,,,,,,,,,,,,,,,,,,,,,,,,,,,,,,,,,,,,,,,,,,,,,,,,,,,,,,,,,,,,,,,,,,,
,,,,,,,,,,1568135,2020-10-23_17h47.27.229,swahili,2020.2.4,MacIntel,60,,,,,,,,,,0.421685113,-0.027751736,1,0,0,1.281505,test_pile,3,0,3,0,1,PARROT - KASUKU,,,,,,,,,,,,,,,,,,,,,,,,,,,,,,,,,,,,,,,,,,,,,,,,,,,,,,,,,,,,,,,,,,,,,,,,,,,,,,,,
,,,,,,,,,,1568135,2020-10-23_17h47.27.229,swahili,2020.2.4,MacIntel,60,,,,,,,,,,-0.178266059,-0.099348958,1,0,0,0.71585,unsorted_card,4,0,4,0,1,,,,,,,,,,,,,,,,,,,,,,,,,,,,,,,,,,,,,,,,,,,,,,,,,,,,,,,,,,,,,,,,,,,,,,,,,,,,,,,,,
,,,,,,,,,,1568135,2020-10-23_17h47.27.229,swahili,2020.2.4,MacIntel,60,,,,,,,,,,0.463661024,-0.0628125,1,0,0,1.09927,test_pile,5,0,5,0,1,BULL - FAHILI,,,,,,,,,,,,,,,,,,,,,,,,,,,,,,,,,,,,,,,,,,,,,,,,,,,,,,,,,,,,,,,,,,,,,,,,,,,,,,,,
,,,,,,,,,,1568135,2020-10-23_17h47.27.229,swahili,2020.2.4,MacIntel,60,,,,,,,,,,-0.233935547,-0.015373264,1,0,0,0.582565,unsorted_card,6,0,6,0,1,,,,,,,,,,,,,,,,,,,,,,,,,,,,,,,,,,,,,,,,,,,,,,,,,,,,,,,,,,,,,,,,,,,,,,,,,,,,,,,,,
,,,,,,,,,,1568135,2020-10-23_17h47.27.229,swahili,2020.2.4,MacIntel,60,,,,,,,,,,0.386436632,-0.08296875,1,0,0,1.866005,test_pile,7,0,7,0,1,PLATE - SAHANI,,,,,,,,,,,,,,,,,,,,,,,,,,,,,,,,,,,,,,,,,,,,,,,,,,,,,,,,,,,,,,,,,,,,,,,,,,,,,,,,
,,,,,,,,,,1568135,2020-10-23_17h47.27.229,swahili,2020.2.4,MacIntel,60,,,,,,,,,,-0.251497396,-0.079192708,1,0,0,0.581575,unsorted_card,8,0,8,0,1,,,,,,,,,,,,,,,,,,,,,,,,,,,,,,,,,,,,,,,,,,,,,,,,,,,,,,,,,,,,,,,,,,,,,,,,,,,,,,,,,
,,,,,,,,,,1568135,2020-10-23_17h47.27.229,swahili,2020.2.4,MacIntel,60,,,,,,,,,,0.384190538,-0.007170139,1,0,0,1.132455,test_pile,9,0,9,0,1,YEAST - HAMIRA,,,,,,,,,,,,,,,,,,,,,,,,,,,,,,,,,,,,,,,,,,,,,,,,,,,,,,,,,,,,,,,,,,,,,,,,,,,,,,,,
,,,,,,,,,,1568135,2020-10-23_17h47.27.229,swahili,2020.2.4,MacIntel,60,,,,,,,,,,-0.287353516,-0.045989583,1,0,0,1.182845,unsorted_card,10,0,10,0,1,,,,,,,,,,,,,,,,,,,,,,,,,,,,,,,,,,,,,,,,,,,,,,,,,,,,,,,,,,,,,,,,,,,,,,,,,,,,,,,,,
,,,,,,,,,,1568135,2020-10-23_17h47.27.229,swahili,2020.2.4,MacIntel,60,,,,,,,,,,0.263590495,0.004010417,1,0,0,1.91551,test_pile,11,0,11,0,1,BLAME - LAWAMA,,,,,,,,,,,,,,,,,,,,,,,,,,,,,,,,,,,,,,,,,,,,,,,,,,,,,,,,,,,,,,,,,,,,,,,,,,,,,,,,
,,,,,,,,,,1568135,2020-10-23_17h47.27.229,swahili,2020.2.4,MacIntel,60,,,,,,,,,,-0.229079861,-0.05109375,1,0,0,0.53261,unsorted_card,12,0,12,0,1,,,,,,,,,,,,,,,,,,,,,,,,,,,,,,,,,,,,,,,,,,,,,,,,,,,,,,,,,,,,,,,,,,,,,,,,,,,,,,,,,
,,,,,,,,,,1568135,2020-10-23_17h47.27.229,swahili,2020.2.4,MacIntel,60,,,,,,,,,,0.419992405,-0.48125,1,0,0,1.36462,done_pile,13,0,13,0,1,OATH - YAMINI,,,,,,,,,,,,,,,,,,,,,,,,,,,,,,,,,,,,,,,,,,,,,,,,,,,,,,,,,,,,,,,,,,,,,,,,,,,,,,,,
,,,,,,,,,,1568135,2020-10-23_17h47.27.229,swahili,2020.2.4,MacIntel,60,,,,,,,,,,-0.211550564,-0.109592014,1,0,0,0.7823,unsorted_card,14,0,14,0,1,,,,,,,,,,,,,,,,,,,,,,,,,,,,,,,,,,,,,,,,,,,,,,,,,,,,,,,,,,,,,,,,,,,,,,,,,,,,,,,,,
,,,,,,,,,,1568135,2020-10-23_17h47.27.229,swahili,2020.2.4,MacIntel,60,,,,,,,,,,0.379638672,-0.084079861,1,0,0,3.066255,test_pile,15,0,15,0,1,CORN - NAFAKA,,,,,,,,,,,,,,,,,,,,,,,,,,,,,,,,,,,,,,,,,,,,,,,,,,,,,,,,,,,,,,,,,,,,,,,,,,,,,,,,
,,,,,,,,,,1568135,2020-10-23_17h47.27.229,swahili,2020.2.4,MacIntel,60,,,,,,,,,,-0.363552517,-0.141631944,1,0,0,0.598495,unsorted_card,16,0,16,0,1,,,,,,,,,,,,,,,,,,,,,,,,,,,,,,,,,,,,,,,,,,,,,,,,,,,,,,,,,,,,,,,,,,,,,,,,,,,,,,,,,
,,,,,,,,,,1568135,2020-10-23_17h47.27.229,swahili,2020.2.4,MacIntel,60,,,,,,,,,,0.36469184,-0.423151042,1,0,0,1.38277,done_pile,17,0,17,0,1,POEM - UTENZI,,,,,,,,,,,,,,,,,,,,,,,,,,,,,,,,,,,,,,,,,,,,,,,,,,,,,,,,,,,,,,,,,,,,,,,,,,,,,,,,
,,,,,,,,,,1568135,2020-10-23_17h47.27.229,swahili,2020.2.4,MacIntel,60,,,,,,,,,,-0.26210395,-0.114036458,1,0,0,0.83196,unsorted_card,18,0,18,0,1,,,,,,,,,,,,,,,,,,,,,,,,,,,,,,,,,,,,,,,,,,,,,,,,,,,,,,,,,,,,,,,,,,,,,,,,,,,,,,,,,
,,,,,,,,,,1568135,2020-10-23_17h47.27.229,swahili,2020.2.4,MacIntel,60,,,,,,,,,,0.408902995,-0.069878472,1,0,0,1.76547,test_pile,19,0,19,0,1,TAILOR - MSHONI,,,,,,,,,,,,,,,,,,,,,,,,,,,,,,,,,,,,,,,,,,,,,,,,,,,,,,,,,,,,,,,,,,,,,,,,,,,,,,,,
,,,,,,,,,,1568135,2020-10-23_17h47.27.229,swahili,2020.2.4,MacIntel,60,,,,,,,,,,-0.187754991,-0.020902778,1,0,0,0.54944,unsorted_card,20,0,20,0,1,,,,,,,,,,,,,,,,,,,,,,,,,,,,,,,,,,,,,,,,,,,,,,,,,,,,,,,,,,,,,,,,,,,,,,,,,,,,,,,,,
,,,,,,,,,,1568135,2020-10-23_17h47.27.229,swahili,2020.2.4,MacIntel,60,,,,,,,,,,0.392518446,-0.539296875,1,0,0,1.081325,done_pile,21,0,21,0,1,CHEESE - JIBINI,,,,,,,,,,,,,,,,,,,,,,,,,,,,,,,,,,,,,,,,,,,,,,,,,,,,,,,,,,,,,,,,,,,,,,,,,,,,,,,,
,,,,,,,,,,1568135,2020-10-23_17h47.27.229,swahili,2020.2.4,MacIntel,60,,,,,,,,,,-0.227886285,-0.194045139,1,0,0,0.599405,unsorted_card,22,0,22,0,1,,,,,,,,,,,,,,,,,,,,,,,,,,,,,,,,,,,,,,,,,,,,,,,,,,,,,,,,,,,,,,,,,,,,,,,,,,,,,,,,,
,,,,,,,,,,1568135,2020-10-23_17h47.27.229,swahili,2020.2.4,MacIntel,60,,,,,,,,,,0.470035807,-0.089418403,1,0,0,1.34857,test_pile,23,0,23,0,1,GRAPES - ZABIBU,,,,,,,,,,,,,,,,,,,,,,,,,,,,,,,,,,,,,,,,,,,,,,,,,,,,,,,,,,,,,,,,,,,,,,,,,,,,,,,,
,,,,,,,,,,1568135,2020-10-23_17h47.27.229,swahili,2020.2.4,MacIntel,60,,,,,,,,,,-0.331282552,-0.00375,1,0,0,0.549045,unsorted_card,24,0,24,0,1,,,,,,,,,,,,,,,,,,,,,,,,,,,,,,,,,,,,,,,,,,,,,,,,,,,,,,,,,,,,,,,,,,,,,,,,,,,,,,,,,
,,,,,,,,,,1568135,2020-10-23_17h47.27.229,swahili,2020.2.4,MacIntel,60,,,,,,,,,,0.439735243,-0.050555556,1,0,0,1.51585,test_pile,25,0,25,0,1,GRAVE - KABURI,,,,,,,,,,,,,,,,,,,,,,,,,,,,,,,,,,,,,,,,,,,,,,,,,,,,,,,,,,,,,,,,,,,,,,,,,,,,,,,,
,,,,,,,,,,1568135,2020-10-23_17h47.27.229,swahili,2020.2.4,MacIntel,60,,,,,,,,,,-0.208100043,-0.023602431,1,0,0,0.565505,unsorted_card,26,0,26,0,1,,,,,,,,,,,,,,,,,,,,,,,,,,,,,,,,,,,,,,,,,,,,,,,,,,,,,,,,,,,,,,,,,,,,,,,,,,,,,,,,,
,,,,,,,,,,1568135,2020-10-23_17h47.27.229,swahili,2020.2.4,MacIntel,60,,,,,,,,,,0.378889974,-0.039253472,1,0,0,7.58221,test_pile,27,0,27,0,1,MANURE - SAMADI,,,,,,,,,,,,,,,,,,,,,,,,,,,,,,,,,,,,,,,,,,,,,,,,,,,,,,,,,,,,,,,,,,,,,,,,,,,,,,,,
,,,,,,,,,,1568135,2020-10-23_17h47.27.229,swahili,2020.2.4,MacIntel,60,,,,,,,,,,-0.113644748,-0.011684028,1,0,0,0.63282,unsorted_card,28,0,28,0,1,,,,,,,,,,,,,,,,,,,,,,,,,,,,,,,,,,,,,,,,,,,,,,,,,,,,,,,,,,,,,,,,,,,,,,,,,,,,,,,,,
,,,,,,,,,,1568135,2020-10-23_17h47.27.229,swahili,2020.2.4,MacIntel,60,,,,,,,,,,0.480371094,-0.026944444,1,0,0,1.14864,test_pile,29,0,29,0,1,AGENT - WAKILI,,,,,,,,,,,,,,,,,,,,,,,,,,,,,,,,,,,,,,,,,,,,,,,,,,,,,,,,,,,,,,,,,,,,,,,,,,,,,,,,
,,,,,,,,,,1568135,2020-10-23_17h47.27.229,swahili,2020.2.4,MacIntel,60,,,,,,,,,,-0.223296441,-0.049279514,1,0,0,0.548425,unsorted_card,30,0,30,0,1,,,,,,,,,,,,,,,,,,,,,,,,,,,,,,,,,,,,,,,,,,,,,,,,,,,,,,,,,,,,,,,,,,,,,,,,,,,,,,,,,
,,,,,,,,,,1568135,2020-10-23_17h47.27.229,swahili,2020.2.4,MacIntel,60,,,,,,,,,,0.481233724,-0.485234375,1,0,0,1.60002,done_pile,31,0,31,0,1,BRIBE - RUSHWA,,,,,,,,,,,,,,,,,,,,,,,,,,,,,,,,,,,,,,,,,,,,,,,,,,,,,,,,,,,,,,,,,,,,,,,,,,,,,,,,
,,,,,,,,,,1568135,2020-10-23_17h47.27.229,swahili,2020.2.4,MacIntel,60,,,,,,,,,,-0.318777127,-0.034678819,1,0,0,0.565065,unsorted_card,32,0,32,0,1,,,,,,,,,,,,,,,,,,,,,,,,,,,,,,,,,,,,,,,,,,,,,,,,,,,,,,,,,,,,,,,,,,,,,,,,,,,,,,,,,
,,,,,,,,,,1568135,2020-10-23_17h47.27.229,swahili,2020.2.4,MacIntel,60,,,,,,,,,,0.405278863,-0.521440972,1,0,0,1.64888,done_pile,33,0,33,0,1,ORPHAN - YATIMA,,,,,,,,,,,,,,,,,,,,,,,,,,,,,,,,,,,,,,,,,,,,,,,,,,,,,,,,,,,,,,,,,,,,,,,,,,,,,,,,
,,,,,,,,,,1568135,2020-10-23_17h47.27.229,swahili,2020.2.4,MacIntel,60,,,,,,,,,,-0.223578559,-0.100130208,1,0,0,0.663635,unsorted_card,34,0,34,0,1,,,,,,,,,,,,,,,,,,,,,,,,,,,,,,,,,,,,,,,,,,,,,,,,,,,,,,,,,,,,,,,,,,,,,,,,,,,,,,,,,
,,,,,,,,,,1568135,2020-10-23_17h47.27.229,swahili,2020.2.4,MacIntel,60,,,,,,,,,,0.379573568,-0.429600694,1,0,0,1.75007,done_pile,35,0,35,0,1,DIVORCE - TALAKA,,,,,,,,,,,,,,,,,,,,,,,,,,,,,,,,,,,,,,,,,,,,,,,,,,,,,,,,,,,,,,,,,,,,,,,,,,,,,,,,
,,,,,,,,,,1568135,2020-10-23_17h47.27.229,swahili,2020.2.4,MacIntel,60,,,,,,,,,,-0.281195747,-0.072126736,1,0,0,0.515635,unsorted_card,36,0,36,0,1,,,,,,,,,,,,,,,,,,,,,,,,,,,,,,,,,,,,,,,,,,,,,,,,,,,,,,,,,,,,,,,,,,,,,,,,,,,,,,,,,
,,,,,,,,,,1568135,2020-10-23_17h47.27.229,swahili,2020.2.4,MacIntel,60,,,,,,,,,,0.383772786,-0.070060764,1,0,0,1.46481,test_pile,37,0,37,0,1,BOAT - MASHUA,,,,,,,,,,,,,,,,,,,,,,,,,,,,,,,,,,,,,,,,,,,,,,,,,,,,,,,,,,,,,,,,,,,,,,,,,,,,,,,,
,,,,,,,,,,1568135,2020-10-23_17h47.27.229,swahili,2020.2.4,MacIntel,60,,,,,,,,,,-0.250786675,-0.035338542,1,0,0,0.566115,unsorted_card,38,0,38,0,1,,,,,,,,,,,,,,,,,,,,,,,,,,,,,,,,,,,,,,,,,,,,,,,,,,,,,,,,,,,,,,,,,,,,,,,,,,,,,,,,,
,,,,,,,,,,1568135,2020-10-23_17h47.27.229,swahili,2020.2.4,MacIntel,60,,,,,,,,,,0.413536241,-0.076397569,1,0,0,1.632545,test_pile,39,0,39,0,1,TREASURE - DAFINA,,,,,,,,,,,,,,,,,,,,,,,,,,,,,,,,,,,,,,,,,,,,,,,,,,,,,,,,,,,,,,,,,,,,,,,,,,,,,,,,
,,,,,,,,,,1568135,2020-10-23_17h47.27.229,swahili,2020.2.4,MacIntel,60,,,,,,,,,,,,,,,,,,,,,,,,,,,,,,,,,,0,0,0,0,1,,,,,,,,,,,,,,,,,,,,,,,,,,,,,,,,,,,,,,,,,,,,,,,,,,,,,,,,,,,,,,,,
,,,,,,,,,,1568135,2020-10-23_17h47.27.229,swahili,2020.2.4,MacIntel,60,,,,,,,,,,,,,,,,,,,,,,,,,,,,,,,,,,,,,,,return,,,,,,1.349175,3.51448,0.322368707,-0.174947917,1,0,0,1.733555,yes,TREASURE,DAFINA,incorrect,0,0,0,0,1,,,,,,,,,,,,,,,,,,,,,,,,,,,,,,,,,,,,,,,,,
,,,,,,,,,,1568135,2020-10-23_17h47.27.229,swahili,2020.2.4,MacIntel,60,,,,,,,,,,,,,,,,,,,,,,,,,,,,,,,,,,,,,,,,,,,,,,3.714865,0.327544488,-0.143619792,1,0,0,0.716085,yes,AGENT,WAKILI,incorrect,1,0,1,0,1,,,,,,,,,,,,,,,,,,,,,,,,,,,,,,,,,,,,,,,,,
,,,,,,,,,,1568135,2020-10-23_17h47.27.229,swahili,2020.2.4,MacIntel,60,,,,,,,,,,,,,,,,,,,,,,,,,,,,,,,,,,,,,,,,,,,,,,7.29892,0.327859158,-0.140199653,1,0,0,0.483455,yes,TAILOR,MSHOLI,incorrect,2,0,2,0,1,,,,,,,,,,,,,,,,,,,,,,,,,,,,,,,,,,,,,,,,,
,,,,,,,,,,1568135,2020-10-23_17h47.27.229,swahili,2020.2.4,MacIntel,60,,,,,,,,,,,,,,,,,,,,,,,,,,,,,,,,,,,,,,,,,,,,,,3.231375,0.327859158,-0.140199653,1,0,0,0.48212,yes,GRAVE,KABURI,incorrect,3,0,3,0,1,,,,,,,,,,,,,,,,,,,,,,,,,,,,,,,,,,,,,,,,,
,,,,,,,,,,1568135,2020-10-23_17h47.27.229,swahili,2020.2.4,MacIntel,60,,,,,,,,,,,,,,,,,,,,,,,,,,,,,,,,,,,,,,,,,,,,,,5.06364,0.327859158,-0.140199653,1,0,0,0.600085,yes,MERCHANT,TRAJERA,incorrect,4,0,4,0,1,,,,,,,,,,,,,,,,,,,,,,,,,,,,,,,,,,,,,,,,,
,,,,,,,,,,1568135,2020-10-23_17h47.27.229,swahili,2020.2.4,MacIntel,60,,,,,,,,,,,,,,,,,,,,,,,,,,,,,,,,,,,,,,,,,,,,,,3.280985,0.327859158,-0.133272569,1,0,0,0.567405,yes,BULL,FAHILI,incorrect,5,0,5,0,1,,,,,,,,,,,,,,,,,,,,,,,,,,,,,,,,,,,,,,,,,
,,,,,,,,,,1568135,2020-10-23_17h47.27.229,swahili,2020.2.4,MacIntel,60,,,,,,,,,,,,,,,,,,,,,,,,,,,,,,,,,,,,,,,,,,,,,,4.78169,0.327859158,-0.133272569,1,0,0,0.46632,yes,BLAME,LAWAMA,incorrect,6,0,6,0,1,,,,,,,,,,,,,,,,,,,,,,,,,,,,,,,,,,,,,,,,,
,,,,,,,,,,1568135,2020-10-23_17h47.27.229,swahili,2020.2.4,MacIntel,60,,,,,,,,,,,,,,,,,,,,,,,,,,,,,,,,,,,,,,,,,,,,,,3.981225,0.327859158,-0.133272569,1,0,0,0.81717,yes,CORN,NAFAKA,incorrect,7,0,7,0,1,,,,,,,,,,,,,,,,,,,,,,,,,,,,,,,,,,,,,,,,,
,,,,,,,,,,1568135,2020-10-23_17h47.27.229,swahili,2020.2.4,MacIntel,60,,,,,,,,,,,,,,,,,,,,,,,,,,,,,,,,,,,,,,,,,,,,,,6.31422,0.327859158,-0.133272569,1,0,0,0.484125,yes,BOAT,MASHUA,incorrect,8,0,8,0,1,,,,,,,,,,,,,,,,,,,,,,,,,,,,,,,,,,,,,,,,,
,,,,,,,,,,1568135,2020-10-23_17h47.27.229,swahili,2020.2.4,MacIntel,60,,,,,,,,,,,,,,,,,,,,,,,,,,,,,,,,,,,,,,,,,,,,,,3.981245,0.327859158,-0.133272569,1,0,0,0.717085,yes,PARROT,KUBUZU,incorrect,9,0,9,0,1,,,,,,,,,,,,,,,,,,,,,,,,,,,,,,,,,,,,,,,,,
,,,,,,,,,,1568135,2020-10-23_17h47.27.229,swahili,2020.2.4,MacIntel,60,,,,,,,,,,,,,,,,,,,,,,,,,,,,,,,,,,,,,,,,,,,,,,2.947515,0.329909939,-0.13078125,1,0,0,0.734565,yes,YEAST,HAMARI,incorrect,10,0,10,0,1,,,,,,,,,,,,,,,,,,,,,,,,,,,,,,,,,,,,,,,,,
,,,,,,,,,,1568135,2020-10-23_17h47.27.229,swahili,2020.2.4,MacIntel,60,,,,,,,,,,,,,,,,,,,,,,,,,,,,,,,,,,,,,,,,,,,,,,7.831785,0.329909939,-0.13078125,1,0,0,0.64922,yes,PLATE,SAHANI,incorrect,11,0,11,0,1,,,,,,,,,,,,,,,,,,,,,,,,,,,,,,,,,,,,,,,,,
,,,,,,,,,,1568135,2020-10-23_17h47.27.229,swahili,2020.2.4,MacIntel,60,,,,,,,,,,,,,,,,,,,,,,,,,,,,,,,,,,,,,,,,,,,,,,4.532655,0.329909939,-0.13078125,1,0,0,0.482845,yes,MANURE,BU,incorrect,12,0,12,0,1,,,,,,,,,,,,,,,,,,,,,,,,,,,,,,,,,,,,,,,,,
,,,,,,,,,,1568135,2020-10-23_17h47.27.229,swahili,2020.2.4,MacIntel,60,,,,,,,,,,,,,,,,,,,,,,,,,,,,,,,,,,,,,,,,,,,,,,27.898295,0.384651693,-0.058185764,1,0,0,0.84868,yes,GRAPES,ZUBIZU,incorrect,13,0,13,0,1,,,,,,,,,,,,,,,,,,,,,,,,,,,,,,,,,,,,,,,,,
,,,,,,,,,,1568135,2020-10-23_17h47.27.229,swahili,2020.2.4,MacIntel,60,,,,,,,,,,,,,,,,,,,,,,,,,,,,,,,,,,,,,,,,0,0,0,0,1,,,,,,,,,,,,,,,,,,,,,,,,,,,,,,,,,,,,,,,,,,,,,,,,,,,,,,,,,,
,,,,,,,,,,1568135,2020-10-23_17h47.27.229,swahili,2020.2.4,MacIntel,60,,,,,,,,,,,,,,,,,,,,,,,,,,,,,,,,,,,,,,,,1,0,1,0,1,,,,,,,,,,,,,,,,,,,,,,,,,,,,,,,,,,,,,,,,,,,,,,,,,,,,,,,,,,
,,,,,,,,,,1568135,2020-10-23_17h47.27.229,swahili,2020.2.4,MacIntel,60,,,,,,,,,,,,,,,,,,,,,,,,,,,,,,,,,,,,,,,,,,,,,,,,,,,,,,,,,,,,,,4,0,4,0,1,,,,,,,,,,,,,,,,,,,,,,,,,,,,,,,,,,,,
,,,,,,,,,,1568135,2020-10-23_17h47.27.229,swahili,2020.2.4,MacIntel,60,,,,,,,,,,-0.130582682,-0.027560764,1,0,0,3.01665,unsorted_card,0,0,0,0,1,,,,,,,,,,,,,,,,,,,,,,,,,,,,,,,,,,,,,,,,,,,,,,,,,,,,,,,,,,,,,,,,,,,,,,,,,,,,,,,,,
,,,,,,,,,,1568135,2020-10-23_17h47.27.229,swahili,2020.2.4,MacIntel,60,,,,,,,,,,0.503634983,-0.086232639,1,0,0,1.41525,test_pile,1,0,1,0,1,MERCHANT - TAJIRI,,,,,,,,,,,,,,,,,,,,,,,,,,,,,,,,,,,,,,,,,,,,,,,,,,,,,,,,,,,,,,,,,,,,,,,,,,,,,,,,
,,,,,,,,,,1568135,2020-10-23_17h47.27.229,swahili,2020.2.4,MacIntel,60,,,,,,,,,,-0.269292535,-0.077204861,1,0,0,1.265165,unsorted_card,2,0,2,0,1,,,,,,,,,,,,,,,,,,,,,,,,,,,,,,,,,,,,,,,,,,,,,,,,,,,,,,,,,,,,,,,,,,,,,,,,,,,,,,,,,
,,,,,,,,,,1568135,2020-10-23_17h47.27.229,swahili,2020.2.4,MacIntel,60,,,,,,,,,,0.470431858,-0.034149306,1,0,0,3.314215,test_pile,3,0,3,0,1,PARROT - KASUKU,,,,,,,,,,,,,,,,,,,,,,,,,,,,,,,,,,,,,,,,,,,,,,,,,,,,,,,,,,,,,,,,,,,,,,,,,,,,,,,,
,,,,,,,,,,1568135,2020-10-23_17h47.27.229,swahili,2020.2.4,MacIntel,60,,,,,,,,,,-0.26359592,-0.059149306,1,0,0,1.18313,unsorted_card,4,0,4,0,1,,,,,,,,,,,,,,,,,,,,,,,,,,,,,,,,,,,,,,,,,,,,,,,,,,,,,,,,,,,,,,,,,,,,,,,,,,,,,,,,,
,,,,,,,,,,1568135,2020-10-23_17h47.27.229,swahili,2020.2.4,MacIntel,60,,,,,,,,,,0.440652127,0.005303819,1,0,0,3.56591,test_pile,5,0,5,0,1,BULL - FAHILI,,,,,,,,,,,,,,,,,,,,,,,,,,,,,,,,,,,,,,,,,,,,,,,,,,,,,,,,,,,,,,,,,,,,,,,,,,,,,,,,
,,,,,,,,,,1568135,2020-10-23_17h47.27.229,swahili,2020.2.4,MacIntel,60,,,,,,,,,,-0.194542101,-0.025729167,1,0,0,0.731315,unsorted_card,6,0,6,0,1,,,,,,,,,,,,,,,,,,,,,,,,,,,,,,,,,,,,,,,,,,,,,,,,,,,,,,,,,,,,,,,,,,,,,,,,,,,,,,,,,
,,,,,,,,,,1568135,2020-10-23_17h47.27.229,swahili,2020.2.4,MacIntel,60,,,,,,,,,,0.480821398,-0.046440972,1,0,0,1.933,test_pile,7,0,7,0,1,PLATE - SAHANI,,,,,,,,,,,,,,,,,,,,,,,,,,,,,,,,,,,,,,,,,,,,,,,,,,,,,,,,,,,,,,,,,,,,,,,,,,,,,,,,
,,,,,,,,,,1568135,2020-10-23_17h47.27.229,swahili,2020.2.4,MacIntel,60,,,,,,,,,,-0.329047309,-0.047508681,1,0,0,0.532645,unsorted_card,8,0,8,0,1,,,,,,,,,,,,,,,,,,,,,,,,,,,,,,,,,,,,,,,,,,,,,,,,,,,,,,,,,,,,,,,,,,,,,,,,,,,,,,,,,
,,,,,,,,,,1568135,2020-10-23_17h47.27.229,swahili,2020.2.4,MacIntel,60,,,,,,,,,,0.370334201,0.002821181,1,0,0,1.315195,test_pile,9,0,9,0,1,YEAST - HAMIRA,,,,,,,,,,,,,,,,,,,,,,,,,,,,,,,,,,,,,,,,,,,,,,,,,,,,,,,,,,,,,,,,,,,,,,,,,,,,,,,,
,,,,,,,,,,1568135,2020-10-23_17h47.27.229,swahili,2020.2.4,MacIntel,60,,,,,,,,,,-0.256374783,-0.038402778,1,0,0,0.649625,unsorted_card,10,0,10,0,1,,,,,,,,,,,,,,,,,,,,,,,,,,,,,,,,,,,,,,,,,,,,,,,,,,,,,,,,,,,,,,,,,,,,,,,,,,,,,,,,,
,,,,,,,,,,1568135,2020-10-23_17h47.27.229,swahili,2020.2.4,MacIntel,60,,,,,,,,,,0.404779731,-0.047803819,1,0,0,1.39858,test_pile,11,0,11,0,1,BLAME - LAWAMA,,,,,,,,,,,,,,,,,,,,,,,,,,,,,,,,,,,,,,,,,,,,,,,,,,,,,,,,,,,,,,,,,,,,,,,,,,,,,,,,
,,,,,,,,,,1568135,2020-10-23_17h47.27.229,swahili,2020.2.4,MacIntel,60,,,,,,,,,,-0.246484375,-0.056423611,1,0,0,0.548255,unsorted_card,12,0,12,0,1,,,,,,,,,,,,,,,,,,,,,,,,,,,,,,,,,,,,,,,,,,,,,,,,,,,,,,,,,,,,,,,,,,,,,,,,,,,,,,,,,
,,,,,,,,,,1568135,2020-10-23_17h47.27.229,swahili,2020.2.4,MacIntel,60,,,,,,,,,,0.34702691,-0.440850694,1,0,0,1.85055,done_pile,13,0,13,0,1,CORN - NAFAKA,,,,,,,,,,,,,,,,,,,,,,,,,,,,,,,,,,,,,,,,,,,,,,,,,,,,,,,,,,,,,,,,,,,,,,,,,,,,,,,,
,,,,,,,,,,1568135,2020-10-23_17h47.27.229,swahili,2020.2.4,MacIntel,60,,,,,,,,,,-0.226220703,-0.114548611,1,0,0,3.91519,unsorted_card,14,0,14,0,1,,,,,,,,,,,,,,,,,,,,,,,,,,,,,,,,,,,,,,,,,,,,,,,,,,,,,,,,,,,,,,,,,,,,,,,,,,,,,,,,,
,,,,,,,,,,1568135,2020-10-23_17h47.27.229,swahili,2020.2.4,MacIntel,60,,,,,,,,,,0.418967014,-0.025607639,1,0,0,4.264605,test_pile,15,0,15,0,1,TAILOR - MSHONI,,,,,,,,,,,,,,,,,,,,,,,,,,,,,,,,,,,,,,,,,,,,,,,,,,,,,,,,,,,,,,,,,,,,,,,,,,,,,,,,
,,,,,,,,,,1568135,2020-10-23_17h47.27.229,swahili,2020.2.4,MacIntel,60,,,,,,,,,,-0.267610677,-0.054730903,1,0,0,0.565325,unsorted_card,16,0,16,0,1,,,,,,,,,,,,,,,,,,,,,,,,,,,,,,,,,,,,,,,,,,,,,,,,,,,,,,,,,,,,,,,,,,,,,,,,,,,,,,,,,
,,,,,,,,,,1568135,2020-10-23_17h47.27.229,swahili,2020.2.4,MacIntel,60,,,,,,,,,,0.438557943,-0.046319444,1,0,0,1.482655,test_pile,17,0,17,0,1,GRAPES - ZABIBU,,,,,,,,,,,,,,,,,,,,,,,,,,,,,,,,,,,,,,,,,,,,,,,,,,,,,,,,,,,,,,,,,,,,,,,,,,,,,,,,
,,,,,,,,,,1568135,2020-10-23_17h47.27.229,swahili,2020.2.4,MacIntel,60,,,,,,,,,,-0.245817057,-0.059131944,1,0,0,1.01578,unsorted_card,18,0,18,0,1,,,,,,,,,,,,,,,,,,,,,,,,,,,,,,,,,,,,,,,,,,,,,,,,,,,,,,,,,,,,,,,,,,,,,,,,,,,,,,,,,
,,,,,,,,,,1568135,2020-10-23_17h47.27.229,swahili,2020.2.4,MacIntel,60,,,,,,,,,,0.38219401,-0.043428819,1,0,0,5.75061,test_pile,19,0,19,0,1,GRAVE - KABURI,,,,,,,,,,,,,,,,,,,,,,,,,,,,,,,,,,,,,,,,,,,,,,,,,,,,,,,,,,,,,,,,,,,,,,,,,,,,,,,,
,,,,,,,,,,1568135,2020-10-23_17h47.27.229,swahili,2020.2.4,MacIntel,60,,,,,,,,,,-0.540212674,0.003828125,1,0,0,6.23108,unsorted_card,20,0,20,0,1,,,,,,,,,,,,,,,,,,,,,,,,,,,,,,,,,,,,,,,,,,,,,,,,,,,,,,,,,,,,,,,,,,,,,,,,,,,,,,,,,
,,,,,,,,,,1568135,2020-10-23_17h47.27.229,swahili,2020.2.4,MacIntel,60,,,,,,,,,,0.373692491,-0.015842014,1,0,0,10.530025,test_pile,21,0,21,0,1,MANURE - SAMADI,,,,,,,,,,,,,,,,,,,,,,,,,,,,,,,,,,,,,,,,,,,,,,,,,,,,,,,,,,,,,,,,,,,,,,,,,,,,,,,,
,,,,,,,,,,1568135,2020-10-23_17h47.27.229,swahili,2020.2.4,MacIntel,60,,,,,,,,,,-0.218511285,-0.091206597,1,0,0,1.198555,unsorted_card,22,0,22,0,1,,,,,,,,,,,,,,,,,,,,,,,,,,,,,,,,,,,,,,,,,,,,,,,,,,,,,,,,,,,,,,,,,,,,,,,,,,,,,,,,,
,,,,,,,,,,1568135,2020-10-23_17h47.27.229,swahili,2020.2.4,MacIntel,60,,,,,,,,,,0.379562717,0.030842014,1,0,0,10.6486,test_pile,23,0,23,0,1,AGENT - WAKILI,,,,,,,,,,,,,,,,,,,,,,,,,,,,,,,,,,,,,,,,,,,,,,,,,,,,,,,,,,,,,,,,,,,,,,,,,,,,,,,,
,,,,,,,,,,1568135,2020-10-23_17h47.27.229,swahili,2020.2.4,MacIntel,60,,,,,,,,,,-0.255186632,-0.048151042,1,0,0,0.564665,unsorted_card,24,0,24,0,1,,,,,,,,,,,,,,,,,,,,,,,,,,,,,,,,,,,,,,,,,,,,,,,,,,,,,,,,,,,,,,,,,,,,,,,,,,,,,,,,,
,,,,,,,,,,1568135,2020-10-23_17h47.27.229,swahili,2020.2.4,MacIntel,60,,,,,,,,,,0.394401042,-0.021180556,1,0,0,1.166185,test_pile,25,0,25,0,1,BOAT - MASHUA,,,,,,,,,,,,,,,,,,,,,,,,,,,,,,,,,,,,,,,,,,,,,,,,,,,,,,,,,,,,,,,,,,,,,,,,,,,,,,,,
,,,,,,,,,,1568135,2020-10-23_17h47.27.229,swahili,2020.2.4,MacIntel,60,,,,,,,,,,-0.260253906,-0.02234375,1,0,0,0.699025,unsorted_card,26,0,26,0,1,,,,,,,,,,,,,,,,,,,,,,,,,,,,,,,,,,,,,,,,,,,,,,,,,,,,,,,,,,,,,,,,,,,,,,,,,,,,,,,,,
,,,,,,,,,,1568135,2020-10-23_17h47.27.229,swahili,2020.2.4,MacIntel,60,,,,,,,,,,0.4863227,-0.028133681,1,0,0,1.14874,test_pile,27,0,27,0,1,TREASURE - DAFINA,,,,,,,,,,,,,,,,,,,,,,,,,,,,,,,,,,,,,,,,,,,,,,,,,,,,,,,,,,,,,,,,,,,,,,,,,,,,,,,,
,,,,,,,,,,1568135,2020-10-23_17h47.27.229,swahili,2020.2.4,MacIntel,60,,,,,,,,,,,,,,,,,,,,,,,,,,,,,,,,,,0,0,0,0,1,,,,,,,,,,,,,,,,,,,,,,,,,,,,,,,,,,,,,,,,,,,,,,,,,,,,,,,,,,,,,,,,
,,,,,,,,,,1568135,2020-10-23_17h47.27.229,swahili,2020.2.4,MacIntel,60,,,,,,,,,,,,,,,,,,,,,,,,,,,,,,,,,,,,,,,return,,,,,,2.91117,2.64639,0.353781467,0.088984375,1,0,0,0.73481,yes,GRAVE,KABURI,incorrect,0,0,0,0,1,,,,,,,,,,,,,,,,,,,,,,,,,,,,,,,,,,,,,,,,,
,,,,,,,,,,1568135,2020-10-23_17h47.27.229,swahili,2020.2.4,MacIntel,60,,,,,,,,,,,,,,,,,,,,,,,,,,,,,,,,,,,,,,,,,,,,,,2.38341,0.311707899,0.026276042,1,0,0,1.09763,yes,TREASURE,DAFINA,incorrect,1,0,1,0,1,,,,,,,,,,,,,,,,,,,,,,,,,,,,,,,,,,,,,,,,,
,,,,,,,,,,1568135,2020-10-23_17h47.27.229,swahili,2020.2.4,MacIntel,60,,,,,,,,,,,,,,,,,,,,,,,,,,,,,,,,,,,,,,,,,,,,,,10.36513,0.306467014,0.032291667,1,0,0,0.532525,yes,AGENT,WAKILI,incorrect,2,0,2,0,1,,,,,,,,,,,,,,,,,,,,,,,,,,,,,,,,,,,,,,,,,
,,,,,,,,,,1568135,2020-10-23_17h47.27.229,swahili,2020.2.4,MacIntel,60,,,,,,,,,,,,,,,,,,,,,,,,,,,,,,,,,,,,,,,,,,,,,,2.530675,0.306467014,0.032291667,1,0,0,0.59981,yes,BOAT,MASHUA,incorrect,3,0,3,0,1,,,,,,,,,,,,,,,,,,,,,,,,,,,,,,,,,,,,,,,,,
,,,,,,,,,,1568135,2020-10-23_17h47.27.229,swahili,2020.2.4,MacIntel,60,,,,,,,,,,,,,,,,,,,,,,,,,,,,,,,,,,,,,,,,,,,,,,2.89855,0.306467014,0.032291667,1,0,0,0.499975,yes,PLATE,SAHANI,incorrect,4,0,4,0,1,,,,,,,,,,,,,,,,,,,,,,,,,,,,,,,,,,,,,,,,,
,,,,,,,,,,1568135,2020-10-23_17h47.27.229,swahili,2020.2.4,MacIntel,60,,,,,,,,,,,,,,,,,,,,,,,,,,,,,,,,,,,,,,,,,,,,,,5.814925,0.306467014,0.032291667,1,0,0,0.6155,yes,BLAME,LAWAMA,incorrect,5,0,5,0,1,,,,,,,,,,,,,,,,,,,,,,,,,,,,,,,,,,,,,,,,,
,,,,,,,,,,1568135,2020-10-23_17h47.27.229,swahili,2020.2.4,MacIntel,60,,,,,,,,,,,,,,,,,,,,,,,,,,,,,,,,,,,,,,,,,,,,,,4.48053,0.306467014,0.032291667,1,0,0,0.467,yes,MANURE,J,incorrect,6,0,6,0,1,,,,,,,,,,,,,,,,,,,,,,,,,,,,,,,,,,,,,,,,,
,,,,,,,,,,1568135,2020-10-23_17h47.27.229,swahili,2020.2.4,MacIntel,60,,,,,,,,,,,,,,,,,,,,,,,,,,,,,,,,,,,,,,,,,,,,,,2.04728,0.306467014,0.032291667,1,0,0,0.517525,yes,BULL,FAHILI,incorrect,7,0,7,0,1,,,,,,,,,,,,,,,,,,,,,,,,,,,,,,,,,,,,,,,,,
,,,,,,,,,,1568135,2020-10-23_17h47.27.229,swahili,2020.2.4,MacIntel,60,,,,,,,,,,,,,,,,,,,,,,,,,,,,,,,,,,,,,,,,,,,,,,5.832985,0.306467014,0.032291667,1,0,0,1.015845,yes,GRAPES,BABIZU,incorrect,8,0,8,0,1,,,,,,,,,,,,,,,,,,,,,,,,,,,,,,,,,,,,,,,,,
,,,,,,,,,,1568135,2020-10-23_17h47.27.229,swahili,2020.2.4,MacIntel,60,,,,,,,,,,,,,,,,,,,,,,,,,,,,,,,,,,,,,,,,,,,,,,7.53044,0.32718099,0.095703125,1,0,0,0.98363,yes,TAILOR,MSHOLI,incorrect,9,0,9,0,1,,,,,,,,,,,,,,,,,,,,,,,,,,,,,,,,,,,,,,,,,
,,,,,,,,,,1568135,2020-10-23_17h47.27.229,swahili,2020.2.4,MacIntel,60,,,,,,,,,,,,,,,,,,,,,,,,,,,,,,,,,,,,,,,,,,,,,,1.71413,0.32718099,0.095703125,1,0,0,0.616775,yes,YEAST,HAMIRA,incorrect,10,0,10,0,1,,,,,,,,,,,,,,,,,,,,,,,,,,,,,,,,,,,,,,,,,
,,,,,,,,,,1568135,2020-10-23_17h47.27.229,swahili,2020.2.4,MacIntel,60,,,,,,,,,,,,,,,,,,,,,,,,,,,,,,,,,,,,,,,,,,,,,,5.06568,0.32718099,0.095703125,1,0,0,0.548765,yes,PARROT,KAZUKU,incorrect,11,0,11,0,1,,,,,,,,,,,,,,,,,,,,,,,,,,,,,,,,,,,,,,,,,
,,,,,,,,,,1568135,2020-10-23_17h47.27.229,swahili,2020.2.4,MacIntel,60,,,,,,,,,,,,,,,,,,,,,,,,,,,,,,,,,,,,,,,,,,,,,,8.29973,0.32718099,0.095703125,1,0,0,0.63204,yes,MERCHANT,TAJARI,incorrect,12,0,12,0,1,,,,,,,,,,,,,,,,,,,,,,,,,,,,,,,,,,,,,,,,,
,,,,,,,,,,1568135,2020-10-23_17h47.27.229,swahili,2020.2.4,MacIntel,60,,,,,,,,,,,,,,,,,,,,,,,,,,,,,,,,,,,,,,,,0,0,0,0,1,,,,,,,,,,,,,,,,,,,,,,,,,,,,,,,,,,,,,,,,,,,,,,,,,,,,,,,,,,
,,,,,,,,,,1568135,2020-10-23_17h47.27.229,swahili,2020.2.4,MacIntel,60,,,,,,,,,,,,,,,,,,,,,,,,,,,,,,,,,,,,,,,,1,0,1,0,1,,,,,,,,,,,,,,,,,,,,,,,,,,,,,,,,,,,,,,,,,,,,,,,,,,,,,,,,,,
,,,,,,,,,,1568135,2020-10-23_17h47.27.229,swahili,2020.2.4,MacIntel,60,,,,,,,,,,,,,,,,,,,,,,,,,,,,,,,,,,,,,,,,,,,,,,,,,,,,,,,,,,,,,,5,0,5,0,1,,,,,,,,,,,,,,,,,,,,,,,,,,,,,,,,,,,,
,,,,,,,,,,1568135,2020-10-23_17h47.27.229,swahili,2020.2.4,MacIntel,60,,,,,,,,,,-0.195643446,-0.048211806,1,0,0,1.373515,unsorted_card,0,0,0,0,1,,,,,,,,,,,,,,,,,,,,,,,,,,,,,,,,,,,,,,,,,,,,,,,,,,,,,,,,,,,,,,,,,,,,,,,,,,,,,,,,,
,,,,,,,,,,1568135,2020-10-23_17h47.27.229,swahili,2020.2.4,MacIntel,60,,,,,,,,,,0.292692057,0.040243056,1,0,0,1.34831,test_pile,1,0,1,0,1,MERCHANT - TAJIRI,,,,,,,,,,,,,,,,,,,,,,,,,,,,,,,,,,,,,,,,,,,,,,,,,,,,,,,,,,,,,,,,,,,,,,,,,,,,,,,,
,,,,,,,,,,1568135,2020-10-23_17h47.27.229,swahili,2020.2.4,MacIntel,60,,,,,,,,,,-0.300472005,-0.019375,1,0,0,0.53218,unsorted_card,2,0,2,0,1,,,,,,,,,,,,,,,,,,,,,,,,,,,,,,,,,,,,,,,,,,,,,,,,,,,,,,,,,,,,,,,,,,,,,,,,,,,,,,,,,
,,,,,,,,,,1568135,2020-10-23_17h47.27.229,swahili,2020.2.4,MacIntel,60,,,,,,,,,,0.382373047,-0.027413194,1,0,0,1.25006,test_pile,3,0,3,0,1,PARROT - KASUKU,,,,,,,,,,,,,,,,,,,,,,,,,,,,,,,,,,,,,,,,,,,,,,,,,,,,,,,,,,,,,,,,,,,,,,,,,,,,,,,,
,,,,,,,,,,1568135,2020-10-23_17h47.27.229,swahili,2020.2.4,MacIntel,60,,,,,,,,,,-0.30640191,-0.103272569,1,0,0,0.615305,unsorted_card,4,0,4,0,1,,,,,,,,,,,,,,,,,,,,,,,,,,,,,,,,,,,,,,,,,,,,,,,,,,,,,,,,,,,,,,,,,,,,,,,,,,,,,,,,,
,,,,,,,,,,1568135,2020-10-23_17h47.27.229,swahili,2020.2.4,MacIntel,60,,,,,,,,,,0.377924262,-0.495833333,1,0,0,1.065055,done_pile,5,0,5,0,1,BULL - FAHILI,,,,,,,,,,,,,,,,,,,,,,,,,,,,,,,,,,,,,,,,,,,,,,,,,,,,,,,,,,,,,,,,,,,,,,,,,,,,,,,,
,,,,,,,,,,1568135,2020-10-23_17h47.27.229,swahili,2020.2.4,MacIntel,60,,,,,,,,,,-0.267995877,-0.130737847,1,0,0,0.53262,unsorted_card,6,0,6,0,1,,,,,,,,,,,,,,,,,,,,,,,,,,,,,,,,,,,,,,,,,,,,,,,,,,,,,,,,,,,,,,,,,,,,,,,,,,,,,,,,,
,,,,,,,,,,1568135,2020-10-23_17h47.27.229,swahili,2020.2.4,MacIntel,60,,,,,,,,,,0.38141276,-0.441631944,1,0,0,1.298975,done_pile,7,0,7,0,1,PLATE - SAHANI,,,,,,,,,,,,,,,,,,,,,,,,,,,,,,,,,,,,,,,,,,,,,,,,,,,,,,,,,,,,,,,,,,,,,,,,,,,,,,,,
,,,,,,,,,,1568135,2020-10-23_17h47.27.229,swahili,2020.2.4,MacIntel,60,,,,,,,,,,-0.192355686,-0.176006944,1,0,0,0.649045,unsorted_card,8,0,8,0,1,,,,,,,,,,,,,,,,,,,,,,,,,,,,,,,,,,,,,,,,,,,,,,,,,,,,,,,,,,,,,,,,,,,,,,,,,,,,,,,,,
,,,,,,,,,,1568135,2020-10-23_17h47.27.229,swahili,2020.2.4,MacIntel,60,,,,,,,,,,0.35616862,-0.472413194,1,0,0,2.047925,done_pile,9,0,9,0,1,YEAST - HAMIRA,,,,,,,,,,,,,,,,,,,,,,,,,,,,,,,,,,,,,,,,,,,,,,,,,,,,,,,,,,,,,,,,,,,,,,,,,,,,,,,,
,,,,,,,,,,1568135,2020-10-23_17h47.27.229,swahili,2020.2.4,MacIntel,60,,,,,,,,,,-0.386659071,0.006545139,1,0,0,0.45046,unsorted_card,10,0,10,0,1,,,,,,,,,,,,,,,,,,,,,,,,,,,,,,,,,,,,,,,,,,,,,,,,,,,,,,,,,,,,,,,,,,,,,,,,,,,,,,,,,
,,,,,,,,,,1568135,2020-10-23_17h47.27.229,swahili,2020.2.4,MacIntel,60,,,,,,,,,,0.401871745,-0.480963542,1,0,0,1.36543,done_pile,11,0,11,0,1,BLAME - LAWAMA,,,,,,,,,,,,,,,,,,,,,,,,,,,,,,,,,,,,,,,,,,,,,,,,,,,,,,,,,,,,,,,,,,,,,,,,,,,,,,,,
,,,,,,,,,,1568135,2020-10-23_17h47.27.229,swahili,2020.2.4,MacIntel,60,,,,,,,,,,-0.31188151,-0.048116319,1,0,0,0.466355,unsorted_card,12,0,12,0,1,,,,,,,,,,,,,,,,,,,,,,,,,,,,,,,,,,,,,,,,,,,,,,,,,,,,,,,,,,,,,,,,,,,,,,,,,,,,,,,,,
,,,,,,,,,,1568135,2020-10-23_17h47.27.229,swahili,2020.2.4,MacIntel,60,,,,,,,,,,0.477435981,-0.009322917,1,0,0,5.698105,test_pile,13,0,13,0,1,TAILOR - MSHONI,,,,,,,,,,,,,,,,,,,,,,,,,,,,,,,,,,,,,,,,,,,,,,,,,,,,,,,,,,,,,,,,,,,,,,,,,,,,,,,,
,,,,,,,,,,1568135,2020-10-23_17h47.27.229,swahili,2020.2.4,MacIntel,60,,,,,,,,,,-0.23617079,-0.011319444,1,0,0,0.532705,unsorted_card,14,0,14,0,1,,,,,,,,,,,,,,,,,,,,,,,,,,,,,,,,,,,,,,,,,,,,,,,,,,,,,,,,,,,,,,,,,,,,,,,,,,,,,,,,,
,,,,,,,,,,1568135,2020-10-23_17h47.27.229,swahili,2020.2.4,MacIntel,60,,,,,,,,,,0.428504774,0.013272569,1,0,0,1.23199,test_pile,15,0,15,0,1,GRAPES - ZABIBU,,,,,,,,,,,,,,,,,,,,,,,,,,,,,,,,,,,,,,,,,,,,,,,,,,,,,,,,,,,,,,,,,,,,,,,,,,,,,,,,
,,,,,,,,,,1568135,2020-10-23_17h47.27.229,swahili,2020.2.4,MacIntel,60,,,,,,,,,,-0.233349609,0.013819444,1,0,0,0.416595,unsorted_card,16,0,16,0,1,,,,,,,,,,,,,,,,,,,,,,,,,,,,,,,,,,,,,,,,,,,,,,,,,,,,,,,,,,,,,,,,,,,,,,,,,,,,,,,,,
,,,,,,,,,,1568135,2020-10-23_17h47.27.229,swahili,2020.2.4,MacIntel,60,,,,,,,,,,0.393581814,-0.010729167,1,0,0,1.915065,test_pile,17,0,17,0,1,GRAVE - KABURI,,,,,,,,,,,,,,,,,,,,,,,,,,,,,,,,,,,,,,,,,,,,,,,,,,,,,,,,,,,,,,,,,,,,,,,,,,,,,,,,
,,,,,,,,,,1568135,2020-10-23_17h47.27.229,swahili,2020.2.4,MacIntel,60,,,,,,,,,,-0.286653646,-0.011388889,1,0,0,0.5329,unsorted_card,18,0,18,0,1,,,,,,,,,,,,,,,,,,,,,,,,,,,,,,,,,,,,,,,,,,,,,,,,,,,,,,,,,,,,,,,,,,,,,,,,,,,,,,,,,
,,,,,,,,,,1568135,2020-10-23_17h47.27.229,swahili,2020.2.4,MacIntel,60,,,,,,,,,,0.44444987,-0.083515625,1,0,0,1.366335,test_pile,19,0,19,0,1,MANURE - SAMADI,,,,,,,,,,,,,,,,,,,,,,,,,,,,,,,,,,,,,,,,,,,,,,,,,,,,,,,,,,,,,,,,,,,,,,,,,,,,,,,,
,,,,,,,,,,1568135,2020-10-23_17h47.27.229,swahili,2020.2.4,MacIntel,60,,,,,,,,,,-0.19054362,-0.056857639,1,0,0,0.780595,unsorted_card,20,0,20,0,1,,,,,,,,,,,,,,,,,,,,,,,,,,,,,,,,,,,,,,,,,,,,,,,,,,,,,,,,,,,,,,,,,,,,,,,,,,,,,,,,,
,,,,,,,,,,1568135,2020-10-23_17h47.27.229,swahili,2020.2.4,MacIntel,60,,,,,,,,,,0.459847005,0.034348958,1,0,0,1.09968,test_pile,21,0,21,0,1,AGENT - WAKILI,,,,,,,,,,,,,,,,,,,,,,,,,,,,,,,,,,,,,,,,,,,,,,,,,,,,,,,,,,,,,,,,,,,,,,,,,,,,,,,,
,,,,,,,,,,1568135,2020-10-23_17h47.27.229,swahili,2020.2.4,MacIntel,60,,,,,,,,,,-0.156846788,-0.068315972,1,0,0,0.48226,unsorted_card,22,0,22,0,1,,,,,,,,,,,,,,,,,,,,,,,,,,,,,,,,,,,,,,,,,,,,,,,,,,,,,,,,,,,,,,,,,,,,,,,,,,,,,,,,,
,,,,,,,,,,1568135,2020-10-23_17h47.27.229,swahili,2020.2.4,MacIntel,60,,,,,,,,,,0.468196615,-0.015659722,1,0,0,0.96624,test_pile,23,0,23,0,1,BOAT - MASHUA,,,,,,,,,,,,,,,,,,,,,,,,,,,,,,,,,,,,,,,,,,,,,,,,,,,,,,,,,,,,,,,,,,,,,,,,,,,,,,,,
,,,,,,,,,,1568135,2020-10-23_17h47.27.229,swahili,2020.2.4,MacIntel,60,,,,,,,,,,-0.246050347,-0.040642361,1,0,0,0.51713,unsorted_card,24,0,24,0,1,,,,,,,,,,,,,,,,,,,,,,,,,,,,,,,,,,,,,,,,,,,,,,,,,,,,,,,,,,,,,,,,,,,,,,,,,,,,,,,,,
,,,,,,,,,,1568135,2020-10-23_17h47.27.229,swahili,2020.2.4,MacIntel,60,,,,,,,,,,0.427153863,-0.494887153,1,0,0,1.24841,done_pile,25,0,25,0,1,TREASURE - DAFINA,,,,,,,,,,,,,,,,,,,,,,,,,,,,,,,,,,,,,,,,,,,,,,,,,,,,,,,,,,,,,,,,,,,,,,,,,,,,,,,,
,,,,,,,,,,1568135,2020-10-23_17h47.27.229,swahili,2020.2.4,MacIntel,60,,,,,,,,,,,,,,,,,,,,,,,,,,,,,,,,,,0,0,0,0,1,,,,,,,,,,,,,,,,,,,,,,,,,,,,,,,,,,,,,,,,,,,,,,,,,,,,,,,,,,,,,,,,
,,,,,,,,,,1568135,2020-10-23_17h47.27.229,swahili,2020.2.4,MacIntel,60,,,,,,,,,,,,,,,,,,,,,,,,,,,,,,,,,,,,,,,return,,,,,,1.612695,2.38082,0.32484809,0.014192708,1,0,0,0.79981,yes,BOAT,MASHUA,incorrect,0,0,0,0,1,,,,,,,,,,,,,,,,,,,,,,,,,,,,,,,,,,,,,,,,,
,,,,,,,,,,1568135,2020-10-23_17h47.27.229,swahili,2020.2.4,MacIntel,60,,,,,,,,,,,,,,,,,,,,,,,,,,,,,,,,,,,,,,,,,,,,,,3.13221,0.324517144,0.020286458,1,0,0,0.46603,yes,GRAVE,KABURI,incorrect,1,0,1,0,1,,,,,,,,,,,,,,,,,,,,,,,,,,,,,,,,,,,,,,,,,
,,,,,,,,,,1568135,2020-10-23_17h47.27.229,swahili,2020.2.4,MacIntel,60,,,,,,,,,,,,,,,,,,,,,,,,,,,,,,,,,,,,,,,,,,,,,,10.962845,0.324517144,0.020286458,1,0,0,0.60061,yes,PARROT,KASUKI,incorrect,2,0,2,0,1,,,,,,,,,,,,,,,,,,,,,,,,,,,,,,,,,,,,,,,,,
,,,,,,,,,,1568135,2020-10-23_17h47.27.229,swahili,2020.2.4,MacIntel,60,,,,,,,,,,,,,,,,,,,,,,,,,,,,,,,,,,,,,,,,,,,,,,4.29892,0.324517144,0.020286458,1,0,0,0.54892,yes,TAILOR,MSHONI,incorrect,3,0,3,0,1,,,,,,,,,,,,,,,,,,,,,,,,,,,,,,,,,,,,,,,,,
,,,,,,,,,,1568135,2020-10-23_17h47.27.229,swahili,2020.2.4,MacIntel,60,,,,,,,,,,,,,,,,,,,,,,,,,,,,,,,,,,,,,,,,,,,,,,3.598345,0.37797309,-0.023220486,1,0,0,4.116105,yes,GRAPES,ZABIBU,incorrect,4,0,4,0,1,,,,,,,,,,,,,,,,,,,,,,,,,,,,,,,,,,,,,,,,,
,,,,,,,,,,1568135,2020-10-23_17h47.27.229,swahili,2020.2.4,MacIntel,60,,,,,,,,,,,,,,,,,,,,,,,,,,,,,,,,,,,,,,,,,,,,,,8.198135,0.30531684,0.039704861,1,0,0,1.18356,yes,MANURE,SABILI,incorrect,5,0,5,0,1,,,,,,,,,,,,,,,,,,,,,,,,,,,,,,,,,,,,,,,,,
,,,,,,,,,,1568135,2020-10-23_17h47.27.229,swahili,2020.2.4,MacIntel,60,,,,,,,,,,,,,,,,,,,,,,,,,,,,,,,,,,,,,,,,,,,,,,9.96347,0.305848524,0.058515625,1,0,0,0.566735,yes,MERCHANT,TAJIRI,incorrect,6,0,6,0,1,,,,,,,,,,,,,,,,,,,,,,,,,,,,,,,,,,,,,,,,,
,,,,,,,,,,1568135,2020-10-23_17h47.27.229,swahili,2020.2.4,MacIntel,60,,,,,,,,,,,,,,,,,,,,,,,,,,,,,,,,,,,,,,,,,,,,,,4.6134,0.305848524,0.058515625,1,0,0,0.434885,yes,AGENT,WAKILI,incorrect,7,0,7,0,1,,,,,,,,,,,,,,,,,,,,,,,,,,,,,,,,,,,,,,,,,
,,,,,,,,,,1568135,2020-10-23_17h47.27.229,swahili,2020.2.4,MacIntel,60,,,,,,,,,,,,,,,,,,,,,,,,,,,,,,,,,,,,,,,,0,0,0,0,1,,,,,,,,,,,,,,,,,,,,,,,,,,,,,,,,,,,,,,,,,,,,,,,,,,,,,,,,,,
,,,,,,,,,,1568135,2020-10-23_17h47.27.229,swahili,2020.2.4,MacIntel,60,,,,,,,,,,,,,,,,,,,,,,,,,,,,,,,,,,,,,,,,1,0,1,0,1,,,,,,,,,,,,,,,,,,,,,,,,,,,,,,,,,,,,,,,,,,,,,,,,,,,,,,,,,,
,,,,,,,,,,1568135,2020-10-23_17h47.27.229,swahili,2020.2.4,MacIntel,60,,,,,,,,,,,,,,,,,,,,,,,,,,,,,,,,,,,,,,,,,,,,,,,,,,,,,,,,,,,,,,6,0,6,0,1,,,,,,,,,,,,,,,,,,,,,,,,,,,,,,,,,,,,
,,,,,,,,,,1568135,2020-10-23_17h47.27.229,swahili,2020.2.4,MacIntel,60,,,,,,,,,,-0.005902778,0.054869792,1,0,0,1.4007,unsorted_card,0,0,0,0,1,,,,,,,,,,,,,,,,,,,,,,,,,,,,,,,,,,,,,,,,,,,,,,,,,,,,,,,,,,,,,,,,,,,,,,,,,,,,,,,,,
,,,,,,,,,,1568135,2020-10-23_17h47.27.229,swahili,2020.2.4,MacIntel,60,,,,,,,,,,0.480219184,-0.073298611,1,0,0,4.06608,test_pile,1,0,1,0,1,MERCHANT - TAJIRI,,,,,,,,,,,,,,,,,,,,,,,,,,,,,,,,,,,,,,,,,,,,,,,,,,,,,,,,,,,,,,,,,,,,,,,,,,,,,,,,
,,,,,,,,,,1568135,2020-10-23_17h47.27.229,swahili,2020.2.4,MacIntel,60,,,,,,,,,,-0.198605686,-0.070598958,1,0,0,0.548155,unsorted_card,2,0,2,0,1,,,,,,,,,,,,,,,,,,,,,,,,,,,,,,,,,,,,,,,,,,,,,,,,,,,,,,,,,,,,,,,,,,,,,,,,,,,,,,,,,
,,,,,,,,,,1568135,2020-10-23_17h47.27.229,swahili,2020.2.4,MacIntel,60,,,,,,,,,,0.411962891,-0.016883681,1,0,0,2.648135,test_pile,3,0,3,0,1,PARROT - KASUKU,,,,,,,,,,,,,,,,,,,,,,,,,,,,,,,,,,,,,,,,,,,,,,,,,,,,,,,,,,,,,,,,,,,,,,,,,,,,,,,,
,,,,,,,,,,1568135,2020-10-23_17h47.27.229,swahili,2020.2.4,MacIntel,60,,,,,,,,,,-0.291699219,-0.081744792,1,0,0,0.449515,unsorted_card,4,0,4,0,1,,,,,,,,,,,,,,,,,,,,,,,,,,,,,,,,,,,,,,,,,,,,,,,,,,,,,,,,,,,,,,,,,,,,,,,,,,,,,,,,,
,,,,,,,,,,1568135,2020-10-23_17h47.27.229,swahili,2020.2.4,MacIntel,60,,,,,,,,,,0.457340495,-0.559097222,1,0,0,1.499125,done_pile,5,0,5,0,1,TAILOR - MSHONI,,,,,,,,,,,,,,,,,,,,,,,,,,,,,,,,,,,,,,,,,,,,,,,,,,,,,,,,,,,,,,,,,,,,,,,,,,,,,,,,
,,,,,,,,,,1568135,2020-10-23_17h47.27.229,swahili,2020.2.4,MacIntel,60,,,,,,,,,,-0.272227648,-0.184539931,1,0,0,0.49779,unsorted_card,6,0,6,0,1,,,,,,,,,,,,,,,,,,,,,,,,,,,,,,,,,,,,,,,,,,,,,,,,,,,,,,,,,,,,,,,,,,,,,,,,,,,,,,,,,
