condition,consent_key.keys,consent_key.rt,done_with_instructions.keys,done_with_instructions.rt,instr_loop.thisRepN,instr_loop.thisTrialN,instr_loop.thisN,instr_loop.thisIndex,instr_loop.ran,Student ID #,date,expName,psychopyVersion,OS,frameRate,instr_learning_key.keys,instr_learning_key.rt,card_gen_loop.thisRepN,card_gen_loop.thisTrialN,card_gen_loop.thisN,card_gen_loop.thisIndex,card_gen_loop.ran,swa,eng,choose_pile.x,choose_pile.y,choose_pile.leftButton,choose_pile.midButton,choose_pile.rightButton,choose_pile.time,choose_pile.clicked_name,choices.thisRepN,choices.thisTrialN,choices.thisN,choices.thisIndex,choices.ran,card_to_show,mouse_pick.x,mouse_pick.y,mouse_pick.leftButton,mouse_pick.midButton,mouse_pick.rightButton,mouse_pick.time,mouse_pick.clicked_name,key_instr_study.keys,key_instr_study.rt,next_study.keys,next_study.rt,study_loop.thisRepN,study_loop.thisTrialN,study_loop.thisN,study_loop.thisIndex,study_loop.ran,key_instr_test.keys,learn_loop.thisRepN,learn_loop.thisTrialN,learn_loop.thisN,learn_loop.thisIndex,learn_loop.ran,trials.thisRepN,trials.thisTrialN,trials.thisN,trials.thisIndex,trials.ran,key_instr_test.rt,duration,yes_or_no.x,yes_or_no.y,yes_or_no.leftButton,yes_or_no.midButton,yes_or_no.rightButton,yes_or_no.time,yes_or_no.clicked_name,test_response.stim,test_response.resp,test_response.eval,test_loop.thisRepN,test_loop.thisTrialN,test_loop.thisN,test_loop.thisIndex,test_loop.ran,instr_movie_key.keys,instr_movie_key.rt,return_to_exp.keys,return_to_exp.rt,instr_assess_key.keys,instr_assess_key.rt,assess_loop.thisRepN,assess_loop.thisTrialN,assess_loop.thisN,assess_loop.thisIndex,assess_loop.ran,ans_gen_loop.thisRepN,ans_gen_loop.thisTrialN,ans_gen_loop.thisN,ans_gen_loop.thisIndex,ans_gen_loop.ran,sen,ans,instr_transfer_key.keys,instr_transfer_key.rt,transfer_response.resp,transfer_response.eval,select_word.x,select_word.y,select_word.leftButton,select_word.midButton,select_word.rightButton,select_word.time,select_word.clicked_name,transfers.thisRepN,transfers.thisTrialN,transfers.thisN,transfers.thisIndex,transfers.ran,end_experiment.keys,end_experiment.rt
1,return,12.632015,return,45.11577,0,0,0,0,1,Esha,2020-10-12_21h43.12.886,swahili,2020.2.4,Win32,60,,,,,,,,,,,,,,,,,,,,,,,,,,,,,,,,,,,,,,,,,,,,,,,,,,,,,,,,,,,,,,,,,,,,,,,,,,,,,,,,,,,,,,,,,,,,,,,,,,,,,,
,,,,,,,,,,Esha,2020-10-12_21h43.12.886,swahili,2020.2.4,Win32,60,return,22.00154,0,0,0,0,1,TAJIRI,MERCHANT,,,,,,,,,,,,,,,,,,,,,,,,,,,,,,,,,,,,,,,,,,,,,,,,,,,,,,,,,,,,,,,,,,,,,,,,,,,,,,,,,,,,,,,,,,,,,
,,,,,,,,,,Esha,2020-10-12_21h43.12.886,swahili,2020.2.4,Win32,60,,,0,1,1,1,1,KASUKU,PARROT,,,,,,,,,,,,,,,,,,,,,,,,,,,,,,,,,,,,,,,,,,,,,,,,,,,,,,,,,,,,,,,,,,,,,,,,,,,,,,,,,,,,,,,,,,,,,
,,,,,,,,,,Esha,2020-10-12_21h43.12.886,swahili,2020.2.4,Win32,60,,,0,2,2,2,1,FAHILI,BULL,,,,,,,,,,,,,,,,,,,,,,,,,,,,,,,,,,,,,,,,,,,,,,,,,,,,,,,,,,,,,,,,,,,,,,,,,,,,,,,,,,,,,,,,,,,,,
,,,,,,,,,,Esha,2020-10-12_21h43.12.886,swahili,2020.2.4,Win32,60,,,0,3,3,3,1,SAHANI,PLATE,,,,,,,,,,,,,,,,,,,,,,,,,,,,,,,,,,,,,,,,,,,,,,,,,,,,,,,,,,,,,,,,,,,,,,,,,,,,,,,,,,,,,,,,,,,,,
,,,,,,,,,,Esha,2020-10-12_21h43.12.886,swahili,2020.2.4,Win32,60,,,0,4,4,4,1,HAMIRA,YEAST,,,,,,,,,,,,,,,,,,,,,,,,,,,,,,,,,,,,,,,,,,,,,,,,,,,,,,,,,,,,,,,,,,,,,,,,,,,,,,,,,,,,,,,,,,,,,
,,,,,,,,,,Esha,2020-10-12_21h43.12.886,swahili,2020.2.4,Win32,60,,,0,5,5,5,1,LAWAMA,BLAME,,,,,,,,,,,,,,,,,,,,,,,,,,,,,,,,,,,,,,,,,,,,,,,,,,,,,,,,,,,,,,,,,,,,,,,,,,,,,,,,,,,,,,,,,,,,,
,,,,,,,,,,Esha,2020-10-12_21h43.12.886,swahili,2020.2.4,Win32,60,,,0,6,6,6,1,YAMINI,OATH,,,,,,,,,,,,,,,,,,,,,,,,,,,,,,,,,,,,,,,,,,,,,,,,,,,,,,,,,,,,,,,,,,,,,,,,,,,,,,,,,,,,,,,,,,,,,
,,,,,,,,,,Esha,2020-10-12_21h43.12.886,swahili,2020.2.4,Win32,60,,,0,7,7,7,1,NAFAKA,CORN,,,,,,,,,,,,,,,,,,,,,,,,,,,,,,,,,,,,,,,,,,,,,,,,,,,,,,,,,,,,,,,,,,,,,,,,,,,,,,,,,,,,,,,,,,,,,
,,,,,,,,,,Esha,2020-10-12_21h43.12.886,swahili,2020.2.4,Win32,60,,,0,8,8,8,1,UTENZI,POEM,,,,,,,,,,,,,,,,,,,,,,,,,,,,,,,,,,,,,,,,,,,,,,,,,,,,,,,,,,,,,,,,,,,,,,,,,,,,,,,,,,,,,,,,,,,,,
,,,,,,,,,,Esha,2020-10-12_21h43.12.886,swahili,2020.2.4,Win32,60,,,0,9,9,9,1,MSHONI,TAILOR,,,,,,,,,,,,,,,,,,,,,,,,,,,,,,,,,,,,,,,,,,,,,,,,,,,,,,,,,,,,,,,,,,,,,,,,,,,,,,,,,,,,,,,,,,,,,
,,,,,,,,,,Esha,2020-10-12_21h43.12.886,swahili,2020.2.4,Win32,60,,,0,10,10,10,1,JIBINI,CHEESE,,,,,,,,,,,,,,,,,,,,,,,,,,,,,,,,,,,,,,,,,,,,,,,,,,,,,,,,,,,,,,,,,,,,,,,,,,,,,,,,,,,,,,,,,,,,,
,,,,,,,,,,Esha,2020-10-12_21h43.12.886,swahili,2020.2.4,Win32,60,,,0,11,11,11,1,ZABIBU,GRAPES,,,,,,,,,,,,,,,,,,,,,,,,,,,,,,,,,,,,,,,,,,,,,,,,,,,,,,,,,,,,,,,,,,,,,,,,,,,,,,,,,,,,,,,,,,,,,
,,,,,,,,,,Esha,2020-10-12_21h43.12.886,swahili,2020.2.4,Win32,60,,,0,12,12,12,1,KABURI,GRAVE,,,,,,,,,,,,,,,,,,,,,,,,,,,,,,,,,,,,,,,,,,,,,,,,,,,,,,,,,,,,,,,,,,,,,,,,,,,,,,,,,,,,,,,,,,,,,
,,,,,,,,,,Esha,2020-10-12_21h43.12.886,swahili,2020.2.4,Win32,60,,,0,13,13,13,1,SAMADI,MANURE,,,,,,,,,,,,,,,,,,,,,,,,,,,,,,,,,,,,,,,,,,,,,,,,,,,,,,,,,,,,,,,,,,,,,,,,,,,,,,,,,,,,,,,,,,,,,
,,,,,,,,,,Esha,2020-10-12_21h43.12.886,swahili,2020.2.4,Win32,60,,,0,14,14,14,1,WAKILI,AGENT,,,,,,,,,,,,,,,,,,,,,,,,,,,,,,,,,,,,,,,,,,,,,,,,,,,,,,,,,,,,,,,,,,,,,,,,,,,,,,,,,,,,,,,,,,,,,
,,,,,,,,,,Esha,2020-10-12_21h43.12.886,swahili,2020.2.4,Win32,60,,,0,15,15,15,1,RUSHWA,BRIBE,,,,,,,,,,,,,,,,,,,,,,,,,,,,,,,,,,,,,,,,,,,,,,,,,,,,,,,,,,,,,,,,,,,,,,,,,,,,,,,,,,,,,,,,,,,,,
,,,,,,,,,,Esha,2020-10-12_21h43.12.886,swahili,2020.2.4,Win32,60,,,0,16,16,16,1,YATIMA,ORPHAN,,,,,,,,,,,,,,,,,,,,,,,,,,,,,,,,,,,,,,,,,,,,,,,,,,,,,,,,,,,,,,,,,,,,,,,,,,,,,,,,,,,,,,,,,,,,,
,,,,,,,,,,Esha,2020-10-12_21h43.12.886,swahili,2020.2.4,Win32,60,,,0,17,17,17,1,TALAKA,DIVORCE,,,,,,,,,,,,,,,,,,,,,,,,,,,,,,,,,,,,,,,,,,,,,,,,,,,,,,,,,,,,,,,,,,,,,,,,,,,,,,,,,,,,,,,,,,,,,
,,,,,,,,,,Esha,2020-10-12_21h43.12.886,swahili,2020.2.4,Win32,60,,,0,18,18,18,1,MASHUA,BOAT,,,,,,,,,,,,,,,,,,,,,,,,,,,,,,,,,,,,,,,,,,,,,,,,,,,,,,,,,,,,,,,,,,,,,,,,,,,,,,,,,,,,,,,,,,,,,
,,,,,,,,,,Esha,2020-10-12_21h43.12.886,swahili,2020.2.4,Win32,60,,,0,19,19,19,1,DAFINA,TREASURE,,,,,,,,,,,,,,,,,,,,,,,,,,,,,,,,,,,,,,,,,,,,,,,,,,,,,,,,,,,,,,,,,,,,,,,,,,,,,,,,,,,,,,,,,,,,,
,,,,,,,,,,Esha,2020-10-12_21h43.12.886,swahili,2020.2.4,Win32,60,,,,,,,,,,-0.265104156,-0.075000016,1,0,0,17.114265,unsorted_card,0,0,0,0,1,,,,,,,,,,,,,,,,,,,,,,,,,,,,,,,,,,,,,,,,,,,,,,,,,,,,,,,,,,,,,,,,,,,,,,,,,,,,,,,,,
,,,,,,,,,,Esha,2020-10-12_21h43.12.886,swahili,2020.2.4,Win32,60,,,,,,,,,,0.35000002,0.424999991,1,0,0,10.071115,study_pile,1,0,1,0,1,MERCHANT - TAJIRI,,,,,,,,,,,,,,,,,,,,,,,,,,,,,,,,,,,,,,,,,,,,,,,,,,,,,,,,,,,,,,,,,,,,,,,,,,,,,,,,
,,,,,,,,,,Esha,2020-10-12_21h43.12.886,swahili,2020.2.4,Win32,60,,,,,,,,,,-0.52447916,0.079629616,1,0,0,2.789255,unsorted_card,2,0,2,0,1,,,,,,,,,,,,,,,,,,,,,,,,,,,,,,,,,,,,,,,,,,,,,,,,,,,,,,,,,,,,,,,,,,,,,,,,,,,,,,,,,
,,,,,,,,,,Esha,2020-10-12_21h43.12.886,swahili,2020.2.4,Win32,60,,,,,,,,,,0.509895856,0.455555547,1,0,0,8.46986,study_pile,3,0,3,0,1,PARROT - KASUKU,,,,,,,,,,,,,,,,,,,,,,,,,,,,,,,,,,,,,,,,,,,,,,,,,,,,,,,,,,,,,,,,,,,,,,,,,,,,,,,,
,,,,,,,,,,Esha,2020-10-12_21h43.12.886,swahili,2020.2.4,Win32,60,,,,,,,,,,-0.322916657,-0.000925941,1,0,0,1.325735,unsorted_card,4,0,4,0,1,,,,,,,,,,,,,,,,,,,,,,,,,,,,,,,,,,,,,,,,,,,,,,,,,,,,,,,,,,,,,,,,,,,,,,,,,,,,,,,,,
,,,,,,,,,,Esha,2020-10-12_21h43.12.886,swahili,2020.2.4,Win32,60,,,,,,,,,,0.441666815,0.435185177,1,0,0,4.44478,study_pile,5,0,5,0,1,BULL - FAHILI,,,,,,,,,,,,,,,,,,,,,,,,,,,,,,,,,,,,,,,,,,,,,,,,,,,,,,,,,,,,,,,,,,,,,,,,,,,,,,,,
,,,,,,,,,,Esha,2020-10-12_21h43.12.886,swahili,2020.2.4,Win32,60,,,,,,,,,,-0.398958324,-0.094444461,1,0,0,1.02717,unsorted_card,6,0,6,0,1,,,,,,,,,,,,,,,,,,,,,,,,,,,,,,,,,,,,,,,,,,,,,,,,,,,,,,,,,,,,,,,,,,,,,,,,,,,,,,,,,
,,,,,,,,,,Esha,2020-10-12_21h43.12.886,swahili,2020.2.4,Win32,60,,,,,,,,,,0.368750148,0.5074074,1,0,0,5.463955,study_pile,7,0,7,0,1,PLATE - SAHANI,,,,,,,,,,,,,,,,,,,,,,,,,,,,,,,,,,,,,,,,,,,,,,,,,,,,,,,,,,,,,,,,,,,,,,,,,,,,,,,,
,,,,,,,,,,Esha,2020-10-12_21h43.12.886,swahili,2020.2.4,Win32,60,,,,,,,,,,-0.352604157,0.116666654,1,0,0,2.276365,unsorted_card,8,0,8,0,1,,,,,,,,,,,,,,,,,,,,,,,,,,,,,,,,,,,,,,,,,,,,,,,,,,,,,,,,,,,,,,,,,,,,,,,,,,,,,,,,,
,,,,,,,,,,Esha,2020-10-12_21h43.12.886,swahili,2020.2.4,Win32,60,,,,,,,,,,0.391666687,0.485185178,1,0,0,3.648985,study_pile,9,0,9,0,1,YEAST - HAMIRA,,,,,,,,,,,,,,,,,,,,,,,,,,,,,,,,,,,,,,,,,,,,,,,,,,,,,,,,,,,,,,,,,,,,,,,,,,,,,,,,
,,,,,,,,,,Esha,2020-10-12_21h43.12.886,swahili,2020.2.4,Win32,60,,,,,,,,,,-0.506770794,-0.187037055,1,0,0,1.660035,unsorted_card,10,0,10,0,1,,,,,,,,,,,,,,,,,,,,,,,,,,,,,,,,,,,,,,,,,,,,,,,,,,,,,,,,,,,,,,,,,,,,,,,,,,,,,,,,,
,,,,,,,,,,Esha,2020-10-12_21h43.12.886,swahili,2020.2.4,Win32,60,,,,,,,,,,0.394791815,0.417592584,1,0,0,4.829265,study_pile,11,0,11,0,1,BLAME - LAWAMA,,,,,,,,,,,,,,,,,,,,,,,,,,,,,,,,,,,,,,,,,,,,,,,,,,,,,,,,,,,,,,,,,,,,,,,,,,,,,,,,
,,,,,,,,,,Esha,2020-10-12_21h43.12.886,swahili,2020.2.4,Win32,60,,,,,,,,,,-0.352604157,-0.057407423,1,0,0,1.34533,unsorted_card,12,0,12,0,1,,,,,,,,,,,,,,,,,,,,,,,,,,,,,,,,,,,,,,,,,,,,,,,,,,,,,,,,,,,,,,,,,,,,,,,,,,,,,,,,,
,,,,,,,,,,Esha,2020-10-12_21h43.12.886,swahili,2020.2.4,Win32,60,,,,,,,,,,0.404687521,0.527777771,1,0,0,2.04657,study_pile,13,0,13,0,1,OATH - YAMINI,,,,,,,,,,,,,,,,,,,,,,,,,,,,,,,,,,,,,,,,,,,,,,,,,,,,,,,,,,,,,,,,,,,,,,,,,,,,,,,,
,,,,,,,,,,Esha,2020-10-12_21h43.12.886,swahili,2020.2.4,Win32,60,,,,,,,,,,-0.514583294,-0.18888902,1,0,0,1.47996,unsorted_card,14,0,14,0,1,,,,,,,,,,,,,,,,,,,,,,,,,,,,,,,,,,,,,,,,,,,,,,,,,,,,,,,,,,,,,,,,,,,,,,,,,,,,,,,,,
,,,,,,,,,,Esha,2020-10-12_21h43.12.886,swahili,2020.2.4,Win32,60,,,,,,,,,,0.317708353,0.458333325,1,0,0,2.631185,study_pile,15,0,15,0,1,CORN - NAFAKA,,,,,,,,,,,,,,,,,,,,,,,,,,,,,,,,,,,,,,,,,,,,,,,,,,,,,,,,,,,,,,,,,,,,,,,,,,,,,,,,
,,,,,,,,,,Esha,2020-10-12_21h43.12.886,swahili,2020.2.4,Win32,60,,,,,,,,,,-0.442708325,-0.177777795,1,0,0,1.44555,unsorted_card,16,0,16,0,1,,,,,,,,,,,,,,,,,,,,,,,,,,,,,,,,,,,,,,,,,,,,,,,,,,,,,,,,,,,,,,,,,,,,,,,,,,,,,,,,,
,,,,,,,,,,Esha,2020-10-12_21h43.12.886,swahili,2020.2.4,Win32,60,,,,,,,,,,0.376562648,0.458333325,1,0,0,1.8969,study_pile,17,0,17,0,1,POEM - UTENZI,,,,,,,,,,,,,,,,,,,,,,,,,,,,,,,,,,,,,,,,,,,,,,,,,,,,,,,,,,,,,,,,,,,,,,,,,,,,,,,,
,,,,,,,,,,Esha,2020-10-12_21h43.12.886,swahili,2020.2.4,Win32,60,,,,,,,,,,-0.656249995,0.076851782,1,0,0,1.00749,unsorted_card,18,0,18,0,1,,,,,,,,,,,,,,,,,,,,,,,,,,,,,,,,,,,,,,,,,,,,,,,,,,,,,,,,,,,,,,,,,,,,,,,,,,,,,,,,,
,,,,,,,,,,Esha,2020-10-12_21h43.12.886,swahili,2020.2.4,Win32,60,,,,,,,,,,0.377604187,0.551851845,1,0,0,3.846955,study_pile,19,0,19,0,1,TAILOR - MSHONI,,,,,,,,,,,,,,,,,,,,,,,,,,,,,,,,,,,,,,,,,,,,,,,,,,,,,,,,,,,,,,,,,,,,,,,,,,,,,,,,
,,,,,,,,,,Esha,2020-10-12_21h43.12.886,swahili,2020.2.4,Win32,60,,,,,,,,,,-0.414062491,0.140740728,1,0,0,1.078815,unsorted_card,20,0,20,0,1,,,,,,,,,,,,,,,,,,,,,,,,,,,,,,,,,,,,,,,,,,,,,,,,,,,,,,,,,,,,,,,,,,,,,,,,,,,,,,,,,
,,,,,,,,,,Esha,2020-10-12_21h43.12.886,swahili,2020.2.4,Win32,60,,,,,,,,,,0.358333481,0.539814808,1,0,0,2.06336,study_pile,21,0,21,0,1,CHEESE - JIBINI,,,,,,,,,,,,,,,,,,,,,,,,,,,,,,,,,,,,,,,,,,,,,,,,,,,,,,,,,,,,,,,,,,,,,,,,,,,,,,,,
,,,,,,,,,,Esha,2020-10-12_21h43.12.886,swahili,2020.2.4,Win32,60,,,,,,,,,,-0.354166657,0.115740728,1,0,0,1.129,unsorted_card,22,0,22,0,1,,,,,,,,,,,,,,,,,,,,,,,,,,,,,,,,,,,,,,,,,,,,,,,,,,,,,,,,,,,,,,,,,,,,,,,,,,,,,,,,,
,,,,,,,,,,Esha,2020-10-12_21h43.12.886,swahili,2020.2.4,Win32,60,,,,,,,,,,0.359895854,0.506481474,1,0,0,2.38187,study_pile,23,0,23,0,1,GRAPES - ZABIBU,,,,,,,,,,,,,,,,,,,,,,,,,,,,,,,,,,,,,,,,,,,,,,,,,,,,,,,,,,,,,,,,,,,,,,,,,,,,,,,,
,,,,,,,,,,Esha,2020-10-12_21h43.12.886,swahili,2020.2.4,Win32,60,,,,,,,,,,-0.574999994,0.079629616,1,0,0,1.43275,unsorted_card,24,0,24,0,1,,,,,,,,,,,,,,,,,,,,,,,,,,,,,,,,,,,,,,,,,,,,,,,,,,,,,,,,,,,,,,,,,,,,,,,,,,,,,,,,,
,,,,,,,,,,Esha,2020-10-12_21h43.12.886,swahili,2020.2.4,Win32,60,,,,,,,,,,0.376562648,0.493518511,1,0,0,2.777225,study_pile,25,0,25,0,1,GRAVE - KABURI,,,,,,,,,,,,,,,,,,,,,,,,,,,,,,,,,,,,,,,,,,,,,,,,,,,,,,,,,,,,,,,,,,,,,,,,,,,,,,,,
,,,,,,,,,,Esha,2020-10-12_21h43.12.886,swahili,2020.2.4,Win32,60,,,,,,,,,,-0.604166661,-0.062962979,1,0,0,1.048245,unsorted_card,26,0,26,0,1,,,,,,,,,,,,,,,,,,,,,,,,,,,,,,,,,,,,,,,,,,,,,,,,,,,,,,,,,,,,,,,,,,,,,,,,,,,,,,,,,
,,,,,,,,,,Esha,2020-10-12_21h43.12.886,swahili,2020.2.4,Win32,60,,,,,,,,,,0.566666817,0.616666661,1,0,0,2.6492,study_pile,27,0,27,0,1,MANURE - SAMADI,,,,,,,,,,,,,,,,,,,,,,,,,,,,,,,,,,,,,,,,,,,,,,,,,,,,,,,,,,,,,,,,,,,,,,,,,,,,,,,,
,,,,,,,,,,Esha,2020-10-12_21h43.12.886,swahili,2020.2.4,Win32,60,,,,,,,,,,-0.147395821,0.153703691,1,0,0,1.515615,unsorted_card,28,0,28,0,1,,,,,,,,,,,,,,,,,,,,,,,,,,,,,,,,,,,,,,,,,,,,,,,,,,,,,,,,,,,,,,,,,,,,,,,,,,,,,,,,,
,,,,,,,,,,Esha,2020-10-12_21h43.12.886,swahili,2020.2.4,Win32,60,,,,,,,,,,0.35156252,0.490740733,1,0,0,1.99867,study_pile,29,0,29,0,1,AGENT - WAKILI,,,,,,,,,,,,,,,,,,,,,,,,,,,,,,,,,,,,,,,,,,,,,,,,,,,,,,,,,,,,,,,,,,,,,,,,,,,,,,,,
,,,,,,,,,,Esha,2020-10-12_21h43.12.886,swahili,2020.2.4,Win32,60,,,,,,,,,,-0.52604166,-0.173148166,1,0,0,1.029545,unsorted_card,30,0,30,0,1,,,,,,,,,,,,,,,,,,,,,,,,,,,,,,,,,,,,,,,,,,,,,,,,,,,,,,,,,,,,,,,,,,,,,,,,,,,,,,,,,
,,,,,,,,,,Esha,2020-10-12_21h43.12.886,swahili,2020.2.4,Win32,60,,,,,,,,,,0.372916687,0.505555548,1,0,0,3.132915,study_pile,31,0,31,0,1,BRIBE - RUSHWA,,,,,,,,,,,,,,,,,,,,,,,,,,,,,,,,,,,,,,,,,,,,,,,,,,,,,,,,,,,,,,,,,,,,,,,,,,,,,,,,
,,,,,,,,,,Esha,2020-10-12_21h43.12.886,swahili,2020.2.4,Win32,60,,,,,,,,,,-0.54479166,-0.135185202,1,0,0,1.07884,unsorted_card,32,0,32,0,1,,,,,,,,,,,,,,,,,,,,,,,,,,,,,,,,,,,,,,,,,,,,,,,,,,,,,,,,,,,,,,,,,,,,,,,,,,,,,,,,,
,,,,,,,,,,Esha,2020-10-12_21h43.12.886,swahili,2020.2.4,Win32,60,,,,,,,,,,0.363020854,0.454629622,1,0,0,2.946745,study_pile,33,0,33,0,1,ORPHAN - YATIMA,,,,,,,,,,,,,,,,,,,,,,,,,,,,,,,,,,,,,,,,,,,,,,,,,,,,,,,,,,,,,,,,,,,,,,,,,,,,,,,,
,,,,,,,,,,Esha,2020-10-12_21h43.12.886,swahili,2020.2.4,Win32,60,,,,,,,,,,-0.440104158,0.037037023,1,0,0,1.346445,unsorted_card,34,0,34,0,1,,,,,,,,,,,,,,,,,,,,,,,,,,,,,,,,,,,,,,,,,,,,,,,,,,,,,,,,,,,,,,,,,,,,,,,,,,,,,,,,,
,,,,,,,,,,Esha,2020-10-12_21h43.12.886,swahili,2020.2.4,Win32,60,,,,,,,,,,0.35468752,0.539814808,1,0,0,2.81277,study_pile,35,0,35,0,1,DIVORCE - TALAKA,,,,,,,,,,,,,,,,,,,,,,,,,,,,,,,,,,,,,,,,,,,,,,,,,,,,,,,,,,,,,,,,,,,,,,,,,,,,,,,,
,,,,,,,,,,Esha,2020-10-12_21h43.12.886,swahili,2020.2.4,Win32,60,,,,,,,,,,-0.460416659,0.123148079,1,0,0,1.16188,unsorted_card,36,0,36,0,1,,,,,,,,,,,,,,,,,,,,,,,,,,,,,,,,,,,,,,,,,,,,,,,,,,,,,,,,,,,,,,,,,,,,,,,,,,,,,,,,,
,,,,,,,,,,Esha,2020-10-12_21h43.12.886,swahili,2020.2.4,Win32,60,,,,,,,,,,0.395312521,0.534259252,1,0,0,2.613745,study_pile,37,0,37,0,1,BOAT - MASHUA,,,,,,,,,,,,,,,,,,,,,,,,,,,,,,,,,,,,,,,,,,,,,,,,,,,,,,,,,,,,,,,,,,,,,,,,,,,,,,,,
,,,,,,,,,,Esha,2020-10-12_21h43.12.886,swahili,2020.2.4,Win32,60,,,,,,,,,,-0.483854159,-0.075000016,1,0,0,1.096005,unsorted_card,38,0,38,0,1,,,,,,,,,,,,,,,,,,,,,,,,,,,,,,,,,,,,,,,,,,,,,,,,,,,,,,,,,,,,,,,,,,,,,,,,,,,,,,,,,
,,,,,,,,,,Esha,2020-10-12_21h43.12.886,swahili,2020.2.4,Win32,60,,,,,,,,,,0.379687521,0.527777771,1,0,0,2.846215,study_pile,39,0,39,0,1,TREASURE - DAFINA,,,,,,,,,,,,,,,,,,,,,,,,,,,,,,,,,,,,,,,,,,,,,,,,,,,,,,,,,,,,,,,,,,,,,,,,,,,,,,,,
,,,,,,,,,,Esha,2020-10-12_21h43.12.886,swahili,2020.2.4,Win32,60,,,,,,,,,,,,,,,,,,,,,,BLAME - LAWAMA,,,,,,,,return,9.43879,return,5.78958,0,0,0,0,1,,,,,,,,,,,,,,,,,,,,,,,,,,,,,,,,,,,,,,,,,,,,,,,,,,,,,,,,,,,,,,,,
,,,,,,,,,,Esha,2020-10-12_21h43.12.886,swahili,2020.2.4,Win32,60,,,,,,,,,,,,,,,,,,,,,,AGENT - WAKILI,,,,,,,,,,return,2.73457,1,0,1,0,1,,,,,,,,,,,,,,,,,,,,,,,,,,,,,,,,,,,,,,,,,,,,,,,,,,,,,,,,,,,,,,,,
,,,,,,,,,,Esha,2020-10-12_21h43.12.886,swahili,2020.2.4,Win32,60,,,,,,,,,,,,,,,,,,,,,,ORPHAN - YATIMA,,,,,,,,,,return,3.30095,2,0,2,0,1,,,,,,,,,,,,,,,,,,,,,,,,,,,,,,,,,,,,,,,,,,,,,,,,,,,,,,,,,,,,,,,,
,,,,,,,,,,Esha,2020-10-12_21h43.12.886,swahili,2020.2.4,Win32,60,,,,,,,,,,,,,,,,,,,,,,TAILOR - MSHONI,,,,,,,,,,return,3.471125,3,0,3,0,1,,,,,,,,,,,,,,,,,,,,,,,,,,,,,,,,,,,,,,,,,,,,,,,,,,,,,,,,,,,,,,,,
,,,,,,,,,,Esha,2020-10-12_21h43.12.886,swahili,2020.2.4,Win32,60,,,,,,,,,,,,,,,,,,,,,,GRAPES - ZABIBU,,,,,,,,,,return,2.025275,4,0,4,0,1,,,,,,,,,,,,,,,,,,,,,,,,,,,,,,,,,,,,,,,,,,,,,,,,,,,,,,,,,,,,,,,,
,,,,,,,,,,Esha,2020-10-12_21h43.12.886,swahili,2020.2.4,Win32,60,,,,,,,,,,,,,,,,,,,,,,MANURE - SAMADI,,,,,,,,,,return,1.084315,5,0,5,0,1,,,,,,,,,,,,,,,,,,,,,,,,,,,,,,,,,,,,,,,,,,,,,,,,,,,,,,,,,,,,,,,,
,,,,,,,,,,Esha,2020-10-12_21h43.12.886,swahili,2020.2.4,Win32,60,,,,,,,,,,,,,,,,,,,,,,POEM - UTENZI,,,,,,,,,,return,1.983745,6,0,6,0,1,,,,,,,,,,,,,,,,,,,,,,,,,,,,,,,,,,,,,,,,,,,,,,,,,,,,,,,,,,,,,,,,
,,,,,,,,,,Esha,2020-10-12_21h43.12.886,swahili,2020.2.4,Win32,60,,,,,,,,,,,,,,,,,,,,,,BULL - FAHILI,,,,,,,,,,return,2.941595,7,0,7,0,1,,,,,,,,,,,,,,,,,,,,,,,,,,,,,,,,,,,,,,,,,,,,,,,,,,,,,,,,,,,,,,,,
,,,,,,,,,,Esha,2020-10-12_21h43.12.886,swahili,2020.2.4,Win32,60,,,,,,,,,,,,,,,,,,,,,,CHEESE - JIBINI,,,,,,,,,,return,1.33722,8,0,8,0,1,,,,,,,,,,,,,,,,,,,,,,,,,,,,,,,,,,,,,,,,,,,,,,,,,,,,,,,,,,,,,,,,
,,,,,,,,,,Esha,2020-10-12_21h43.12.886,swahili,2020.2.4,Win32,60,,,,,,,,,,,,,,,,,,,,,,OATH - YAMINI,,,,,,,,,,return,1.31933,9,0,9,0,1,,,,,,,,,,,,,,,,,,,,,,,,,,,,,,,,,,,,,,,,,,,,,,,,,,,,,,,,,,,,,,,,
,,,,,,,,,,Esha,2020-10-12_21h43.12.886,swahili,2020.2.4,Win32,60,,,,,,,,,,,,,,,,,,,,,,BOAT - MASHUA,,,,,,,,,,return,1.95105,10,0,10,0,1,,,,,,,,,,,,,,,,,,,,,,,,,,,,,,,,,,,,,,,,,,,,,,,,,,,,,,,,,,,,,,,,
,,,,,,,,,,Esha,2020-10-12_21h43.12.886,swahili,2020.2.4,Win32,60,,,,,,,,,,,,,,,,,,,,,,GRAVE - KABURI,,,,,,,,,,return,1.93411,11,0,11,0,1,,,,,,,,,,,,,,,,,,,,,,,,,,,,,,,,,,,,,,,,,,,,,,,,,,,,,,,,,,,,,,,,
,,,,,,,,,,Esha,2020-10-12_21h43.12.886,swahili,2020.2.4,Win32,60,,,,,,,,,,,,,,,,,,,,,,YEAST - HAMIRA,,,,,,,,,,return,3.38419,12,0,12,0,1,,,,,,,,,,,,,,,,,,,,,,,,,,,,,,,,,,,,,,,,,,,,,,,,,,,,,,,,,,,,,,,,
,,,,,,,,,,Esha,2020-10-12_21h43.12.886,swahili,2020.2.4,Win32,60,,,,,,,,,,,,,,,,,,,,,,PLATE - SAHANI,,,,,,,,,,return,2.49087,13,0,13,0,1,,,,,,,,,,,,,,,,,,,,,,,,,,,,,,,,,,,,,,,,,,,,,,,,,,,,,,,,,,,,,,,,
,,,,,,,,,,Esha,2020-10-12_21h43.12.886,swahili,2020.2.4,Win32,60,,,,,,,,,,,,,,,,,,,,,,MERCHANT - TAJIRI,,,,,,,,,,return,1.684625,14,0,14,0,1,,,,,,,,,,,,,,,,,,,,,,,,,,,,,,,,,,,,,,,,,,,,,,,,,,,,,,,,,,,,,,,,
,,,,,,,,,,Esha,2020-10-12_21h43.12.886,swahili,2020.2.4,Win32,60,,,,,,,,,,,,,,,,,,,,,,PARROT - KASUKU,,,,,,,,,,return,1.524195,15,0,15,0,1,,,,,,,,,,,,,,,,,,,,,,,,,,,,,,,,,,,,,,,,,,,,,,,,,,,,,,,,,,,,,,,,
,,,,,,,,,,Esha,2020-10-12_21h43.12.886,swahili,2020.2.4,Win32,60,,,,,,,,,,,,,,,,,,,,,,BRIBE - RUSHWA,,,,,,,,,,return,2.50878,16,0,16,0,1,,,,,,,,,,,,,,,,,,,,,,,,,,,,,,,,,,,,,,,,,,,,,,,,,,,,,,,,,,,,,,,,
,,,,,,,,,,Esha,2020-10-12_21h43.12.886,swahili,2020.2.4,Win32,60,,,,,,,,,,,,,,,,,,,,,,DIVORCE - TALAKA,,,,,,,,,,return,1.75839,17,0,17,0,1,,,,,,,,,,,,,,,,,,,,,,,,,,,,,,,,,,,,,,,,,,,,,,,,,,,,,,,,,,,,,,,,
,,,,,,,,,,Esha,2020-10-12_21h43.12.886,swahili,2020.2.4,Win32,60,,,,,,,,,,,,,,,,,,,,,,TREASURE - DAFINA,,,,,,,,,,return,1.64198,18,0,18,0,1,,,,,,,,,,,,,,,,,,,,,,,,,,,,,,,,,,,,,,,,,,,,,,,,,,,,,,,,,,,,,,,,
,,,,,,,,,,Esha,2020-10-12_21h43.12.886,swahili,2020.2.4,Win32,60,,,,,,,,,,,,,,,,,,,,,,CORN - NAFAKA,,,,,,,,,,return,1.405585,19,0,19,0,1,,,,,,,,,,,,,,,,,,,,,,,,,,,,,,,,,,,,,,,,,,,,,,,,,,,,,,,,,,,,,,,,
,,,,,,,,,,Esha,2020-10-12_21h43.12.886,swahili,2020.2.4,Win32,60,,,,,,,,,,,,,,,,,,,,,,,,,,,,,,,,,,,,,,,,0,0,0,0,1,,,,,,,,,,,,,,,,,,,,,,,,,,,,,,,,,,,,,,,,,,,,,,,,,,,,,,,,,,
,,,,,,,,,,Esha,2020-10-12_21h43.12.886,swahili,2020.2.4,Win32,60,,,,,,,,,,,,,,,,,,,,,,,,,,,,,,,,,,,,,,,,1,0,1,0,1,,,,,,,,,,,,,,,,,,,,,,,,,,,,,,,,,,,,,,,,,,,,,,,,,,,,,,,,,,
,,,,,,,,,,Esha,2020-10-12_21h43.12.886,swahili,2020.2.4,Win32,60,,,,,,,,,,,,,,,,,,,,,,,,,,,,,,,,,,,,,,,,,,,,,0,0,0,0,1,,,,,,,,,,,,,,,,,,,,,,,,,,,,,,,,,,,,,,,,,,,,,,,,,,,,,
,,,,,,,,,,Esha,2020-10-12_21h43.12.886,swahili,2020.2.4,Win32,60,,,,,,,,,,-0.509374961,-0.275925945,1,0,0,3.494975,unsorted_card,0,0,0,0,1,,,,,,,,,,,,,,,,,,,,,,,,,,,,,,,,,,,,,,,,,,,,,,,,,,,,,,,,,,,,,,,,,,,,,,,,,,,,,,,,,
,,,,,,,,,,Esha,2020-10-12_21h43.12.886,swahili,2020.2.4,Win32,60,,,,,,,,,,0.415104188,-0.041666682,1,0,0,728.990515,test_pile,1,0,1,0,1,MERCHANT - TAJIRI,,,,,,,,,,,,,,,,,,,,,,,,,,,,,,,,,,,,,,,,,,,,,,,,,,,,,,,,,,,,,,,,,,,,,,,,,,,,,,,,
,,,,,,,,,,Esha,2020-10-12_21h43.12.886,swahili,2020.2.4,Win32,60,,,,,,,,,,-0.548958327,0.063888875,1,0,0,1.13259,unsorted_card,2,0,2,0,1,,,,,,,,,,,,,,,,,,,,,,,,,,,,,,,,,,,,,,,,,,,,,,,,,,,,,,,,,,,,,,,,,,,,,,,,,,,,,,,,,
,,,,,,,,,,Esha,2020-10-12_21h43.12.886,swahili,2020.2.4,Win32,60,,,,,,,,,,0.377604187,-0.008333348,1,0,0,2.22978,test_pile,3,0,3,0,1,PARROT - KASUKU,,,,,,,,,,,,,,,,,,,,,,,,,,,,,,,,,,,,,,,,,,,,,,,,,,,,,,,,,,,,,,,,,,,,,,,,,,,,,,,,
,,,,,,,,,,Esha,2020-10-12_21h43.12.886,swahili,2020.2.4,Win32,60,,,,,,,,,,-0.234374989,0.013888874,1,0,0,1.72964,unsorted_card,4,0,4,0,1,,,,,,,,,,,,,,,,,,,,,,,,,,,,,,,,,,,,,,,,,,,,,,,,,,,,,,,,,,,,,,,,,,,,,,,,,,,,,,,,,
,,,,,,,,,,Esha,2020-10-12_21h43.12.886,swahili,2020.2.4,Win32,60,,,,,,,,,,0.355729314,-0.035185201,1,0,0,2.04601,test_pile,5,0,5,0,1,BULL - FAHILI,,,,,,,,,,,,,,,,,,,,,,,,,,,,,,,,,,,,,,,,,,,,,,,,,,,,,,,,,,,,,,,,,,,,,,,,,,,,,,,,
,,,,,,,,,,Esha,2020-10-12_21h43.12.886,swahili,2020.2.4,Win32,60,,,,,,,,,,-0.266145759,-0.116666683,1,0,0,1.079785,unsorted_card,6,0,6,0,1,,,,,,,,,,,,,,,,,,,,,,,,,,,,,,,,,,,,,,,,,,,,,,,,,,,,,,,,,,,,,,,,,,,,,,,,,,,,,,,,,
,,,,,,,,,,Esha,2020-10-12_21h43.12.886,swahili,2020.2.4,Win32,60,,,,,,,,,,0.37187502,0.470370362,1,0,0,6.06297,study_pile,7,0,7,0,1,PLATE - SAHANI,,,,,,,,,,,,,,,,,,,,,,,,,,,,,,,,,,,,,,,,,,,,,,,,,,,,,,,,,,,,,,,,,,,,,,,,,,,,,,,,
,,,,,,,,,,Esha,2020-10-12_21h43.12.886,swahili,2020.2.4,Win32,60,,,,,,,,,,-0.385937491,0.113888819,1,0,0,1.161495,unsorted_card,8,0,8,0,1,,,,,,,,,,,,,,,,,,,,,,,,,,,,,,,,,,,,,,,,,,,,,,,,,,,,,,,,,,,,,,,,,,,,,,,,,,,,,,,,,
,,,,,,,,,,Esha,2020-10-12_21h43.12.886,swahili,2020.2.4,Win32,60,,,,,,,,,,0.332291687,-0.061111127,1,0,0,4.17788,test_pile,9,0,9,0,1,YEAST - HAMIRA,,,,,,,,,,,,,,,,,,,,,,,,,,,,,,,,,,,,,,,,,,,,,,,,,,,,,,,,,,,,,,,,,,,,,,,,,,,,,,,,
,,,,,,,,,,Esha,2020-10-12_21h43.12.886,swahili,2020.2.4,Win32,60,,,,,,,,,,-0.549999993,0.008333319,1,0,0,1.298565,unsorted_card,10,0,10,0,1,,,,,,,,,,,,,,,,,,,,,,,,,,,,,,,,,,,,,,,,,,,,,,,,,,,,,,,,,,,,,,,,,,,,,,,,,,,,,,,,,
,,,,,,,,,,Esha,2020-10-12_21h43.12.886,swahili,2020.2.4,Win32,60,,,,,,,,,,0.391145854,0.008333319,1,0,0,5.09935,test_pile,11,0,11,0,1,BLAME - LAWAMA,,,,,,,,,,,,,,,,,,,,,,,,,,,,,,,,,,,,,,,,,,,,,,,,,,,,,,,,,,,,,,,,,,,,,,,,,,,,,,,,
,,,,,,,,,,Esha,2020-10-12_21h43.12.886,swahili,2020.2.4,Win32,60,,,,,,,,,,-0.259895822,-0.032407423,1,0,0,1.166105,unsorted_card,12,0,12,0,1,,,,,,,,,,,,,,,,,,,,,,,,,,,,,,,,,,,,,,,,,,,,,,,,,,,,,,,,,,,,,,,,,,,,,,,,,,,,,,,,,
,,,,,,,,,,Esha,2020-10-12_21h43.12.886,swahili,2020.2.4,Win32,60,,,,,,,,,,0.339583353,-0.046296312,1,0,0,2.414455,test_pile,13,0,13,0,1,OATH - YAMINI,,,,,,,,,,,,,,,,,,,,,,,,,,,,,,,,,,,,,,,,,,,,,,,,,,,,,,,,,,,,,,,,,,,,,,,,,,,,,,,,
,,,,,,,,,,Esha,2020-10-12_21h43.12.886,swahili,2020.2.4,Win32,60,,,,,,,,,,-0.198958321,-0.01944446,1,0,0,1.030515,unsorted_card,14,0,14,0,1,,,,,,,,,,,,,,,,,,,,,,,,,,,,,,,,,,,,,,,,,,,,,,,,,,,,,,,,,,,,,,,,,,,,,,,,,,,,,,,,,
,,,,,,,,,,Esha,2020-10-12_21h43.12.886,swahili,2020.2.4,Win32,60,,,,,,,,,,0.373958481,0.469444437,1,0,0,1.998035,study_pile,15,0,15,0,1,CORN - NAFAKA,,,,,,,,,,,,,,,,,,,,,,,,,,,,,,,,,,,,,,,,,,,,,,,,,,,,,,,,,,,,,,,,,,,,,,,,,,,,,,,,
,,,,,,,,,,Esha,2020-10-12_21h43.12.886,swahili,2020.2.4,Win32,60,,,,,,,,,,-0.448437492,-0.085185201,1,0,0,0.89617,unsorted_card,16,0,16,0,1,,,,,,,,,,,,,,,,,,,,,,,,,,,,,,,,,,,,,,,,,,,,,,,,,,,,,,,,,,,,,,,,,,,,,,,,,,,,,,,,,
,,,,,,,,,,Esha,2020-10-12_21h43.12.886,swahili,2020.2.4,Win32,60,,,,,,,,,,0.37500002,0.421296288,1,0,0,1.84709,study_pile,17,0,17,0,1,POEM - UTENZI,,,,,,,,,,,,,,,,,,,,,,,,,,,,,,,,,,,,,,,,,,,,,,,,,,,,,,,,,,,,,,,,,,,,,,,,,,,,,,,,
,,,,,,,,,,Esha,2020-10-12_21h43.12.886,swahili,2020.2.4,Win32,60,,,,,,,,,,-0.446354158,-0.089814831,1,0,0,0.89802,unsorted_card,18,0,18,0,1,,,,,,,,,,,,,,,,,,,,,,,,,,,,,,,,,,,,,,,,,,,,,,,,,,,,,,,,,,,,,,,,,,,,,,,,,,,,,,,,,
,,,,,,,,,,Esha,2020-10-12_21h43.12.886,swahili,2020.2.4,Win32,60,,,,,,,,,,0.333854187,0.624999994,1,0,0,1.64689,study_pile,19,0,19,0,1,TAILOR - MSHONI,,,,,,,,,,,,,,,,,,,,,,,,,,,,,,,,,,,,,,,,,,,,,,,,,,,,,,,,,,,,,,,,,,,,,,,,,,,,,,,,
,,,,,,,,,,Esha,2020-10-12_21h43.12.886,swahili,2020.2.4,Win32,60,,,,,,,,,,-0.239062489,0.066666653,1,0,0,0.912165,unsorted_card,20,0,20,0,1,,,,,,,,,,,,,,,,,,,,,,,,,,,,,,,,,,,,,,,,,,,,,,,,,,,,,,,,,,,,,,,,,,,,,,,,,,,,,,,,,
,,,,,,,,,,Esha,2020-10-12_21h43.12.886,swahili,2020.2.4,Win32,60,,,,,,,,,,0.330208353,-0.061111127,1,0,0,2.131825,test_pile,21,0,21,0,1,CHEESE - JIBINI,,,,,,,,,,,,,,,,,,,,,,,,,,,,,,,,,,,,,,,,,,,,,,,,,,,,,,,,,,,,,,,,,,,,,,,,,,,,,,,,
,,,,,,,,,,Esha,2020-10-12_21h43.12.886,swahili,2020.2.4,Win32,60,,,,,,,,,,-0.220312488,-0.046296312,1,0,0,1.07961,unsorted_card,22,0,22,0,1,,,,,,,,,,,,,,,,,,,,,,,,,,,,,,,,,,,,,,,,,,,,,,,,,,,,,,,,,,,,,,,,,,,,,,,,,,,,,,,,,
,,,,,,,,,,Esha,2020-10-12_21h43.12.886,swahili,2020.2.4,Win32,60,,,,,,,,,,0.407812648,0.04444443,1,0,0,3.17992,test_pile,23,0,23,0,1,GRAPES - ZABIBU,,,,,,,,,,,,,,,,,,,,,,,,,,,,,,,,,,,,,,,,,,,,,,,,,,,,,,,,,,,,,,,,,,,,,,,,,,,,,,,,
,,,,,,,,,,Esha,2020-10-12_21h43.12.886,swahili,2020.2.4,Win32,60,,,,,,,,,,-0.292708323,-0.058333349,1,0,0,1.49525,unsorted_card,24,0,24,0,1,,,,,,,,,,,,,,,,,,,,,,,,,,,,,,,,,,,,,,,,,,,,,,,,,,,,,,,,,,,,,,,,,,,,,,,,,,,,,,,,,
,,,,,,,,,,Esha,2020-10-12_21h43.12.886,swahili,2020.2.4,Win32,60,,,,,,,,,,0.440104188,0.525925919,1,0,0,2.41331,study_pile,25,0,25,0,1,GRAVE - KABURI,,,,,,,,,,,,,,,,,,,,,,,,,,,,,,,,,,,,,,,,,,,,,,,,,,,,,,,,,,,,,,,,,,,,,,,,,,,,,,,,
,,,,,,,,,,Esha,2020-10-12_21h43.12.886,swahili,2020.2.4,Win32,60,,,,,,,,,,-0.411458325,-0.084259275,1,0,0,0.91095,unsorted_card,26,0,26,0,1,,,,,,,,,,,,,,,,,,,,,,,,,,,,,,,,,,,,,,,,,,,,,,,,,,,,,,,,,,,,,,,,,,,,,,,,,,,,,,,,,
,,,,,,,,,,Esha,2020-10-12_21h43.12.886,swahili,2020.2.4,Win32,60,,,,,,,,,,0.360937647,0.404629621,1,0,0,2.56393,study_pile,27,0,27,0,1,MANURE - SAMADI,,,,,,,,,,,,,,,,,,,,,,,,,,,,,,,,,,,,,,,,,,,,,,,,,,,,,,,,,,,,,,,,,,,,,,,,,,,,,,,,
,,,,,,,,,,Esha,2020-10-12_21h43.12.886,swahili,2020.2.4,Win32,60,,,,,,,,,,-0.299479156,-0.04907409,1,0,0,0.844905,unsorted_card,28,0,28,0,1,,,,,,,,,,,,,,,,,,,,,,,,,,,,,,,,,,,,,,,,,,,,,,,,,,,,,,,,,,,,,,,,,,,,,,,,,,,,,,,,,
,,,,,,,,,,Esha,2020-10-12_21h43.12.886,swahili,2020.2.4,Win32,60,,,,,,,,,,0.353645854,0.523148141,1,0,0,2.432735,study_pile,29,0,29,0,1,AGENT - WAKILI,,,,,,,,,,,,,,,,,,,,,,,,,,,,,,,,,,,,,,,,,,,,,,,,,,,,,,,,,,,,,,,,,,,,,,,,,,,,,,,,
,,,,,,,,,,Esha,2020-10-12_21h43.12.886,swahili,2020.2.4,Win32,60,,,,,,,,,,-0.376562491,-0.032407423,1,0,0,1.712655,unsorted_card,30,0,30,0,1,,,,,,,,,,,,,,,,,,,,,,,,,,,,,,,,,,,,,,,,,,,,,,,,,,,,,,,,,,,,,,,,,,,,,,,,,,,,,,,,,
,,,,,,,,,,Esha,2020-10-12_21h43.12.886,swahili,2020.2.4,Win32,60,,,,,,,,,,0.378645854,-0.001851867,1,0,0,2.48044,test_pile,31,0,31,0,1,BRIBE - RUSHWA,,,,,,,,,,,,,,,,,,,,,,,,,,,,,,,,,,,,,,,,,,,,,,,,,,,,,,,,,,,,,,,,,,,,,,,,,,,,,,,,
,,,,,,,,,,Esha,2020-10-12_21h43.12.886,swahili,2020.2.4,Win32,60,,,,,,,,,,-0.358333324,-0.06944446,1,0,0,0.84608,unsorted_card,32,0,32,0,1,,,,,,,,,,,,,,,,,,,,,,,,,,,,,,,,,,,,,,,,,,,,,,,,,,,,,,,,,,,,,,,,,,,,,,,,,,,,,,,,,
,,,,,,,,,,Esha,2020-10-12_21h43.12.886,swahili,2020.2.4,Win32,60,,,,,,,,,,0.376041687,0.40555549,1,0,0,3.045695,study_pile,33,0,33,0,1,ORPHAN - YATIMA,,,,,,,,,,,,,,,,,,,,,,,,,,,,,,,,,,,,,,,,,,,,,,,,,,,,,,,,,,,,,,,,,,,,,,,,,,,,,,,,
,,,,,,,,,,Esha,2020-10-12_21h43.12.886,swahili,2020.2.4,Win32,60,,,,,,,,,,-0.287499989,0.07407406,1,0,0,0.931635,unsorted_card,34,0,34,0,1,,,,,,,,,,,,,,,,,,,,,,,,,,,,,,,,,,,,,,,,,,,,,,,,,,,,,,,,,,,,,,,,,,,,,,,,,,,,,,,,,
,,,,,,,,,,Esha,2020-10-12_21h43.12.886,swahili,2020.2.4,Win32,60,,,,,,,,,,0.515625023,0.07407406,1,0,0,2.231385,test_pile,35,0,35,0,1,DIVORCE - TALAKA,,,,,,,,,,,,,,,,,,,,,,,,,,,,,,,,,,,,,,,,,,,,,,,,,,,,,,,,,,,,,,,,,,,,,,,,,,,,,,,,
,,,,,,,,,,Esha,2020-10-12_21h43.12.886,swahili,2020.2.4,Win32,60,,,,,,,,,,-0.367187491,0.069444431,1,0,0,1.03043,unsorted_card,36,0,36,0,1,,,,,,,,,,,,,,,,,,,,,,,,,,,,,,,,,,,,,,,,,,,,,,,,,,,,,,,,,,,,,,,,,,,,,,,,,,,,,,,,,
,,,,,,,,,,Esha,2020-10-12_21h43.12.886,swahili,2020.2.4,Win32,60,,,,,,,,,,0.368750148,0.077777764,1,0,0,1.99687,test_pile,37,0,37,0,1,BOAT - MASHUA,,,,,,,,,,,,,,,,,,,,,,,,,,,,,,,,,,,,,,,,,,,,,,,,,,,,,,,,,,,,,,,,,,,,,,,,,,,,,,,,
,,,,,,,,,,Esha,2020-10-12_21h43.12.886,swahili,2020.2.4,Win32,60,,,,,,,,,,-0.463541659,-0.092592609,1,0,0,0.813135,unsorted_card,38,0,38,0,1,,,,,,,,,,,,,,,,,,,,,,,,,,,,,,,,,,,,,,,,,,,,,,,,,,,,,,,,,,,,,,,,,,,,,,,,,,,,,,,,,
,,,,,,,,,,Esha,2020-10-12_21h43.12.886,swahili,2020.2.4,Win32,60,,,,,,,,,,0.31562502,-0.062037053,1,0,0,1.847245,test_pile,39,0,39,0,1,TREASURE - DAFINA,,,,,,,,,,,,,,,,,,,,,,,,,,,,,,,,,,,,,,,,,,,,,,,,,,,,,,,,,,,,,,,,,,,,,,,,,,,,,,,,
,,,,,,,,,,Esha,2020-10-12_21h43.12.886,swahili,2020.2.4,Win32,60,,,,,,,,,,,,,,,,,,,,,,,0.311979186,-0.067592609,1,0,0,4.79614,test_first,,,,,0,0,0,0,1,,,,,,,,,,,,,,,,,,,,,,,,,,,,,,,,,,,,,,,,,,,,,,,,,,,,,,,,,,,,,,,,
,,,,,,,,,,Esha,2020-10-12_21h43.12.886,swahili,2020.2.4,Win32,60,,,,,,,,,,,,,,,,,,,,,,,,,,,,,,,,,,,,,,,return,,,,,,,,,,,7.673025,17.41397,0.423958355,-0.096296313,1,0,0,4.166015,yes,BLAME,KASUKA,incorrect,0,0,0,0,1,,,,,,,,,,,,,,,,,,,,,,,,,,,,,,,,,,,,
,,,,,,,,,,Esha,2020-10-12_21h43.12.886,swahili,2020.2.4,Win32,60,,,,,,,,,,,,,,,,,,,,,,,,,,,,,,,,,,,,,,,,,,,,,,,,,,,8.57985,0.377083354,-0.127777795,1,0,0,1.333555,yes,BULL,FALINI,incorrect,1,0,1,0,1,,,,,,,,,,,,,,,,,,,,,,,,,,,,,,,,,,,,
,,,,,,,,,,Esha,2020-10-12_21h43.12.886,swahili,2020.2.4,Win32,60,,,,,,,,,,,,,,,,,,,,,,,,,,,,,,,,,,,,,,,,,,,,,,,,,,,8.246555,0.409895854,-0.124074091,1,0,0,1.28356,yes,PARROT,KASUKA,incorrect,2,0,2,0,1,,,,,,,,,,,,,,,,,,,,,,,,,,,,,,,,,,,,
,,,,,,,,,,Esha,2020-10-12_21h43.12.886,swahili,2020.2.4,Win32,60,,,,,,,,,,,,,,,,,,,,,,,,,,,,,,,,,,,,,,,,,,,,,,,,,,,4.31326,0.419791688,-0.06944446,1,0,0,1.200345,yes,MERCHANT,MASHUA,incorrect,3,0,3,0,1,,,,,,,,,,,,,,,,,,,,,,,,,,,,,,,,,,,,
,,,,,,,,,,Esha,2020-10-12_21h43.12.886,swahili,2020.2.4,Win32,60,,,,,,,,,,,,,,,,,,,,,,,,,,,,,,,,,,,,,,,,,,,,,,,,,,,3.99946,0.280208352,-0.143518536,1,0,0,1.500685,yes,TREASURE,DAFINA,incorrect,4,0,4,0,1,,,,,,,,,,,,,,,,,,,,,,,,,,,,,,,,,,,,
,,,,,,,,,,Esha,2020-10-12_21h43.12.886,swahili,2020.2.4,Win32,60,,,,,,,,,,,,,,,,,,,,,,,,,,,,,,,,,,,,,,,,,,,,,,,,,,,3.01368,0.372916687,0.053703633,1,0,0,1.267055,yes,BOAT,MASHUA,incorrect,5,0,5,0,1,,,,,,,,,,,,,,,,,,,,,,,,,,,,,,,,,,,,
,,,,,,,,,,Esha,2020-10-12_21h43.12.886,swahili,2020.2.4,Win32,60,,,,,,,,,,,,,,,,,,,,,,,,,,,,,,,,,,,,,,,,,,,,,,,,,,,5.04683,0.418229315,-0.082407424,1,0,0,1.20211,yes,BRIBE,LAWAMA,incorrect,6,0,6,0,1,,,,,,,,,,,,,,,,,,,,,,,,,,,,,,,,,,,,
,,,,,,,,,,Esha,2020-10-12_21h43.12.886,swahili,2020.2.4,Win32,60,,,,,,,,,,,,,,,,,,,,,,,,,,,,,,,,,,,,,,,,,,,,,,,,,,,3.67984,0.296354186,-0.13796298,1,0,0,1.500455,yes,GRAPES,JIBINI,incorrect,7,0,7,0,1,,,,,,,,,,,,,,,,,,,,,,,,,,,,,,,,,,,,
,,,,,,,,,,Esha,2020-10-12_21h43.12.886,swahili,2020.2.4,Win32,60,,,,,,,,,,,,,,,,,,,,,,,,,,,,,,,,,,,,,,,,,,,,,,,,,,,3.980265,0.34218752,-0.022222237,1,0,0,1.450415,yes,CHEESE,JIBINI,incorrect,8,0,8,0,1,,,,,,,,,,,,,,,,,,,,,,,,,,,,,,,,,,,,
,,,,,,,,,,Esha,2020-10-12_21h43.12.886,swahili,2020.2.4,Win32,60,,,,,,,,,,,,,,,,,,,,,,,,,,,,,,,,,,,,,,,,,,,,,,,,,,,3.413515,0.307291686,-0.070370386,1,0,0,1.367035,yes,DIVORCE,TALAKA,incorrect,9,0,9,0,1,,,,,,,,,,,,,,,,,,,,,,,,,,,,,,,,,,,,
,,,,,,,,,,Esha,2020-10-12_21h43.12.886,swahili,2020.2.4,Win32,60,,,,,,,,,,,,,,,,,,,,,,,,,,,,,,,,,,,,,,,,,,,,,,,,,,,9.46408,0.377604187,-0.132407424,1,0,0,1.383755,yes,OATH,YAMINI,incorrect,10,0,10,0,1,,,,,,,,,,,,,,,,,,,,,,,,,,,,,,,,,,,,
,,,,,,,,,,Esha,2020-10-12_21h43.12.886,swahili,2020.2.4,Win32,60,,,,,,,,,,,,,,,,,,,,,,,,,,,,,,,,,,,,,,,,,,,,,,,,,,,8.88299,0.383333354,-0.136111128,1,0,0,1.516715,yes,YEAST,FALGJI,incorrect,11,0,11,0,1,,,,,,,,,,,,,,,,,,,,,,,,,,,,,,,,,,,,
,,,,,,,,,,Esha,2020-10-12_21h43.12.886,swahili,2020.2.4,Win32,60,,,,,,,,,,,,,,,,,,,,,,,,,,,,,,,,,,,,,,,,0,0,0,0,1,,,,,,,,,,,,,,,,,,,,,,,,,,,,,,,,,,,,,,,,,,,,,,,,,,,,,,,,,,
,,,,,,,,,,Esha,2020-10-12_21h43.12.886,swahili,2020.2.4,Win32,60,,,,,,,,,,,,,,,,,,,,,,CORN - NAFAKA,,,,,,,,return,0.00064,return,1.98542,0,0,0,0,1,,,,,,,,,,,,,,,,,,,,,,,,,,,,,,,,,,,,,,,,,,,,,,,,,,,,,,,,,,,,,,,,
,,,,,,,,,,Esha,2020-10-12_21h43.12.886,swahili,2020.2.4,Win32,60,,,,,,,,,,,,,,,,,,,,,,GRAVE - KABURI,,,,,,,,,,return,0.787815,1,0,1,0,1,,,,,,,,,,,,,,,,,,,,,,,,,,,,,,,,,,,,,,,,,,,,,,,,,,,,,,,,,,,,,,,,
,,,,,,,,,,Esha,2020-10-12_21h43.12.886,swahili,2020.2.4,Win32,60,,,,,,,,,,,,,,,,,,,,,,MANURE - SAMADI,,,,,,,,,,return,0.8006,2,0,2,0,1,,,,,,,,,,,,,,,,,,,,,,,,,,,,,,,,,,,,,,,,,,,,,,,,,,,,,,,,,,,,,,,,
,,,,,,,,,,Esha,2020-10-12_21h43.12.886,swahili,2020.2.4,Win32,60,,,,,,,,,,,,,,,,,,,,,,POEM - UTENZI,,,,,,,,,,return,0.68399,3,0,3,0,1,,,,,,,,,,,,,,,,,,,,,,,,,,,,,,,,,,,,,,,,,,,,,,,,,,,,,,,,,,,,,,,,
,,,,,,,,,,Esha,2020-10-12_21h43.12.886,swahili,2020.2.4,Win32,60,,,,,,,,,,,,,,,,,,,,,,ORPHAN - YATIMA,,,,,,,,,,return,0.567025,4,0,4,0,1,,,,,,,,,,,,,,,,,,,,,,,,,,,,,,,,,,,,,,,,,,,,,,,,,,,,,,,,,,,,,,,,
,,,,,,,,,,Esha,2020-10-12_21h43.12.886,swahili,2020.2.4,Win32,60,,,,,,,,,,,,,,,,,,,,,,AGENT - WAKILI,,,,,,,,,,return,0.983805,5,0,5,0,1,,,,,,,,,,,,,,,,,,,,,,,,,,,,,,,,,,,,,,,,,,,,,,,,,,,,,,,,,,,,,,,,
,,,,,,,,,,Esha,2020-10-12_21h43.12.886,swahili,2020.2.4,Win32,60,,,,,,,,,,,,,,,,,,,,,,TAILOR - MSHONI,,,,,,,,,,return,0.67066,6,0,6,0,1,,,,,,,,,,,,,,,,,,,,,,,,,,,,,,,,,,,,,,,,,,,,,,,,,,,,,,,,,,,,,,,,
,,,,,,,,,,Esha,2020-10-12_21h43.12.886,swahili,2020.2.4,Win32,60,,,,,,,,,,,,,,,,,,,,,,PLATE - SAHANI,,,,,,,,,,return,0.43399,7,0,7,0,1,,,,,,,,,,,,,,,,,,,,,,,,,,,,,,,,,,,,,,,,,,,,,,,,,,,,,,,,,,,,,,,,
,,,,,,,,,,Esha,2020-10-12_21h43.12.886,swahili,2020.2.4,Win32,60,,,,,,,,,,,,,,,,,,,,,,,,,,,,,,,,,,,,,,,,1,0,1,0,1,,,,,,,,,,,,,,,,,,,,,,,,,,,,,,,,,,,,,,,,,,,,,,,,,,,,,,,,,,
,,,,,,,,,,Esha,2020-10-12_21h43.12.886,swahili,2020.2.4,Win32,60,,,,,,,,,,,,,,,,,,,,,,,,,,,,,,,,,,,,,,,,,,,,,1,0,1,0,1,,,,,,,,,,,,,,,,,,,,,,,,,,,,,,,,,,,,,,,,,,,,,,,,,,,,,
,,,,,,,,,,Esha,2020-10-12_21h43.12.886,swahili,2020.2.4,Win32,60,,,,,,,,,,-0.267187489,-0.223148166,1,0,0,3.279515,unsorted_card,0,0,0,0,1,,,,,,,,,,,,,,,,,,,,,,,,,,,,,,,,,,,,,,,,,,,,,,,,,,,,,,,,,,,,,,,,,,,,,,,,,,,,,,,,,
,,,,,,,,,,Esha,2020-10-12_21h43.12.886,swahili,2020.2.4,Win32,60,,,,,,,,,,0.435416688,0.01018517,1,0,0,6.19509,test_pile,1,0,1,0,1,MERCHANT - TAJIRI,,,,,,,,,,,,,,,,,,,,,,,,,,,,,,,,,,,,,,,,,,,,,,,,,,,,,,,,,,,,,,,,,,,,,,,,,,,,,,,,
,,,,,,,,,,Esha,2020-10-12_21h43.12.886,swahili,2020.2.4,Win32,60,,,,,,,,,,-0.33437499,-0.106481498,1,0,0,1.31609,unsorted_card,2,0,2,0,1,,,,,,,,,,,,,,,,,,,,,,,,,,,,,,,,,,,,,,,,,,,,,,,,,,,,,,,,,,,,,,,,,,,,,,,,,,,,,,,,,
,,,,,,,,,,Esha,2020-10-12_21h43.12.886,swahili,2020.2.4,Win32,60,,,,,,,,,,0.378645854,-0.007407422,1,0,0,2.565045,test_pile,3,0,3,0,1,PARROT - KASUKU,,,,,,,,,,,,,,,,,,,,,,,,,,,,,,,,,,,,,,,,,,,,,,,,,,,,,,,,,,,,,,,,,,,,,,,,,,,,,,,,
,,,,,,,,,,Esha,2020-10-12_21h43.12.886,swahili,2020.2.4,Win32,60,,,,,,,,,,-0.421874991,-0.109259276,1,0,0,1.37959,unsorted_card,4,0,4,0,1,,,,,,,,,,,,,,,,,,,,,,,,,,,,,,,,,,,,,,,,,,,,,,,,,,,,,,,,,,,,,,,,,,,,,,,,,,,,,,,,,
,,,,,,,,,,Esha,2020-10-12_21h43.12.886,swahili,2020.2.4,Win32,60,,,,,,,,,,0.433854315,0.001851837,1,0,0,3.514985,test_pile,5,0,5,0,1,BULL - FAHILI,,,,,,,,,,,,,,,,,,,,,,,,,,,,,,,,,,,,,,,,,,,,,,,,,,,,,,,,,,,,,,,,,,,,,,,,,,,,,,,,
,,,,,,,,,,Esha,2020-10-12_21h43.12.886,swahili,2020.2.4,Win32,60,,,,,,,,,,-0.375520824,-0.087037053,1,0,0,1.56239,unsorted_card,6,0,6,0,1,,,,,,,,,,,,,,,,,,,,,,,,,,,,,,,,,,,,,,,,,,,,,,,,,,,,,,,,,,,,,,,,,,,,,,,,,,,,,,,,,
,,,,,,,,,,Esha,2020-10-12_21h43.12.886,swahili,2020.2.4,Win32,60,,,,,,,,,,0.412500021,0.075925912,1,0,0,3.530065,test_pile,7,0,7,0,1,PLATE - SAHANI,,,,,,,,,,,,,,,,,,,,,,,,,,,,,,,,,,,,,,,,,,,,,,,,,,,,,,,,,,,,,,,,,,,,,,,,,,,,,,,,
,,,,,,,,,,Esha,2020-10-12_21h43.12.886,swahili,2020.2.4,Win32,60,,,,,,,,,,-0.453124992,-0.225926057,1,0,0,1.42881,unsorted_card,8,0,8,0,1,,,,,,,,,,,,,,,,,,,,,,,,,,,,,,,,,,,,,,,,,,,,,,,,,,,,,,,,,,,,,,,,,,,,,,,,,,,,,,,,,
,,,,,,,,,,Esha,2020-10-12_21h43.12.886,swahili,2020.2.4,Win32,60,,,,,,,,,,0.390104187,-0.018518534,1,0,0,5.44717,test_pile,9,0,9,0,1,YEAST - HAMIRA,,,,,,,,,,,,,,,,,,,,,,,,,,,,,,,,,,,,,,,,,,,,,,,,,,,,,,,,,,,,,,,,,,,,,,,,,,,,,,,,
,,,,,,,,,,Esha,2020-10-12_21h43.12.886,swahili,2020.2.4,Win32,60,,,,,,,,,,-0.266145759,-0.143518536,1,0,0,2.39498,unsorted_card,10,0,10,0,1,,,,,,,,,,,,,,,,,,,,,,,,,,,,,,,,,,,,,,,,,,,,,,,,,,,,,,,,,,,,,,,,,,,,,,,,,,,,,,,,,
,,,,,,,,,,Esha,2020-10-12_21h43.12.886,swahili,2020.2.4,Win32,60,,,,,,,,,,0.35468752,-0.085185201,1,0,0,3.248825,test_pile,11,0,11,0,1,BLAME - LAWAMA,,,,,,,,,,,,,,,,,,,,,,,,,,,,,,,,,,,,,,,,,,,,,,,,,,,,,,,,,,,,,,,,,,,,,,,,,,,,,,,,
,,,,,,,,,,Esha,2020-10-12_21h43.12.886,swahili,2020.2.4,Win32,60,,,,,,,,,,-0.218749988,-0.087037053,1,0,0,1.247375,unsorted_card,12,0,12,0,1,,,,,,,,,,,,,,,,,,,,,,,,,,,,,,,,,,,,,,,,,,,,,,,,,,,,,,,,,,,,,,,,,,,,,,,,,,,,,,,,,
,,,,,,,,,,Esha,2020-10-12_21h43.12.886,swahili,2020.2.4,Win32,60,,,,,,,,,,0.430729188,-0.038888904,1,0,0,1.483195,test_pile,13,0,13,0,1,OATH - YAMINI,,,,,,,,,,,,,,,,,,,,,,,,,,,,,,,,,,,,,,,,,,,,,,,,,,,,,,,,,,,,,,,,,,,,,,,,,,,,,,,,
,,,,,,,,,,Esha,2020-10-12_21h43.12.886,swahili,2020.2.4,Win32,60,,,,,,,,,,-0.413541658,-0.124074091,1,0,0,1.148425,unsorted_card,14,0,14,0,1,,,,,,,,,,,,,,,,,,,,,,,,,,,,,,,,,,,,,,,,,,,,,,,,,,,,,,,,,,,,,,,,,,,,,,,,,,,,,,,,,
,,,,,,,,,,Esha,2020-10-12_21h43.12.886,swahili,2020.2.4,Win32,60,,,,,,,,,,0.32812502,-0.065740757,1,0,0,1.7782,test_pile,15,0,15,0,1,CORN - NAFAKA,,,,,,,,,,,,,,,,,,,,,,,,,,,,,,,,,,,,,,,,,,,,,,,,,,,,,,,,,,,,,,,,,,,,,,,,,,,,,,,,
,,,,,,,,,,Esha,2020-10-12_21h43.12.886,swahili,2020.2.4,Win32,60,,,,,,,,,,-0.630208328,-0.03981483,1,0,0,1.212025,unsorted_card,16,0,16,0,1,,,,,,,,,,,,,,,,,,,,,,,,,,,,,,,,,,,,,,,,,,,,,,,,,,,,,,,,,,,,,,,,,,,,,,,,,,,,,,,,,
,,,,,,,,,,Esha,2020-10-12_21h43.12.886,swahili,2020.2.4,Win32,60,,,,,,,,,,0.364583354,-0.007407422,1,0,0,2.280325,test_pile,17,0,17,0,1,POEM - UTENZI,,,,,,,,,,,,,,,,,,,,,,,,,,,,,,,,,,,,,,,,,,,,,,,,,,,,,,,,,,,,,,,,,,,,,,,,,,,,,,,,
,,,,,,,,,,Esha,2020-10-12_21h43.12.886,swahili,2020.2.4,Win32,60,,,,,,,,,,-0.299999926,0.001851837,1,0,0,1.112505,unsorted_card,18,0,18,0,1,,,,,,,,,,,,,,,,,,,,,,,,,,,,,,,,,,,,,,,,,,,,,,,,,,,,,,,,,,,,,,,,,,,,,,,,,,,,,,,,,
,,,,,,,,,,Esha,2020-10-12_21h43.12.886,swahili,2020.2.4,Win32,60,,,,,,,,,,0.403645854,0.01018517,1,0,0,2.462835,test_pile,19,0,19,0,1,TAILOR - MSHONI,,,,,,,,,,,,,,,,,,,,,,,,,,,,,,,,,,,,,,,,,,,,,,,,,,,,,,,,,,,,,,,,,,,,,,,,,,,,,,,,
,,,,,,,,,,Esha,2020-10-12_21h43.12.886,swahili,2020.2.4,Win32,60,,,,,,,,,,-0.566145827,-0.020370386,1,0,0,1.43012,unsorted_card,20,0,20,0,1,,,,,,,,,,,,,,,,,,,,,,,,,,,,,,,,,,,,,,,,,,,,,,,,,,,,,,,,,,,,,,,,,,,,,,,,,,,,,,,,,
,,,,,,,,,,Esha,2020-10-12_21h43.12.886,swahili,2020.2.4,Win32,60,,,,,,,,,,0.436458482,-0.041666682,1,0,0,1.480475,test_pile,21,0,21,0,1,CHEESE - JIBINI,,,,,,,,,,,,,,,,,,,,,,,,,,,,,,,,,,,,,,,,,,,,,,,,,,,,,,,,,,,,,,,,,,,,,,,,,,,,,,,,
,,,,,,,,,,Esha,2020-10-12_21h43.12.886,swahili,2020.2.4,Win32,60,,,,,,,,,,-0.590104129,-0.04444446,1,0,0,1.12852,unsorted_card,22,0,22,0,1,,,,,,,,,,,,,,,,,,,,,,,,,,,,,,,,,,,,,,,,,,,,,,,,,,,,,,,,,,,,,,,,,,,,,,,,,,,,,,,,,
,,,,,,,,,,Esha,2020-10-12_21h43.12.886,swahili,2020.2.4,Win32,60,,,,,,,,,,0.446354188,-0.021296312,1,0,0,1.832685,test_pile,23,0,23,0,1,GRAPES - ZABIBU,,,,,,,,,,,,,,,,,,,,,,,,,,,,,,,,,,,,,,,,,,,,,,,,,,,,,,,,,,,,,,,,,,,,,,,,,,,,,,,,
,,,,,,,,,,Esha,2020-10-12_21h43.12.886,swahili,2020.2.4,Win32,60,,,,,,,,,,-0.510937493,-0.164814832,1,0,0,1.130135,unsorted_card,24,0,24,0,1,,,,,,,,,,,,,,,,,,,,,,,,,,,,,,,,,,,,,,,,,,,,,,,,,,,,,,,,,,,,,,,,,,,,,,,,,,,,,,,,,
,,,,,,,,,,Esha,2020-10-12_21h43.12.886,swahili,2020.2.4,Win32,60,,,,,,,,,,0.395833354,-0.040740756,1,0,0,2.24655,test_pile,25,0,25,0,1,GRAVE - KABURI,,,,,,,,,,,,,,,,,,,,,,,,,,,,,,,,,,,,,,,,,,,,,,,,,,,,,,,,,,,,,,,,,,,,,,,,,,,,,,,,
,,,,,,,,,,Esha,2020-10-12_21h43.12.886,swahili,2020.2.4,Win32,60,,,,,,,,,,-0.351041657,-0.011111126,1,0,0,1.09691,unsorted_card,26,0,26,0,1,,,,,,,,,,,,,,,,,,,,,,,,,,,,,,,,,,,,,,,,,,,,,,,,,,,,,,,,,,,,,,,,,,,,,,,,,,,,,,,,,
,,,,,,,,,,Esha,2020-10-12_21h43.12.886,swahili,2020.2.4,Win32,60,,,,,,,,,,0.463541688,-0.022222237,1,0,0,1.431235,test_pile,27,0,27,0,1,MANURE - SAMADI,,,,,,,,,,,,,,,,,,,,,,,,,,,,,,,,,,,,,,,,,,,,,,,,,,,,,,,,,,,,,,,,,,,,,,,,,,,,,,,,
,,,,,,,,,,Esha,2020-10-12_21h43.12.886,swahili,2020.2.4,Win32,60,,,,,,,,,,-0.344791657,0.057407393,1,0,0,1.89914,unsorted_card,28,0,28,0,1,,,,,,,,,,,,,,,,,,,,,,,,,,,,,,,,,,,,,,,,,,,,,,,,,,,,,,,,,,,,,,,,,,,,,,,,,,,,,,,,,
,,,,,,,,,,Esha,2020-10-12_21h43.12.886,swahili,2020.2.4,Win32,60,,,,,,,,,,0.331770853,0.021296282,1,0,0,1.59662,test_pile,29,0,29,0,1,AGENT - WAKILI,,,,,,,,,,,,,,,,,,,,,,,,,,,,,,,,,,,,,,,,,,,,,,,,,,,,,,,,,,,,,,,,,,,,,,,,,,,,,,,,
,,,,,,,,,,Esha,2020-10-12_21h43.12.886,swahili,2020.2.4,Win32,60,,,,,,,,,,-0.354166657,-0.112037054,1,0,0,1.547625,unsorted_card,30,0,30,0,1,,,,,,,,,,,,,,,,,,,,,,,,,,,,,,,,,,,,,,,,,,,,,,,,,,,,,,,,,,,,,,,,,,,,,,,,,,,,,,,,,
,,,,,,,,,,Esha,2020-10-12_21h43.12.886,swahili,2020.2.4,Win32,60,,,,,,,,,,0.390625021,0.0148148,1,0,0,1.731255,test_pile,31,0,31,0,1,BRIBE - RUSHWA,,,,,,,,,,,,,,,,,,,,,,,,,,,,,,,,,,,,,,,,,,,,,,,,,,,,,,,,,,,,,,,,,,,,,,,,,,,,,,,,
,,,,,,,,,,Esha,2020-10-12_21h43.12.886,swahili,2020.2.4,Win32,60,,,,,,,,,,-0.237499925,0.038888875,1,0,0,1.079015,unsorted_card,32,0,32,0,1,,,,,,,,,,,,,,,,,,,,,,,,,,,,,,,,,,,,,,,,,,,,,,,,,,,,,,,,,,,,,,,,,,,,,,,,,,,,,,,,,
,,,,,,,,,,Esha,2020-10-12_21h43.12.886,swahili,2020.2.4,Win32,60,,,,,,,,,,0.420312521,-0.003703719,1,0,0,2.730955,test_pile,33,0,33,0,1,ORPHAN - YATIMA,,,,,,,,,,,,,,,,,,,,,,,,,,,,,,,,,,,,,,,,,,,,,,,,,,,,,,,,,,,,,,,,,,,,,,,,,,,,,,,,
,,,,,,,,,,Esha,2020-10-12_21h43.12.886,swahili,2020.2.4,Win32,60,,,,,,,,,,-0.448958325,-0.158333351,1,0,0,1.131325,unsorted_card,34,0,34,0,1,,,,,,,,,,,,,,,,,,,,,,,,,,,,,,,,,,,,,,,,,,,,,,,,,,,,,,,,,,,,,,,,,,,,,,,,,,,,,,,,,
,,,,,,,,,,Esha,2020-10-12_21h43.12.886,swahili,2020.2.4,Win32,60,,,,,,,,,,0.498437522,-0.053703719,1,0,0,1.628115,test_pile,35,0,35,0,1,DIVORCE - TALAKA,,,,,,,,,,,,,,,,,,,,,,,,,,,,,,,,,,,,,,,,,,,,,,,,,,,,,,,,,,,,,,,,,,,,,,,,,,,,,,,,
,,,,,,,,,,Esha,2020-10-12_21h43.12.886,swahili,2020.2.4,Win32,60,,,,,,,,,,-0.283854156,-0.068518534,1,0,0,0.84575,unsorted_card,36,0,36,0,1,,,,,,,,,,,,,,,,,,,,,,,,,,,,,,,,,,,,,,,,,,,,,,,,,,,,,,,,,,,,,,,,,,,,,,,,,,,,,,,,,
,,,,,,,,,,Esha,2020-10-12_21h43.12.886,swahili,2020.2.4,Win32,60,,,,,,,,,,0.427604188,0.037962949,1,0,0,1.363475,test_pile,37,0,37,0,1,BOAT - MASHUA,,,,,,,,,,,,,,,,,,,,,,,,,,,,,,,,,,,,,,,,,,,,,,,,,,,,,,,,,,,,,,,,,,,,,,,,,,,,,,,,
,,,,,,,,,,Esha,2020-10-12_21h43.12.886,swahili,2020.2.4,Win32,60,,,,,,,,,,-0.431249992,-0.132407424,1,0,0,1.16538,unsorted_card,38,0,38,0,1,,,,,,,,,,,,,,,,,,,,,,,,,,,,,,,,,,,,,,,,,,,,,,,,,,,,,,,,,,,,,,,,,,,,,,,,,,,,,,,,,
,,,,,,,,,,Esha,2020-10-12_21h43.12.886,swahili,2020.2.4,Win32,60,,,,,,,,,,0.332291687,0.003703689,1,0,0,1.36344,test_pile,39,0,39,0,1,TREASURE - DAFINA,,,,,,,,,,,,,,,,,,,,,,,,,,,,,,,,,,,,,,,,,,,,,,,,,,,,,,,,,,,,,,,,,,,,,,,,,,,,,,,,
,,,,,,,,,,Esha,2020-10-12_21h43.12.886,swahili,2020.2.4,Win32,60,,,,,,,,,,,,,,,,,,,,,,,,,,,,,,,,,,0,0,0,0,1,,,,,,,,,,,,,,,,,,,,,,,,,,,,,,,,,,,,,,,,,,,,,,,,,,,,,,,,,,,,,,,,
,,,,,,,,,,Esha,2020-10-12_21h43.12.886,swahili,2020.2.4,Win32,60,,,,,,,,,,,,,,,,,,,,,,,,,,,,,,,,,,,,,,,return,,,,,,,,,,,2.43292,8.731065,0.405208481,0.0953703,1,0,0,1.28306,yes,ORPHAN,RUSHWA,incorrect,0,0,0,0,1,,,,,,,,,,,,,,,,,,,,,,,,,,,,,,,,,,,,
,,,,,,,,,,Esha,2020-10-12_21h43.12.886,swahili,2020.2.4,Win32,60,,,,,,,,,,,,,,,,,,,,,,,,,,,,,,,,,,,,,,,,,,,,,,,,,,,4.198005,0.567708357,0.011111096,1,0,0,1.20045,yes,CHEESE,JIBINI,incorrect,1,0,1,0,1,,,,,,,,,,,,,,,,,,,,,,,,,,,,,,,,,,,,
,,,,,,,,,,Esha,2020-10-12_21h43.12.886,swahili,2020.2.4,Win32,60,,,,,,,,,,,,,,,,,,,,,,,,,,,,,,,,,,,,,,,,,,,,,,,,,,,7.107205,0.293229186,-0.107407424,1,0,0,1.950405,yes,GRAVE,YMANI,incorrect,2,0,2,0,1,,,,,,,,,,,,,,,,,,,,,,,,,,,,,,,,,,,,
,,,,,,,,,,Esha,2020-10-12_21h43.12.886,swahili,2020.2.4,Win32,60,,,,,,,,,,,,,,,,,,,,,,,,,,,,,,,,,,,,,,,,,,,,,,,,,,,4.029735,0.441145855,-0.118518535,0,0,1,1.11697,yes,BRIBE,RUSHWA,incorrect,3,0,3,0,1,,,,,,,,,,,,,,,,,,,,,,,,,,,,,,,,,,,,
,,,,,,,,,,Esha,2020-10-12_21h43.12.886,swahili,2020.2.4,Win32,60,,,,,,,,,,,,,,,,,,,,,,,,,,,,,,,,,,,,,,,,,,,,,,,,,,,2.929965,0.295312519,-0.19722224,1,0,0,1.76688,yes,BOAT,MASHUA,incorrect,4,0,4,0,1,,,,,,,,,,,,,,,,,,,,,,,,,,,,,,,,,,,,
,,,,,,,,,,Esha,2020-10-12_21h43.12.886,swahili,2020.2.4,Win32,60,,,,,,,,,,,,,,,,,,,,,,,,,,,,,,,,,,,,,,,,,,,,,,,,,,,6.962825,0.303645853,-0.023148163,1,0,0,1.410745,yes,MERCHANT,TAJIRA,incorrect,5,0,5,0,1,,,,,,,,,,,,,,,,,,,,,,,,,,,,,,,,,,,,
,,,,,,,,,,Esha,2020-10-12_21h43.12.886,swahili,2020.2.4,Win32,60,,,,,,,,,,,,,,,,,,,,,,,,,,,,,,,,,,,,,,,,,,,,,,,,,,,14.280055,0.311979186,-0.100925942,1,0,0,1.217145,yes,OATH,LAJFED,incorrect,6,0,6,0,1,,,,,,,,,,,,,,,,,,,,,,,,,,,,,,,,,,,,
,,,,,,,,,,Esha,2020-10-12_21h43.12.886,swahili,2020.2.4,Win32,60,,,,,,,,,,,,,,,,,,,,,,,,,,,,,,,,,,,,,,,,,,,,,,,,,,,4.09844,0.311979186,-0.100925942,1,0,0,1.005585,yes,POEM,UTENI,incorrect,7,0,7,0,1,,,,,,,,,,,,,,,,,,,,,,,,,,,,,,,,,,,,
,,,,,,,,,,Esha,2020-10-12_21h43.12.886,swahili,2020.2.4,Win32,60,,,,,,,,,,,,,,,,,,,,,,,,,,,,,,,,,,,,,,,,,,,,,,,,,,,5.504685,0.281770852,-0.10370372,1,0,0,2.368625,yes,BULL,FALINI,incorrect,8,0,8,0,1,,,,,,,,,,,,,,,,,,,,,,,,,,,,,,,,,,,,
,,,,,,,,,,Esha,2020-10-12_21h43.12.886,swahili,2020.2.4,Win32,60,,,,,,,,,,,,,,,,,,,,,,,,,,,,,,,,,,,,,,,,,,,,,,,,,,,4.999,0.390104187,-0.121296313,1,0,0,1.24395,yes,TAILOR,JDSRF,incorrect,9,0,9,0,1,,,,,,,,,,,,,,,,,,,,,,,,,,,,,,,,,,,,
,,,,,,,,,,Esha,2020-10-12_21h43.12.886,swahili,2020.2.4,Win32,60,,,,,,,,,,,,,,,,,,,,,,,,,,,,,,,,,,,,,,,,,,,,,,,,,,,4.797155,0.425000021,-0.177777795,1,0,0,1.7171,yes,PARROT,KASUKA,incorrect,10,0,10,0,1,,,,,,,,,,,,,,,,,,,,,,,,,,,,,,,,,,,,
,,,,,,,,,,Esha,2020-10-12_21h43.12.886,swahili,2020.2.4,Win32,60,,,,,,,,,,,,,,,,,,,,,,,,,,,,,,,,,,,,,,,,,,,,,,,,,,,4.347045,0.291145853,-0.052777793,1,0,0,1.46726,yes,GRAPES,ZABINI,incorrect,11,0,11,0,1,,,,,,,,,,,,,,,,,,,,,,,,,,,,,,,,,,,,
,,,,,,,,,,Esha,2020-10-12_21h43.12.886,swahili,2020.2.4,Win32,60,,,,,,,,,,,,,,,,,,,,,,,,,,,,,,,,,,,,,,,,,,,,,,,,,,,20.797975,0.409375021,-0.082407424,1,0,0,1.33363,yes,AGENT,TASLKF,incorrect,12,0,12,0,1,,,,,,,,,,,,,,,,,,,,,,,,,,,,,,,,,,,,
,,,,,,,,,,Esha,2020-10-12_21h43.12.886,swahili,2020.2.4,Win32,60,,,,,,,,,,,,,,,,,,,,,,,,,,,,,,,,,,,,,,,,,,,,,,,,,,,2.79591,0.33125002,-0.168518536,1,0,0,1.150405,yes,PLATE,TSDFS,incorrect,13,0,13,0,1,,,,,,,,,,,,,,,,,,,,,,,,,,,,,,,,,,,,
,,,,,,,,,,Esha,2020-10-12_21h43.12.886,swahili,2020.2.4,Win32,60,,,,,,,,,,,,,,,,,,,,,,,,,,,,,,,,,,,,,,,,,,,,,,,,,,,4.697695,0.327083353,-0.205555574,1,0,0,1.31722,yes,YEAST,YAMNI,incorrect,14,0,14,0,1,,,,,,,,,,,,,,,,,,,,,,,,,,,,,,,,,,,,
,,,,,,,,,,Esha,2020-10-12_21h43.12.886,swahili,2020.2.4,Win32,60,,,,,,,,,,,,,,,,,,,,,,,,,,,,,,,,,,,,,,,,,,,,,,,,,,,3.141625,0.311458353,-0.200925944,1,0,0,1.300345,yes,CORN,KASRFG,incorrect,15,0,15,0,1,,,,,,,,,,,,,,,,,,,,,,,,,,,,,,,,,,,,
,,,,,,,,,,Esha,2020-10-12_21h43.12.886,swahili,2020.2.4,Win32,60,,,,,,,,,,,,,,,,,,,,,,,,,,,,,,,,,,,,,,,,,,,,,,,,,,,3.3147,0.410937521,-0.183333351,1,0,0,1.384085,yes,TREASURE,DAFINA,incorrect,16,0,16,0,1,,,,,,,,,,,,,,,,,,,,,,,,,,,,,,,,,,,,
,,,,,,,,,,Esha,2020-10-12_21h43.12.886,swahili,2020.2.4,Win32,60,,,,,,,,,,,,,,,,,,,,,,,,,,,,,,,,,,,,,,,,,,,,,,,,,,,4.830485,0.390104187,-0.118518535,1,0,0,1.317545,yes,DIVORCE,TALAKA,incorrect,17,0,17,0,1,,,,,,,,,,,,,,,,,,,,,,,,,,,,,,,,,,,,
,,,,,,,,,,Esha,2020-10-12_21h43.12.886,swahili,2020.2.4,Win32,60,,,,,,,,,,,,,,,,,,,,,,,,,,,,,,,,,,,,,,,,,,,,,,,,,,,5.112975,0.264583352,-0.148148165,1,0,0,2.15037,yes,MANURE,MSHONI,incorrect,18,0,18,0,1,,,,,,,,,,,,,,,,,,,,,,,,,,,,,,,,,,,,
,,,,,,,,,,Esha,2020-10-12_21h43.12.886,swahili,2020.2.4,Win32,60,,,,,,,,,,,,,,,,,,,,,,,,,,,,,,,,,,,,,,,,,,,,,,,,,,,5.530035,0.31093752,-0.091666683,1,0,0,1.433655,yes,BLAME,MSHONI,incorrect,19,0,19,0,1,,,,,,,,,,,,,,,,,,,,,,,,,,,,,,,,,,,,
,,,,,,,,,,Esha,2020-10-12_21h43.12.886,swahili,2020.2.4,Win32,60,,,,,,,,,,,,,,,,,,,,,,,,,,,,,,,,,,,,,,,,0,0,0,0,1,,,,,,,,,,,,,,,,,,,,,,,,,,,,,,,,,,,,,,,,,,,,,,,,,,,,,,,,,,
,,,,,,,,,,Esha,2020-10-12_21h43.12.886,swahili,2020.2.4,Win32,60,,,,,,,,,,,,,,,,,,,,,,,,,,,,,,,,,,,,,,,,1,0,1,0,1,,,,,,,,,,,,,,,,,,,,,,,,,,,,,,,,,,,,,,,,,,,,,,,,,,,,,,,,,,
,,,,,,,,,,Esha,2020-10-12_21h43.12.886,swahili,2020.2.4,Win32,60,,,,,,,,,,,,,,,,,,,,,,,,,,,,,,,,,,,,,,,,,,,,,2,0,2,0,1,,,,,,,,,,,,,,,,,,,,,,,,,,,,,,,,,,,,,,,,,,,,,,,,,,,,,
,,,,,,,,,,Esha,2020-10-12_21h43.12.886,swahili,2020.2.4,Win32,60,,,,,,,,,,-0.511979128,-0.01481483,1,0,0,3.03329,unsorted_card,0,0,0,0,1,,,,,,,,,,,,,,,,,,,,,,,,,,,,,,,,,,,,,,,,,,,,,,,,,,,,,,,,,,,,,,,,,,,,,,,,,,,,,,,,,
,,,,,,,,,,Esha,2020-10-12_21h43.12.886,swahili,2020.2.4,Win32,60,,,,,,,,,,0.459895982,-0.612962987,1,0,0,2.29895,done_pile,1,0,1,0,1,MERCHANT - TAJIRI,,,,,,,,,,,,,,,,,,,,,,,,,,,,,,,,,,,,,,,,,,,,,,,,,,,,,,,,,,,,,,,,,,,,,,,,,,,,,,,,
,,,,,,,,,,Esha,2020-10-12_21h43.12.886,swahili,2020.2.4,Win32,60,,,,,,,,,,-0.220833322,-0.219444463,1,0,0,0.963615,unsorted_card,2,0,2,0,1,,,,,,,,,,,,,,,,,,,,,,,,,,,,,,,,,,,,,,,,,,,,,,,,,,,,,,,,,,,,,,,,,,,,,,,,,,,,,,,,,
,,,,,,,,,,Esha,2020-10-12_21h43.12.886,swahili,2020.2.4,Win32,60,,,,,,,,,,0.37031252,-0.47314817,1,0,0,5.247545,done_pile,3,0,3,0,1,PARROT - KASUKU,,,,,,,,,,,,,,,,,,,,,,,,,,,,,,,,,,,,,,,,,,,,,,,,,,,,,,,,,,,,,,,,,,,,,,,,,,,,,,,,
,,,,,,,,,,Esha,2020-10-12_21h43.12.886,swahili,2020.2.4,Win32,60,,,,,,,,,,-0.29687499,-0.04907409,1,0,0,1.994465,unsorted_card,4,0,4,0,1,,,,,,,,,,,,,,,,,,,,,,,,,,,,,,,,,,,,,,,,,,,,,,,,,,,,,,,,,,,,,,,,,,,,,,,,,,,,,,,,,
,,,,,,,,,,Esha,2020-10-12_21h43.12.886,swahili,2020.2.4,Win32,60,,,,,,,,,,0.570312523,-0.692592618,1,0,0,3.179935,done_pile,5,0,5,0,1,BULL - FAHILI,,,,,,,,,,,,,,,,,,,,,,,,,,,,,,,,,,,,,,,,,,,,,,,,,,,,,,,,,,,,,,,,,,,,,,,,,,,,,,,,
,,,,,,,,,,Esha,2020-10-12_21h43.12.886,swahili,2020.2.4,Win32,60,,,,,,,,,,-0.220833322,-0.029629645,1,0,0,1.14594,unsorted_card,6,0,6,0,1,,,,,,,,,,,,,,,,,,,,,,,,,,,,,,,,,,,,,,,,,,,,,,,,,,,,,,,,,,,,,,,,,,,,,,,,,,,,,,,,,
,,,,,,,,,,Esha,2020-10-12_21h43.12.886,swahili,2020.2.4,Win32,60,,,,,,,,,,0.401562521,-0.512963099,1,0,0,1.663505,done_pile,7,0,7,0,1,PLATE - SAHANI,,,,,,,,,,,,,,,,,,,,,,,,,,,,,,,,,,,,,,,,,,,,,,,,,,,,,,,,,,,,,,,,,,,,,,,,,,,,,,,,
,,,,,,,,,,Esha,2020-10-12_21h43.12.886,swahili,2020.2.4,Win32,60,,,,,,,,,,-0.256770822,-0.122222239,1,0,0,0.930295,unsorted_card,8,0,8,0,1,,,,,,,,,,,,,,,,,,,,,,,,,,,,,,,,,,,,,,,,,,,,,,,,,,,,,,,,,,,,,,,,,,,,,,,,,,,,,,,,,
,,,,,,,,,,Esha,2020-10-12_21h43.12.886,swahili,2020.2.4,Win32,60,,,,,,,,,,0.344791687,-0.544444467,1,0,0,1.6138,done_pile,9,0,9,0,1,YEAST - HAMIRA,,,,,,,,,,,,,,,,,,,,,,,,,,,,,,,,,,,,,,,,,,,,,,,,,,,,,,,,,,,,,,,,,,,,,,,,,,,,,,,,
,,,,,,,,,,Esha,2020-10-12_21h43.12.886,swahili,2020.2.4,Win32,60,,,,,,,,,,-0.339583323,0.004629615,1,0,0,1.045145,unsorted_card,10,0,10,0,1,,,,,,,,,,,,,,,,,,,,,,,,,,,,,,,,,,,,,,,,,,,,,,,,,,,,,,,,,,,,,,,,,,,,,,,,,,,,,,,,,
,,,,,,,,,,Esha,2020-10-12_21h43.12.886,swahili,2020.2.4,Win32,60,,,,,,,,,,0.358333481,-0.460185207,1,0,0,1.66383,done_pile,11,0,11,0,1,BLAME - LAWAMA,,,,,,,,,,,,,,,,,,,,,,,,,,,,,,,,,,,,,,,,,,,,,,,,,,,,,,,,,,,,,,,,,,,,,,,,,,,,,,,,
,,,,,,,,,,Esha,2020-10-12_21h43.12.886,swahili,2020.2.4,Win32,60,,,,,,,,,,-0.240104092,-0.211111129,1,0,0,0.93056,unsorted_card,12,0,12,0,1,,,,,,,,,,,,,,,,,,,,,,,,,,,,,,,,,,,,,,,,,,,,,,,,,,,,,,,,,,,,,,,,,,,,,,,,,,,,,,,,,
,,,,,,,,,,Esha,2020-10-12_21h43.12.886,swahili,2020.2.4,Win32,60,,,,,,,,,,0.345833353,-0.487962985,1,0,0,1.498465,done_pile,13,0,13,0,1,OATH - YAMINI,,,,,,,,,,,,,,,,,,,,,,,,,,,,,,,,,,,,,,,,,,,,,,,,,,,,,,,,,,,,,,,,,,,,,,,,,,,,,,,,
,,,,,,,,,,Esha,2020-10-12_21h43.12.886,swahili,2020.2.4,Win32,60,,,,,,,,,,-0.160937487,-0.152777795,1,0,0,1.04706,unsorted_card,14,0,14,0,1,,,,,,,,,,,,,,,,,,,,,,,,,,,,,,,,,,,,,,,,,,,,,,,,,,,,,,,,,,,,,,,,,,,,,,,,,,,,,,,,,
,,,,,,,,,,Esha,2020-10-12_21h43.12.886,swahili,2020.2.4,Win32,60,,,,,,,,,,0.31875002,-0.48518532,1,0,0,1.46542,done_pile,15,0,15,0,1,CORN - NAFAKA,,,,,,,,,,,,,,,,,,,,,,,,,,,,,,,,,,,,,,,,,,,,,,,,,,,,,,,,,,,,,,,,,,,,,,,,,,,,,,,,
,,,,,,,,,,Esha,2020-10-12_21h43.12.886,swahili,2020.2.4,Win32,60,,,,,,,,,,-0.296354156,-0.041666682,1,0,0,0.89692,unsorted_card,16,0,16,0,1,,,,,,,,,,,,,,,,,,,,,,,,,,,,,,,,,,,,,,,,,,,,,,,,,,,,,,,,,,,,,,,,,,,,,,,,,,,,,,,,,
,,,,,,,,,,Esha,2020-10-12_21h43.12.886,swahili,2020.2.4,Win32,60,,,,,,,,,,0.364583354,-0.577777914,1,0,0,1.682095,done_pile,17,0,17,0,1,POEM - UTENZI,,,,,,,,,,,,,,,,,,,,,,,,,,,,,,,,,,,,,,,,,,,,,,,,,,,,,,,,,,,,,,,,,,,,,,,,,,,,,,,,
,,,,,,,,,,Esha,2020-10-12_21h43.12.886,swahili,2020.2.4,Win32,60,,,,,,,,,,-0.210937488,-0.156481499,1,0,0,1.06411,unsorted_card,18,0,18,0,1,,,,,,,,,,,,,,,,,,,,,,,,,,,,,,,,,,,,,,,,,,,,,,,,,,,,,,,,,,,,,,,,,,,,,,,,,,,,,,,,,
,,,,,,,,,,Esha,2020-10-12_21h43.12.886,swahili,2020.2.4,Win32,60,,,,,,,,,,0.34843752,-0.486111133,1,0,0,1.73108,done_pile,19,0,19,0,1,TAILOR - MSHONI,,,,,,,,,,,,,,,,,,,,,,,,,,,,,,,,,,,,,,,,,,,,,,,,,,,,,,,,,,,,,,,,,,,,,,,,,,,,,,,,
,,,,,,,,,,Esha,2020-10-12_21h43.12.886,swahili,2020.2.4,Win32,60,,,,,,,,,,-0.414062491,0.115740728,1,0,0,0.980545,unsorted_card,20,0,20,0,1,,,,,,,,,,,,,,,,,,,,,,,,,,,,,,,,,,,,,,,,,,,,,,,,,,,,,,,,,,,,,,,,,,,,,,,,,,,,,,,,,
,,,,,,,,,,Esha,2020-10-12_21h43.12.886,swahili,2020.2.4,Win32,60,,,,,,,,,,0.363020854,-0.482407429,1,0,0,1.23113,done_pile,21,0,21,0,1,CHEESE - JIBINI,,,,,,,,,,,,,,,,,,,,,,,,,,,,,,,,,,,,,,,,,,,,,,,,,,,,,,,,,,,,,,,,,,,,,,,,,,,,,,,,
,,,,,,,,,,Esha,2020-10-12_21h43.12.886,swahili,2020.2.4,Win32,60,,,,,,,,,,-0.374999991,-0.089814831,1,0,0,1.297495,unsorted_card,22,0,22,0,1,,,,,,,,,,,,,,,,,,,,,,,,,,,,,,,,,,,,,,,,,,,,,,,,,,,,,,,,,,,,,,,,,,,,,,,,,,,,,,,,,
,,,,,,,,,,Esha,2020-10-12_21h43.12.886,swahili,2020.2.4,Win32,60,,,,,,,,,,0.353645854,-0.46851854,1,0,0,1.666495,done_pile,23,0,23,0,1,GRAPES - ZABIBU,,,,,,,,,,,,,,,,,,,,,,,,,,,,,,,,,,,,,,,,,,,,,,,,,,,,,,,,,,,,,,,,,,,,,,,,,,,,,,,,
,,,,,,,,,,Esha,2020-10-12_21h43.12.886,swahili,2020.2.4,Win32,60,,,,,,,,,,-0.384374991,-0.013888904,1,0,0,1.414515,unsorted_card,24,0,24,0,1,,,,,,,,,,,,,,,,,,,,,,,,,,,,,,,,,,,,,,,,,,,,,,,,,,,,,,,,,,,,,,,,,,,,,,,,,,,,,,,,,
,,,,,,,,,,Esha,2020-10-12_21h43.12.886,swahili,2020.2.4,Win32,60,,,,,,,,,,0.457291816,-0.478703726,1,0,0,2.76445,done_pile,25,0,25,0,1,GRAVE - KABURI,,,,,,,,,,,,,,,,,,,,,,,,,,,,,,,,,,,,,,,,,,,,,,,,,,,,,,,,,,,,,,,,,,,,,,,,,,,,,,,,
,,,,,,,,,,Esha,2020-10-12_21h43.12.886,swahili,2020.2.4,Win32,60,,,,,,,,,,-0.242187489,-0.159259277,1,0,0,1.131035,unsorted_card,26,0,26,0,1,,,,,,,,,,,,,,,,,,,,,,,,,,,,,,,,,,,,,,,,,,,,,,,,,,,,,,,,,,,,,,,,,,,,,,,,,,,,,,,,,
,,,,,,,,,,Esha,2020-10-12_21h43.12.886,swahili,2020.2.4,Win32,60,,,,,,,,,,0.36562502,-0.493518541,1,0,0,2.19791,done_pile,27,0,27,0,1,MANURE - SAMADI,,,,,,,,,,,,,,,,,,,,,,,,,,,,,,,,,,,,,,,,,,,,,,,,,,,,,,,,,,,,,,,,,,,,,,,,,,,,,,,,
,,,,,,,,,,Esha,2020-10-12_21h43.12.886,swahili,2020.2.4,Win32,60,,,,,,,,,,-0.331249926,-0.018518534,1,0,0,1.081155,unsorted_card,28,0,28,0,1,,,,,,,,,,,,,,,,,,,,,,,,,,,,,,,,,,,,,,,,,,,,,,,,,,,,,,,,,,,,,,,,,,,,,,,,,,,,,,,,,
,,,,,,,,,,Esha,2020-10-12_21h43.12.886,swahili,2020.2.4,Win32,60,,,,,,,,,,0.35468752,-0.505555578,1,0,0,6.01545,done_pile,29,0,29,0,1,AGENT - WAKILI,,,,,,,,,,,,,,,,,,,,,,,,,,,,,,,,,,,,,,,,,,,,,,,,,,,,,,,,,,,,,,,,,,,,,,,,,,,,,,,,
,,,,,,,,,,Esha,2020-10-12_21h43.12.886,swahili,2020.2.4,Win32,60,,,,,,,,,,-0.257291656,-0.143518536,1,0,0,1.1111,unsorted_card,30,0,30,0,1,,,,,,,,,,,,,,,,,,,,,,,,,,,,,,,,,,,,,,,,,,,,,,,,,,,,,,,,,,,,,,,,,,,,,,,,,,,,,,,,,
,,,,,,,,,,Esha,2020-10-12_21h43.12.886,swahili,2020.2.4,Win32,60,,,,,,,,,,0.411979188,-0.410185206,1,0,0,1.747135,done_pile,31,0,31,0,1,BRIBE - RUSHWA,,,,,,,,,,,,,,,,,,,,,,,,,,,,,,,,,,,,,,,,,,,,,,,,,,,,,,,,,,,,,,,,,,,,,,,,,,,,,,,,
,,,,,,,,,,Esha,2020-10-12_21h43.12.886,swahili,2020.2.4,Win32,60,,,,,,,,,,-0.133333257,-0.213888907,1,0,0,0.99616,unsorted_card,32,0,32,0,1,,,,,,,,,,,,,,,,,,,,,,,,,,,,,,,,,,,,,,,,,,,,,,,,,,,,,,,,,,,,,,,,,,,,,,,,,,,,,,,,,
,,,,,,,,,,Esha,2020-10-12_21h43.12.886,swahili,2020.2.4,Win32,60,,,,,,,,,,0.31562502,-0.467592614,1,0,0,4.280155,done_pile,33,0,33,0,1,ORPHAN - YATIMA,,,,,,,,,,,,,,,,,,,,,,,,,,,,,,,,,,,,,,,,,,,,,,,,,,,,,,,,,,,,,,,,,,,,,,,,,,,,,,,,
,,,,,,,,,,Esha,2020-10-12_21h43.12.886,swahili,2020.2.4,Win32,60,,,,,,,,,,-0.239062489,-0.164814832,1,0,0,1.0608,unsorted_card,34,0,34,0,1,,,,,,,,,,,,,,,,,,,,,,,,,,,,,,,,,,,,,,,,,,,,,,,,,,,,,,,,,,,,,,,,,,,,,,,,,,,,,,,,,
,,,,,,,,,,Esha,2020-10-12_21h43.12.886,swahili,2020.2.4,Win32,60,,,,,,,,,,0.353125147,-0.459259281,1,0,0,1.698545,done_pile,35,0,35,0,1,DIVORCE - TALAKA,,,,,,,,,,,,,,,,,,,,,,,,,,,,,,,,,,,,,,,,,,,,,,,,,,,,,,,,,,,,,,,,,,,,,,,,,,,,,,,,
,,,,,,,,,,Esha,2020-10-12_21h43.12.886,swahili,2020.2.4,Win32,60,,,,,,,,,,-0.35937499,-0.055555571,1,0,0,0.94718,unsorted_card,36,0,36,0,1,,,,,,,,,,,,,,,,,,,,,,,,,,,,,,,,,,,,,,,,,,,,,,,,,,,,,,,,,,,,,,,,,,,,,,,,,,,,,,,,,
,,,,,,,,,,Esha,2020-10-12_21h43.12.886,swahili,2020.2.4,Win32,60,,,,,,,,,,0.390625021,-0.449074096,1,0,0,1.494545,done_pile,37,0,37,0,1,BOAT - MASHUA,,,,,,,,,,,,,,,,,,,,,,,,,,,,,,,,,,,,,,,,,,,,,,,,,,,,,,,,,,,,,,,,,,,,,,,,,,,,,,,,
,,,,,,,,,,Esha,2020-10-12_21h43.12.886,swahili,2020.2.4,Win32,60,,,,,,,,,,-0.423437491,0.029629615,1,0,0,0.897655,unsorted_card,38,0,38,0,1,,,,,,,,,,,,,,,,,,,,,,,,,,,,,,,,,,,,,,,,,,,,,,,,,,,,,,,,,,,,,,,,,,,,,,,,,,,,,,,,,
,,,,,,,,,,Esha,2020-10-12_21h43.12.886,swahili,2020.2.4,Win32,60,,,,,,,,,,0.34218752,-0.412962984,1,0,0,1.41254,done_pile,39,0,39,0,1,TREASURE - DAFINA,,,,,,,,,,,,,,,,,,,,,,,,,,,,,,,,,,,,,,,,,,,,,,,,,,,,,,,,,,,,,,,,,,,,,,,,,,,,,,,,
,,,,,,,,,,Esha,2020-10-12_21h43.12.886,swahili,2020.2.4,Win32,60,,,,,,,,,,,,,,,,,,,,,,,,,,,,,,,,,,,,,,,,0,0,0,0,1,,,,,,,,,,,,,,,,,,,,,,,,,,,,,,,,,,,,,,,,,,,,,,,,,,,,,,,,,,
,,,,,,,,,,Esha,2020-10-12_21h43.12.886,swahili,2020.2.4,Win32,60,,,,,,,,,,,,,,,,,,,,,,,,,,,,,,,,,,,,,,,,1,0,1,0,1,,,,,,,,,,,,,,,,,,,,,,,,,,,,,,,,,,,,,,,,,,,,,,,,,,,,,,,,,,
,,,,,,,,,,Esha,2020-10-12_21h43.12.886,swahili,2020.2.4,Win32,60,,,,,,,,YAMINI,OATH,,,,,,,,,,,,,,,,,,,,,,,,,,,,,,,,,,,,,,,,,,5.57436,,,,,,,,,YAMINI,correct,,,,,,return,2.186925,return,2.62861,return,4.26464,0,0,0,6,1,,,,,,,,,,,,,,,,,,,,,,,,,
,,,,,,,,,,Esha,2020-10-12_21h43.12.886,swahili,2020.2.4,Win32,60,,,,,,,,FAHILI,BULL,,,,,,,,,,,,,,,,,,,,,,,,,,,,,,,,,,,,,,,,,,9.131215,,,,,,,,,FAHILI,correct,,,,,,,,,,,,0,1,1,2,1,,,,,,,,,,,,,,,,,,,,,,,,,
,,,,,,,,,,Esha,2020-10-12_21h43.12.886,swahili,2020.2.4,Win32,60,,,,,,,,MASHUA,BOAT,,,,,,,,,,,,,,,,,,,,,,,,,,,,,,,,,,,,,,,,,,3.03129,,,,,,,,,MASHUA,correct,,,,,,,,,,,,0,2,2,18,1,,,,,,,,,,,,,,,,,,,,,,,,,
,,,,,,,,,,Esha,2020-10-12_21h43.12.886,swahili,2020.2.4,Win32,60,,,,,,,,SAMADI,MANURE,,,,,,,,,,,,,,,,,,,,,,,,,,,,,,,,,,,,,,,,,,17.74939,,,,,,,,,SAMADI,correct,,,,,,,,,,,,0,3,3,13,1,,,,,,,,,,,,,,,,,,,,,,,,,
,,,,,,,,,,Esha,2020-10-12_21h43.12.886,swahili,2020.2.4,Win32,60,,,,,,,,RUSHWA,BRIBE,,,,,,,,,,,,,,,,,,,,,,,,,,,,,,,,,,,,,,,,,,4.909645,,,,,,,,,RUSHWA,correct,,,,,,,,,,,,0,4,4,15,1,,,,,,,,,,,,,,,,,,,,,,,,,
,,,,,,,,,,Esha,2020-10-12_21h43.12.886,swahili,2020.2.4,Win32,60,,,,,,,,LAWAMA,BLAME,,,,,,,,,,,,,,,,,,,,,,,,,,,,,,,,,,,,,,,,,,5.960415,,,,,,,,,LAWAMA,correct,,,,,,,,,,,,0,5,5,5,1,,,,,,,,,,,,,,,,,,,,,,,,,
,,,,,,,,,,Esha,2020-10-12_21h43.12.886,swahili,2020.2.4,Win32,60,,,,,,,,JIBINI,CHEESE,,,,,,,,,,,,,,,,,,,,,,,,,,,,,,,,,,,,,,,,,,5.9476,,,,,,,,,JIBINI,correct,,,,,,,,,,,,0,6,6,10,1,,,,,,,,,,,,,,,,,,,,,,,,,
,,,,,,,,,,Esha,2020-10-12_21h43.12.886,swahili,2020.2.4,Win32,60,,,,,,,,YATIMA,ORPHAN,,,,,,,,,,,,,,,,,,,,,,,,,,,,,,,,,,,,,,,,,,5.598735,,,,,,,,,TAKGIN,incorrect,,,,,,,,,,,,0,7,7,16,1,,,,,,,,,,,,,,,,,,,,,,,,,
,,,,,,,,,,Esha,2020-10-12_21h43.12.886,swahili,2020.2.4,Win32,60,,,,,,,,TALAKA,DIVORCE,,,,,,,,,,,,,,,,,,,,,,,,,,,,,,,,,,,,,,,,,,4.39861,,,,,,,,,TALAKA,correct,,,,,,,,,,,,0,8,8,17,1,,,,,,,,,,,,,,,,,,,,,,,,,
,,,,,,,,,,Esha,2020-10-12_21h43.12.886,swahili,2020.2.4,Win32,60,,,,,,,,UTENZI,POEM,,,,,,,,,,,,,,,,,,,,,,,,,,,,,,,,,,,,,,,,,,3.998595,,,,,,,,,UTENI,incorrect,,,,,,,,,,,,0,9,9,8,1,,,,,,,,,,,,,,,,,,,,,,,,,
,,,,,,,,,,Esha,2020-10-12_21h43.12.886,swahili,2020.2.4,Win32,60,,,,,,,,HAMIRA,YEAST,,,,,,,,,,,,,,,,,,,,,,,,,,,,,,,,,,,,,,,,,,4.36571,,,,,,,,,LAKFIF,incorrect,,,,,,,,,,,,0,10,10,4,1,,,,,,,,,,,,,,,,,,,,,,,,,
,,,,,,,,,,Esha,2020-10-12_21h43.12.886,swahili,2020.2.4,Win32,60,,,,,,,,KABURI,GRAVE,,,,,,,,,,,,,,,,,,,,,,,,,,,,,,,,,,,,,,,,,,5.515715,,,,,,,,,KASUNI,incorrect,,,,,,,,,,,,0,11,11,12,1,,,,,,,,,,,,,,,,,,,,,,,,,
,,,,,,,,,,Esha,2020-10-12_21h43.12.886,swahili,2020.2.4,Win32,60,,,,,,,,NAFAKA,CORN,,,,,,,,,,,,,,,,,,,,,,,,,,,,,,,,,,,,,,,,,,5.248035,,,,,,,,,NAFAKA,correct,,,,,,,,,,,,0,12,12,7,1,,,,,,,,,,,,,,,,,,,,,,,,,
,,,,,,,,,,Esha,2020-10-12_21h43.12.886,swahili,2020.2.4,Win32,60,,,,,,,,MSHONI,TAILOR,,,,,,,,,,,,,,,,,,,,,,,,,,,,,,,,,,,,,,,,,,6.665625,,,,,,,,,AFJKD,incorrect,,,,,,,,,,,,0,13,13,9,1,,,,,,,,,,,,,,,,,,,,,,,,,
,,,,,,,,,,Esha,2020-10-12_21h43.12.886,swahili,2020.2.4,Win32,60,,,,,,,,ZABIBU,GRAPES,,,,,,,,,,,,,,,,,,,,,,,,,,,,,,,,,,,,,,,,,,3.86497,,,,,,,,,ZABINI,incorrect,,,,,,,,,,,,0,14,14,11,1,,,,,,,,,,,,,,,,,,,,,,,,,
,,,,,,,,,,Esha,2020-10-12_21h43.12.886,swahili,2020.2.4,Win32,60,,,,,,,,KASUKU,PARROT,,,,,,,,,,,,,,,,,,,,,,,,,,,,,,,,,,,,,,,,,,6.799135,,,,,,,,,KASUKU,correct,,,,,,,,,,,,0,15,15,1,1,,,,,,,,,,,,,,,,,,,,,,,,,
,,,,,,,,,,Esha,2020-10-12_21h43.12.886,swahili,2020.2.4,Win32,60,,,,,,,,WAKILI,AGENT,,,,,,,,,,,,,,,,,,,,,,,,,,,,,,,,,,,,,,,,,,20.033225,,,,,,,,,WAKILI,correct,,,,,,,,,,,,0,16,16,14,1,,,,,,,,,,,,,,,,,,,,,,,,,
,,,,,,,,,,Esha,2020-10-12_21h43.12.886,swahili,2020.2.4,Win32,60,,,,,,,,DAFINA,TREASURE,,,,,,,,,,,,,,,,,,,,,,,,,,,,,,,,,,,,,,,,,,3.081785,,,,,,,,,DAFINA,correct,,,,,,,,,,,,0,17,17,19,1,,,,,,,,,,,,,,,,,,,,,,,,,
,,,,,,,,,,Esha,2020-10-12_21h43.12.886,swahili,2020.2.4,Win32,60,,,,,,,,SAHANI,PLATE,,,,,,,,,,,,,,,,,,,,,,,,,,,,,,,,,,,,,,,,,,3.582655,,,,,,,,,ASDGFH,incorrect,,,,,,,,,,,,0,18,18,3,1,,,,,,,,,,,,,,,,,,,,,,,,,
,,,,,,,,,,Esha,2020-10-12_21h43.12.886,swahili,2020.2.4,Win32,60,,,,,,,,TAJIRI,MERCHANT,,,,,,,,,,,,,,,,,,,,,,,,,,,,,,,,,,,,,,,,,,16.849635,,,,,,,,,KAJUDS,incorrect,,,,,,,,,,,,0,19,19,0,1,,,,,,,,,,,,,,,,,,,,,,,,,
,,,,,,,,,,Esha,2020-10-12_21h43.12.886,swahili,2020.2.4,Win32,60,,,,,,,,,,,,,,,,,,,,,,,,,,,,,,,,,,,,,,,,,,,,,,,,,,,,,,,,,,,,,,,,,,,,,,,,,,,,,,0,0,0,0,1,I bought all my goods from the ____ at the market. ,TAJIRI,,,,,,,,,,,,,,,,,,
,,,,,,,,,,Esha,2020-10-12_21h43.12.886,swahili,2020.2.4,Win32,60,,,,,,,,,,,,,,,,,,,,,,,,,,,,,,,,,,,,,,,,,,,,,,,,,,,,,,,,,,,,,,,,,,,,,,,,,,,,,,0,1,1,1,1,The ____ is a bird that can learn to repeat words.,KASUKU,,,,,,,,,,,,,,,,,,
,,,,,,,,,,Esha,2020-10-12_21h43.12.886,swahili,2020.2.4,Win32,60,,,,,,,,,,,,,,,,,,,,,,,,,,,,,,,,,,,,,,,,,,,,,,,,,,,,,,,,,,,,,,,,,,,,,,,,,,,,,,0,2,2,2,1,The ____ charged the matador's red cape. ,FAHILI,,,,,,,,,,,,,,,,,,
,,,,,,,,,,Esha,2020-10-12_21h43.12.886,swahili,2020.2.4,Win32,60,,,,,,,,,,,,,,,,,,,,,,,,,,,,,,,,,,,,,,,,,,,,,,,,,,,,,,,,,,,,,,,,,,,,,,,,,,,,,,0,3,3,3,1,I filled my ____ with food at the buffet. ,SAHANI,,,,,,,,,,,,,,,,,,
,,,,,,,,,,Esha,2020-10-12_21h43.12.886,swahili,2020.2.4,Win32,60,,,,,,,,,,,,,,,,,,,,,,,,,,,,,,,,,,,,,,,,,,,,,,,,,,,,,,,,,,,,,,,,,,,,,,,,,,,,,,0,4,4,4,1,_____ makes bread rise. ,HAMIRA,,,,,,,,,,,,,,,,,,
,,,,,,,,,,Esha,2020-10-12_21h43.12.886,swahili,2020.2.4,Win32,60,,,,,,,,,,,,,,,,,,,,,,,,,,,,,,,,,,,,,,,,,,,,,,,,,,,,,,,,,,,,,,,,,,,,,,,,,,,,,,0,5,5,5,1,Shannon had no one else to  ____ for what happened.,LAWAMA,,,,,,,,,,,,,,,,,,
,,,,,,,,,,Esha,2020-10-12_21h43.12.886,swahili,2020.2.4,Win32,60,,,,,,,,,,,,,,,,,,,,,,,,,,,,,,,,,,,,,,,,,,,,,,,,,,,,,,,,,,,,,,,,,,,,,,,,,,,,,,0,6,6,6,1,The president takes the  ____ of office to uphold the Constitution.,YAMINI,,,,,,,,,,,,,,,,,,
,,,,,,,,,,Esha,2020-10-12_21h43.12.886,swahili,2020.2.4,Win32,60,,,,,,,,,,,,,,,,,,,,,,,,,,,,,,,,,,,,,,,,,,,,,,,,,,,,,,,,,,,,,,,,,,,,,,,,,,,,,,0,7,7,7,1,Kate doesn't like ____ on the cob because it gets stuck between her teeth. ,NAFAKA,,,,,,,,,,,,,,,,,,
,,,,,,,,,,Esha,2020-10-12_21h43.12.886,swahili,2020.2.4,Win32,60,,,,,,,,,,,,,,,,,,,,,,,,,,,,,,,,,,,,,,,,,,,,,,,,,,,,,,,,,,,,,,,,,,,,,,,,,,,,,,0,8,8,8,1,David wrote Cynthia a romantic ____  but she thought it rhymed too much.,UTENZI,,,,,,,,,,,,,,,,,,
,,,,,,,,,,Esha,2020-10-12_21h43.12.886,swahili,2020.2.4,Win32,60,,,,,,,,,,,,,,,,,,,,,,,,,,,,,,,,,,,,,,,,,,,,,,,,,,,,,,,,,,,,,,,,,,,,,,,,,,,,,,0,9,9,9,1,Charles went to the ____ to get his suit adjusted. ,MSHONI,,,,,,,,,,,,,,,,,,
,,,,,,,,,,Esha,2020-10-12_21h43.12.886,swahili,2020.2.4,Win32,60,,,,,,,,,,,,,,,,,,,,,,,,,,,,,,,,,,,,,,,,,,,,,,,,,,,,,,,,,,,,,,,,,,,,,,,,,,,,,,0,10,10,10,1,Amy cooked a grilled ____ sandwich to go with her tomato soup.,JIBINI,,,,,,,,,,,,,,,,,,
,,,,,,,,,,Esha,2020-10-12_21h43.12.886,swahili,2020.2.4,Win32,60,,,,,,,,,,,,,,,,,,,,,,,,,,,,,,,,,,,,,,,,,,,,,,,,,,,,,,,,,,,,,,,,,,,,,,,,,,,,,,0,11,11,11,1,Fermented _______ are used to make wine.,ZABIBU,,,,,,,,,,,,,,,,,,
,,,,,,,,,,Esha,2020-10-12_21h43.12.886,swahili,2020.2.4,Win32,60,,,,,,,,,,,,,,,,,,,,,,,,,,,,,,,,,,,,,,,,,,,,,,,,,,,,,,,,,,,,,,,,,,,,,,,,,,,,,,0,12,12,12,1,She visited her father's ___ on the anniversary of his death. ,KABURI,,,,,,,,,,,,,,,,,,
,,,,,,,,,,Esha,2020-10-12_21h43.12.886,swahili,2020.2.4,Win32,60,,,,,,,,,,,,,,,,,,,,,,,,,,,,,,,,,,,,,,,,,,,,,,,,,,,,,,,,,,,,,,,,,,,,,,,,,,,,,,0,13,13,13,1,"On a farm, there is a good chance you will step into a pile of ______.",SAMADI,,,,,,,,,,,,,,,,,,
,,,,,,,,,,Esha,2020-10-12_21h43.12.886,swahili,2020.2.4,Win32,60,,,,,,,,,,,,,,,,,,,,,,,,,,,,,,,,,,,,,,,,,,,,,,,,,,,,,,,,,,,,,,,,,,,,,,,,,,,,,,0,14,14,14,1,"To buy a house, you may need to speak with a real estate ______.",WAKILI,,,,,,,,,,,,,,,,,,
,,,,,,,,,,Esha,2020-10-12_21h43.12.886,swahili,2020.2.4,Win32,60,,,,,,,,,,,,,,,,,,,,,,,,,,,,,,,,,,,,,,,,,,,,,,,,,,,,,,,,,,,,,,,,,,,,,,,,,,,,,,0,15,15,15,1,The politician was arrested for taking a _____.,RUSHWA,,,,,,,,,,,,,,,,,,
,,,,,,,,,,Esha,2020-10-12_21h43.12.886,swahili,2020.2.4,Win32,60,,,,,,,,,,,,,,,,,,,,,,,,,,,,,,,,,,,,,,,,,,,,,,,,,,,,,,,,,,,,,,,,,,,,,,,,,,,,,,0,16,16,16,1,The _____ is living with foster parents.,YATIMA,,,,,,,,,,,,,,,,,,
,,,,,,,,,,Esha,2020-10-12_21h43.12.886,swahili,2020.2.4,Win32,60,,,,,,,,,,,,,,,,,,,,,,,,,,,,,,,,,,,,,,,,,,,,,,,,,,,,,,,,,,,,,,,,,,,,,,,,,,,,,,0,17,17,17,1,My aunt and uncle got a _________ after two years of marriage.,TALAKA,,,,,,,,,,,,,,,,,,
,,,,,,,,,,Esha,2020-10-12_21h43.12.886,swahili,2020.2.4,Win32,60,,,,,,,,,,,,,,,,,,,,,,,,,,,,,,,,,,,,,,,,,,,,,,,,,,,,,,,,,,,,,,,,,,,,,,,,,,,,,,0,18,18,18,1,You need a ______ to go fishing in the middle of a lake.,MASHUA,,,,,,,,,,,,,,,,,,
,,,,,,,,,,Esha,2020-10-12_21h43.12.886,swahili,2020.2.4,Win32,60,,,,,,,,,,,,,,,,,,,,,,,,,,,,,,,,,,,,,,,,,,,,,,,,,,,,,,,,,,,,,,,,,,,,,,,,,,,,,,0,19,19,19,1,Pirates looked for buried _________ at the bottom of the sea.,DAFINA,,,,,,,,,,,,,,,,,,
,,,,,,,,,,Esha,2020-10-12_21h43.12.886,swahili,2020.2.4,Win32,60,,,,,,,,,,,,,,,,,,,,,,,,,,,,,,,,,,,,,,,,,,,,,,,,,,,,,,,,,,,,,,,,,,,,,,,,,,,,,,,,,,,My aunt and uncle got a _________ after two years of marriage.,TALAKA,return,8.73925,TALAKA,correct,-0.005729088,-0.533687026,1,0,0,9.0539,b,0,0,0,17,1,,
,,,,,,,,,,Esha,2020-10-12_21h43.12.886,swahili,2020.2.4,Win32,60,,,,,,,,,,,,,,,,,,,,,,,,,,,,,,,,,,,,,,,,,,,,,,,,,,,,,,,,,,,,,,,,,,,,,,,,,,,,,,,,,,,Kate doesn't like ____ on the cob because it gets stuck between her teeth. ,NAFAKA,,,NAFAKA,correct,-0.480208326,-0.567639281,1,0,0,4.971345,a,0,1,1,7,1,,
,,,,,,,,,,Esha,2020-10-12_21h43.12.886,swahili,2020.2.4,Win32,60,,,,,,,,,,,,,,,,,,,,,,,,,,,,,,,,,,,,,,,,,,,,,,,,,,,,,,,,,,,,,,,,,,,,,,,,,,,,,,,,,,,"To buy a house, you may need to speak with a real estate ______.",WAKILI,,,WAKILI,correct,-0.036458319,-0.613262624,1,0,0,4.122575,b,0,2,2,14,1,,
,,,,,,,,,,Esha,2020-10-12_21h43.12.886,swahili,2020.2.4,Win32,60,,,,,,,,,,,,,,,,,,,,,,,,,,,,,,,,,,,,,,,,,,,,,,,,,,,,,,,,,,,,,,,,,,,,,,,,,,,,,,,,,,,Shannon had no one else to  ____ for what happened.,LAWAMA,,,LAWAMA,correct,0.441145855,-0.472148563,1,0,0,9.5763,c,0,3,3,5,1,,
,,,,,,,,,,Esha,2020-10-12_21h43.12.886,swahili,2020.2.4,Win32,60,,,,,,,,,,,,,,,,,,,,,,,,,,,,,,,,,,,,,,,,,,,,,,,,,,,,,,,,,,,,,,,,,,,,,,,,,,,,,,,,,,,She visited her father's ___ on the anniversary of his death. ,KABURI,,,KABURI,correct,0.357291687,-0.590981456,1,0,0,11.520145,c,0,4,4,12,1,,
,,,,,,,,,,Esha,2020-10-12_21h43.12.886,swahili,2020.2.4,Win32,60,,,,,,,,,,,,,,,,,,,,,,,,,,,,,,,,,,,,,,,,,,,,,,,,,,,,,,,,,,,,,,,,,,,,,,,,,,,,,,,,,,,Amy cooked a grilled ____ sandwich to go with her tomato soup.,JIBINI,,,JIBINI,correct,0.096354183,-0.493368723,1,0,0,6.26089,b,0,5,5,10,1,,
,,,,,,,,,,Esha,2020-10-12_21h43.12.886,swahili,2020.2.4,Win32,60,,,,,,,,,,,,,,,,,,,,,,,,,,,,,,,,,,,,,,,,,,,,,,,,,,,,,,,,,,,,,,,,,,,,,,,,,,,,,,,,,,,The _____ is living with foster parents.,YATIMA,,,YATIMA,correct,-0.12708332,-0.502917924,1,0,0,12.787175,b,0,6,6,16,1,,
,,,,,,,,,,Esha,2020-10-12_21h43.12.886,swahili,2020.2.4,Win32,60,,,,,,,,,,,,,,,,,,,,,,,,,,,,,,,,,,,,,,,,,,,,,,,,,,,,,,,,,,,,,,,,,,,,,,,,,,,,,,,,,,,_____ makes bread rise. ,HAMIRA,,,HAMIRA,correct,-0.614583328,-0.540053203,1,0,0,5.222955,a,0,7,7,4,1,,
,,,,,,,,,,Esha,2020-10-12_21h43.12.886,swahili,2020.2.4,Win32,60,,,,,,,,,,,,,,,,,,,,,,,,,,,,,,,,,,,,,,,,,,,,,,,,,,,,,,,,,,,,,,,,,,,,,,,,,,,,,,,,,,,The ____ is a bird that can learn to repeat words.,KASUKU,,,KASUKU,correct,0.439583355,-0.559151217,1,0,0,6.27298,c,0,8,8,1,1,,
,,,,,,,,,,Esha,2020-10-12_21h43.12.886,swahili,2020.2.4,Win32,60,,,,,,,,,,,,,,,,,,,,,,,,,,,,,,,,,,,,,,,,,,,,,,,,,,,,,,,,,,,,,,,,,,,,,,,,,,,,,,,,,,,The politician was arrested for taking a _____.,RUSHWA,,,RUSHWA,correct,0.35937502,-0.440318324,1,0,0,5.841245,c,0,9,9,15,1,,
,,,,,,,,,,Esha,2020-10-12_21h43.12.886,swahili,2020.2.4,Win32,60,,,,,,,,,,,,,,,,,,,,,,,,,,,,,,,,,,,,,,,,,,,,,,,,,,,,,,,,,,,,,,,,,,,,,,,,,,,,,,,,,,,You need a ______ to go fishing in the middle of a lake.,MASHUA,,,MASHUA,correct,0.457291816,-0.519893922,1,0,0,58.475725,c,0,10,10,18,1,,
,,,,,,,,,,Esha,2020-10-12_21h43.12.886,swahili,2020.2.4,Win32,60,,,,,,,,,,,,,,,,,,,,,,,,,,,,,,,,,,,,,,,,,,,,,,,,,,,,,,,,,,,,,,,,,,,,,,,,,,,,,,,,,,,Fermented _______ are used to make wine.,ZABIBU,,,ZABIBU,correct,0.412500021,-0.549602145,1,0,0,13.522615,c,0,11,11,11,1,,
,,,,,,,,,,Esha,2020-10-12_21h43.12.886,swahili,2020.2.4,Win32,60,,,,,,,,,,,,,,,,,,,,,,,,,,,,,,,,,,,,,,,,,,,,,,,,,,,,,,,,,,,,,,,,,,,,,,,,,,,,,,,,,,,Pirates looked for buried _________ at the bottom of the sea.,DAFINA,,,DAFINA,correct,0.374479187,-0.59416448,1,0,0,6.27403,c,0,12,12,19,1,,
,,,,,,,,,,Esha,2020-10-12_21h43.12.886,swahili,2020.2.4,Win32,60,,,,,,,,,,,,,,,,,,,,,,,,,,,,,,,,,,,,,,,,,,,,,,,,,,,,,,,,,,,,,,,,,,,,,,,,,,,,,,,,,,,Charles went to the ____ to get his suit adjusted. ,MSHONI,,,MSHONI,correct,0.348958353,-0.550663283,1,0,0,5.472135,c,0,13,13,9,1,,
,,,,,,,,,,Esha,2020-10-12_21h43.12.886,swahili,2020.2.4,Win32,60,,,,,,,,,,,,,,,,,,,,,,,,,,,,,,,,,,,,,,,,,,,,,,,,,,,,,,,,,,,,,,,,,,,,,,,,,,,,,,,,,,,I bought all my goods from the ____ at the market. ,TAJIRI,,,TAJIRI,correct,0.112500017,-0.492307844,1,0,0,5.721955,b,0,14,14,0,1,,
,,,,,,,,,,Esha,2020-10-12_21h43.12.886,swahili,2020.2.4,Win32,60,,,,,,,,,,,,,,,,,,,,,,,,,,,,,,,,,,,,,,,,,,,,,,,,,,,,,,,,,,,,,,,,,,,,,,,,,,,,,,,,,,,"On a farm, there is a good chance you will step into a pile of ______.",SAMADI,,,SAMADI,correct,-0.368229157,-0.495490738,1,0,0,5.822925,a,0,15,15,13,1,,
,,,,,,,,,,Esha,2020-10-12_21h43.12.886,swahili,2020.2.4,Win32,60,,,,,,,,,,,,,,,,,,,,,,,,,,,,,,,,,,,,,,,,,,,,,,,,,,,,,,,,,,,,,,,,,,,,,,,,,,,,,,,,,,,The ____ charged the matador's red cape. ,FAHILI,,,FAHILI,correct,-0.651562495,-0.391512087,1,0,0,20.222795,a,0,16,16,2,1,,
,,,,,,,,,,Esha,2020-10-12_21h43.12.886,swahili,2020.2.4,Win32,60,,,,,,,,,,,,,,,,,,,,,,,,,,,,,,,,,,,,,,,,,,,,,,,,,,,,,,,,,,,,,,,,,,,,,,,,,,,,,,,,,,,The president takes the  ____ of office to uphold the Constitution.,YAMINI,,,YAMINI,correct,-0.362499991,-0.579310368,1,0,0,32.75784,a,0,17,17,6,1,,
,,,,,,,,,,Esha,2020-10-12_21h43.12.886,swahili,2020.2.4,Win32,60,,,,,,,,,,,,,,,,,,,,,,,,,,,,,,,,,,,,,,,,,,,,,,,,,,,,,,,,,,,,,,,,,,,,,,,,,,,,,,,,,,,David wrote Cynthia a romantic ____  but she thought it rhymed too much.,UTENZI,,,UTENZI,correct,-0.126041654,-0.535809041,1,0,0,7.48904,b,0,18,18,8,1,,
,,,,,,,,,,Esha,2020-10-12_21h43.12.886,swahili,2020.2.4,Win32,60,,,,,,,,,,,,,,,,,,,,,,,,,,,,,,,,,,,,,,,,,,,,,,,,,,,,,,,,,,,,,,,,,,,,,,,,,,,,,,,,,,,I filled my ____ with food at the buffet. ,SAHANI,,,SAHANI,correct,0.36250002,-0.555968322,1,0,0,6.821455,c,0,19,19,3,1,,
,,,,,,,,,,Esha,2020-10-12_21h43.12.886,swahili,2020.2.4,Win32,60,,,,,,,,,,,,,,,,,,,,,,,,,,,,,,,,,,,,,,,,,,,,,,,,,,,,,,,,,,,,,,,,,,,,,,,,,,,,,,,,,,,,,,,,,,,,,,,,,,,,,return,11.071865
