condition,consent_key.keys,consent_key.rt,done_with_instructions.keys,done_with_instructions.rt,instr_loop.thisRepN,instr_loop.thisTrialN,instr_loop.thisN,instr_loop.thisIndex,instr_loop.ran,Student ID #,date,expName,psychopyVersion,OS,frameRate,instr_learning_key.keys,instr_learning_key.rt,card_gen_loop.thisRepN,card_gen_loop.thisTrialN,card_gen_loop.thisN,card_gen_loop.thisIndex,card_gen_loop.ran,swa,eng,choose_pile.x,choose_pile.y,choose_pile.leftButton,choose_pile.midButton,choose_pile.rightButton,choose_pile.time,choose_pile.clicked_name,choices.thisRepN,choices.thisTrialN,choices.thisN,choices.thisIndex,choices.ran,card_to_show,mouse_pick.x,mouse_pick.y,mouse_pick.leftButton,mouse_pick.midButton,mouse_pick.rightButton,mouse_pick.time,mouse_pick.clicked_name,key_instr_study.keys,key_instr_study.rt,next_study.keys,next_study.rt,study_loop.thisRepN,study_loop.thisTrialN,study_loop.thisN,study_loop.thisIndex,study_loop.ran,key_instr_test.keys,learn_loop.thisRepN,learn_loop.thisTrialN,learn_loop.thisN,learn_loop.thisIndex,learn_loop.ran,trials.thisRepN,trials.thisTrialN,trials.thisN,trials.thisIndex,trials.ran,key_instr_test.rt,duration,yes_or_no.x,yes_or_no.y,yes_or_no.leftButton,yes_or_no.midButton,yes_or_no.rightButton,yes_or_no.time,yes_or_no.clicked_name,test_response.stim,test_response.resp,test_response.eval,test_loop.thisRepN,test_loop.thisTrialN,test_loop.thisN,test_loop.thisIndex,test_loop.ran,instr_movie_key.keys,instr_movie_key.rt,return_to_exp.keys,return_to_exp.rt,instr_assess_key.keys,instr_assess_key.rt,assess_loop.thisRepN,assess_loop.thisTrialN,assess_loop.thisN,assess_loop.thisIndex,assess_loop.ran,ans_gen_loop.thisRepN,ans_gen_loop.thisTrialN,ans_gen_loop.thisN,ans_gen_loop.thisIndex,ans_gen_loop.ran,sen,ans,instr_transfer_key.keys,instr_transfer_key.rt,transfer_response.resp,transfer_response.eval,select_word.x,select_word.y,select_word.leftButton,select_word.midButton,select_word.rightButton,select_word.time,select_word.clicked_name,transfers.thisRepN,transfers.thisTrialN,transfers.thisN,transfers.thisIndex,transfers.ran,end_experiment.keys,end_experiment.rt
1,return,20.60016,return,24.669645,0,0,0,0,1,00001467057,2020-10-22_21h53.01.928,swahili,2020.2.4,MacIntel,60,,,,,,,,,,,,,,,,,,,,,,,,,,,,,,,,,,,,,,,,,,,,,,,,,,,,,,,,,,,,,,,,,,,,,,,,,,,,,,,,,,,,,,,,,,,,,,,,,,,,,,
,,,,,,,,,,00001467057,2020-10-22_21h53.01.928,swahili,2020.2.4,MacIntel,60,return,18.9986,0,0,0,0,1,TAJIRI,MERCHANT,,,,,,,,,,,,,,,,,,,,,,,,,,,,,,,,,,,,,,,,,,,,,,,,,,,,,,,,,,,,,,,,,,,,,,,,,,,,,,,,,,,,,,,,,,,,,
,,,,,,,,,,00001467057,2020-10-22_21h53.01.928,swahili,2020.2.4,MacIntel,60,,,0,1,1,1,1,KASUKU,PARROT,,,,,,,,,,,,,,,,,,,,,,,,,,,,,,,,,,,,,,,,,,,,,,,,,,,,,,,,,,,,,,,,,,,,,,,,,,,,,,,,,,,,,,,,,,,,,
,,,,,,,,,,00001467057,2020-10-22_21h53.01.928,swahili,2020.2.4,MacIntel,60,,,0,2,2,2,1,FAHILI,BULL,,,,,,,,,,,,,,,,,,,,,,,,,,,,,,,,,,,,,,,,,,,,,,,,,,,,,,,,,,,,,,,,,,,,,,,,,,,,,,,,,,,,,,,,,,,,,
,,,,,,,,,,00001467057,2020-10-22_21h53.01.928,swahili,2020.2.4,MacIntel,60,,,0,3,3,3,1,SAHANI,PLATE,,,,,,,,,,,,,,,,,,,,,,,,,,,,,,,,,,,,,,,,,,,,,,,,,,,,,,,,,,,,,,,,,,,,,,,,,,,,,,,,,,,,,,,,,,,,,
,,,,,,,,,,00001467057,2020-10-22_21h53.01.928,swahili,2020.2.4,MacIntel,60,,,0,4,4,4,1,HAMIRA,YEAST,,,,,,,,,,,,,,,,,,,,,,,,,,,,,,,,,,,,,,,,,,,,,,,,,,,,,,,,,,,,,,,,,,,,,,,,,,,,,,,,,,,,,,,,,,,,,
,,,,,,,,,,00001467057,2020-10-22_21h53.01.928,swahili,2020.2.4,MacIntel,60,,,0,5,5,5,1,LAWAMA,BLAME,,,,,,,,,,,,,,,,,,,,,,,,,,,,,,,,,,,,,,,,,,,,,,,,,,,,,,,,,,,,,,,,,,,,,,,,,,,,,,,,,,,,,,,,,,,,,
,,,,,,,,,,00001467057,2020-10-22_21h53.01.928,swahili,2020.2.4,MacIntel,60,,,0,6,6,6,1,YAMINI,OATH,,,,,,,,,,,,,,,,,,,,,,,,,,,,,,,,,,,,,,,,,,,,,,,,,,,,,,,,,,,,,,,,,,,,,,,,,,,,,,,,,,,,,,,,,,,,,
,,,,,,,,,,00001467057,2020-10-22_21h53.01.928,swahili,2020.2.4,MacIntel,60,,,0,7,7,7,1,NAFAKA,CORN,,,,,,,,,,,,,,,,,,,,,,,,,,,,,,,,,,,,,,,,,,,,,,,,,,,,,,,,,,,,,,,,,,,,,,,,,,,,,,,,,,,,,,,,,,,,,
,,,,,,,,,,00001467057,2020-10-22_21h53.01.928,swahili,2020.2.4,MacIntel,60,,,0,8,8,8,1,UTENZI,POEM,,,,,,,,,,,,,,,,,,,,,,,,,,,,,,,,,,,,,,,,,,,,,,,,,,,,,,,,,,,,,,,,,,,,,,,,,,,,,,,,,,,,,,,,,,,,,
,,,,,,,,,,00001467057,2020-10-22_21h53.01.928,swahili,2020.2.4,MacIntel,60,,,0,9,9,9,1,MSHONI,TAILOR,,,,,,,,,,,,,,,,,,,,,,,,,,,,,,,,,,,,,,,,,,,,,,,,,,,,,,,,,,,,,,,,,,,,,,,,,,,,,,,,,,,,,,,,,,,,,
,,,,,,,,,,00001467057,2020-10-22_21h53.01.928,swahili,2020.2.4,MacIntel,60,,,0,10,10,10,1,JIBINI,CHEESE,,,,,,,,,,,,,,,,,,,,,,,,,,,,,,,,,,,,,,,,,,,,,,,,,,,,,,,,,,,,,,,,,,,,,,,,,,,,,,,,,,,,,,,,,,,,,
,,,,,,,,,,00001467057,2020-10-22_21h53.01.928,swahili,2020.2.4,MacIntel,60,,,0,11,11,11,1,ZABIBU,GRAPES,,,,,,,,,,,,,,,,,,,,,,,,,,,,,,,,,,,,,,,,,,,,,,,,,,,,,,,,,,,,,,,,,,,,,,,,,,,,,,,,,,,,,,,,,,,,,
,,,,,,,,,,00001467057,2020-10-22_21h53.01.928,swahili,2020.2.4,MacIntel,60,,,0,12,12,12,1,KABURI,GRAVE,,,,,,,,,,,,,,,,,,,,,,,,,,,,,,,,,,,,,,,,,,,,,,,,,,,,,,,,,,,,,,,,,,,,,,,,,,,,,,,,,,,,,,,,,,,,,
,,,,,,,,,,00001467057,2020-10-22_21h53.01.928,swahili,2020.2.4,MacIntel,60,,,0,13,13,13,1,SAMADI,MANURE,,,,,,,,,,,,,,,,,,,,,,,,,,,,,,,,,,,,,,,,,,,,,,,,,,,,,,,,,,,,,,,,,,,,,,,,,,,,,,,,,,,,,,,,,,,,,
,,,,,,,,,,00001467057,2020-10-22_21h53.01.928,swahili,2020.2.4,MacIntel,60,,,0,14,14,14,1,WAKILI,AGENT,,,,,,,,,,,,,,,,,,,,,,,,,,,,,,,,,,,,,,,,,,,,,,,,,,,,,,,,,,,,,,,,,,,,,,,,,,,,,,,,,,,,,,,,,,,,,
,,,,,,,,,,00001467057,2020-10-22_21h53.01.928,swahili,2020.2.4,MacIntel,60,,,0,15,15,15,1,RUSHWA,BRIBE,,,,,,,,,,,,,,,,,,,,,,,,,,,,,,,,,,,,,,,,,,,,,,,,,,,,,,,,,,,,,,,,,,,,,,,,,,,,,,,,,,,,,,,,,,,,,
,,,,,,,,,,00001467057,2020-10-22_21h53.01.928,swahili,2020.2.4,MacIntel,60,,,0,16,16,16,1,YATIMA,ORPHAN,,,,,,,,,,,,,,,,,,,,,,,,,,,,,,,,,,,,,,,,,,,,,,,,,,,,,,,,,,,,,,,,,,,,,,,,,,,,,,,,,,,,,,,,,,,,,
,,,,,,,,,,00001467057,2020-10-22_21h53.01.928,swahili,2020.2.4,MacIntel,60,,,0,17,17,17,1,TALAKA,DIVORCE,,,,,,,,,,,,,,,,,,,,,,,,,,,,,,,,,,,,,,,,,,,,,,,,,,,,,,,,,,,,,,,,,,,,,,,,,,,,,,,,,,,,,,,,,,,,,
,,,,,,,,,,00001467057,2020-10-22_21h53.01.928,swahili,2020.2.4,MacIntel,60,,,0,18,18,18,1,MASHUA,BOAT,,,,,,,,,,,,,,,,,,,,,,,,,,,,,,,,,,,,,,,,,,,,,,,,,,,,,,,,,,,,,,,,,,,,,,,,,,,,,,,,,,,,,,,,,,,,,
,,,,,,,,,,00001467057,2020-10-22_21h53.01.928,swahili,2020.2.4,MacIntel,60,,,0,19,19,19,1,DAFINA,TREASURE,,,,,,,,,,,,,,,,,,,,,,,,,,,,,,,,,,,,,,,,,,,,,,,,,,,,,,,,,,,,,,,,,,,,,,,,,,,,,,,,,,,,,,,,,,,,,
,,,,,,,,,,00001467057,2020-10-22_21h53.01.928,swahili,2020.2.4,MacIntel,60,,,,,,,,,,-0.354709201,0.043697917,1,0,0,8.648465,unsorted_card,0,0,0,0,1,,,,,,,,,,,,,,,,,,,,,,,,,,,,,,,,,,,,,,,,,,,,,,,,,,,,,,,,,,,,,,,,,,,,,,,,,,,,,,,,,
,,,,,,,,,,00001467057,2020-10-22_21h53.01.928,swahili,2020.2.4,MacIntel,60,,,,,,,,,,-0.344346788,-0.144939236,1,0,0,4.22607,unsorted_card,1,0,1,0,1,MERCHANT - TAJIRI,,,,,,,,,,,,,,,,,,,,,,,,,,,,,,,,,,,,,,,,,,,,,,,,,,,,,,,,,,,,,,,,,,,,,,,,,,,,,,,,
,,,,,,,,,,00001467057,2020-10-22_21h53.01.928,swahili,2020.2.4,MacIntel,60,,,,,,,,,,0.465185547,0.490546875,1,0,0,0.981345,study_pile,2,0,2,0,1,MERCHANT - TAJIRI,,,,,,,,,,,,,,,,,,,,,,,,,,,,,,,,,,,,,,,,,,,,,,,,,,,,,,,,,,,,,,,,,,,,,,,,,,,,,,,,
,,,,,,,,,,00001467057,2020-10-22_21h53.01.928,swahili,2020.2.4,MacIntel,60,,,,,,,,,,-0.303548177,-0.061727431,1,0,0,1.148065,unsorted_card,3,0,3,0,1,,,,,,,,,,,,,,,,,,,,,,,,,,,,,,,,,,,,,,,,,,,,,,,,,,,,,,,,,,,,,,,,,,,,,,,,,,,,,,,,,
,,,,,,,,,,00001467057,2020-10-22_21h53.01.928,swahili,2020.2.4,MacIntel,60,,,,,,,,,,0.469455295,0.43375,1,0,0,3.095195,study_pile,4,0,4,0,1,PARROT - KASUKU,,,,,,,,,,,,,,,,,,,,,,,,,,,,,,,,,,,,,,,,,,,,,,,,,,,,,,,,,,,,,,,,,,,,,,,,,,,,,,,,
,,,,,,,,,,00001467057,2020-10-22_21h53.01.928,swahili,2020.2.4,MacIntel,60,,,,,,,,,,-0.267762587,-0.062934028,1,0,0,0.81648,unsorted_card,5,0,5,0,1,,,,,,,,,,,,,,,,,,,,,,,,,,,,,,,,,,,,,,,,,,,,,,,,,,,,,,,,,,,,,,,,,,,,,,,,,,,,,,,,,
,,,,,,,,,,00001467057,2020-10-22_21h53.01.928,swahili,2020.2.4,MacIntel,60,,,,,,,,,,0.407481554,0.473012153,1,0,0,2.42984,study_pile,6,0,6,0,1,BULL - FAHILI,,,,,,,,,,,,,,,,,,,,,,,,,,,,,,,,,,,,,,,,,,,,,,,,,,,,,,,,,,,,,,,,,,,,,,,,,,,,,,,,
,,,,,,,,,,00001467057,2020-10-22_21h53.01.928,swahili,2020.2.4,MacIntel,60,,,,,,,,,,-0.453282335,-0.141840278,1,0,0,0.733735,unsorted_card,7,0,7,0,1,,,,,,,,,,,,,,,,,,,,,,,,,,,,,,,,,,,,,,,,,,,,,,,,,,,,,,,,,,,,,,,,,,,,,,,,,,,,,,,,,
,,,,,,,,,,00001467057,2020-10-22_21h53.01.928,swahili,2020.2.4,MacIntel,60,,,,,,,,,,0.472932943,0.488758681,1,0,0,1.91127,study_pile,8,0,8,0,1,PLATE - SAHANI,,,,,,,,,,,,,,,,,,,,,,,,,,,,,,,,,,,,,,,,,,,,,,,,,,,,,,,,,,,,,,,,,,,,,,,,,,,,,,,,
,,,,,,,,,,00001467057,2020-10-22_21h53.01.928,swahili,2020.2.4,MacIntel,60,,,,,,,,,,-0.324538845,0.044340278,1,0,0,0.66468,unsorted_card,9,0,9,0,1,,,,,,,,,,,,,,,,,,,,,,,,,,,,,,,,,,,,,,,,,,,,,,,,,,,,,,,,,,,,,,,,,,,,,,,,,,,,,,,,,
,,,,,,,,,,00001467057,2020-10-22_21h53.01.928,swahili,2020.2.4,MacIntel,60,,,,,,,,,,0.494227431,0.544479167,1,0,0,2.098595,study_pile,10,0,10,0,1,YEAST - HAMIRA,,,,,,,,,,,,,,,,,,,,,,,,,,,,,,,,,,,,,,,,,,,,,,,,,,,,,,,,,,,,,,,,,,,,,,,,,,,,,,,,
,,,,,,,,,,00001467057,2020-10-22_21h53.01.928,swahili,2020.2.4,MacIntel,60,,,,,,,,,,-0.272623698,-0.045277778,1,0,0,1.327025,unsorted_card,11,0,11,0,1,,,,,,,,,,,,,,,,,,,,,,,,,,,,,,,,,,,,,,,,,,,,,,,,,,,,,,,,,,,,,,,,,,,,,,,,,,,,,,,,,
,,,,,,,,,,00001467057,2020-10-22_21h53.01.928,swahili,2020.2.4,MacIntel,60,,,,,,,,,,0.367165799,0.440520833,1,0,0,4.26592,study_pile,12,0,12,0,1,BLAME - LAWAMA,,,,,,,,,,,,,,,,,,,,,,,,,,,,,,,,,,,,,,,,,,,,,,,,,,,,,,,,,,,,,,,,,,,,,,,,,,,,,,,,
,,,,,,,,,,00001467057,2020-10-22_21h53.01.928,swahili,2020.2.4,MacIntel,60,,,,,,,,,,-0.300282118,-0.058828125,1,0,0,0.68179,unsorted_card,13,0,13,0,1,,,,,,,,,,,,,,,,,,,,,,,,,,,,,,,,,,,,,,,,,,,,,,,,,,,,,,,,,,,,,,,,,,,,,,,,,,,,,,,,,
,,,,,,,,,,00001467057,2020-10-22_21h53.01.928,swahili,2020.2.4,MacIntel,60,,,,,,,,,,0.397287326,0.533810764,1,0,0,1.88208,study_pile,14,0,14,0,1,OATH - YAMINI,,,,,,,,,,,,,,,,,,,,,,,,,,,,,,,,,,,,,,,,,,,,,,,,,,,,,,,,,,,,,,,,,,,,,,,,,,,,,,,,
,,,,,,,,,,00001467057,2020-10-22_21h53.01.928,swahili,2020.2.4,MacIntel,60,,,,,,,,,,-0.327929688,-0.163220486,1,0,0,0.66383,unsorted_card,15,0,15,0,1,,,,,,,,,,,,,,,,,,,,,,,,,,,,,,,,,,,,,,,,,,,,,,,,,,,,,,,,,,,,,,,,,,,,,,,,,,,,,,,,,
,,,,,,,,,,00001467057,2020-10-22_21h53.01.928,swahili,2020.2.4,MacIntel,60,,,,,,,,,,0.442659505,0.424487847,1,0,0,1.463675,study_pile,16,0,16,0,1,CORN - NAFAKA,,,,,,,,,,,,,,,,,,,,,,,,,,,,,,,,,,,,,,,,,,,,,,,,,,,,,,,,,,,,,,,,,,,,,,,,,,,,,,,,
,,,,,,,,,,00001467057,2020-10-22_21h53.01.928,swahili,2020.2.4,MacIntel,60,,,,,,,,,,-0.158555773,-0.103524306,1,0,0,0.645505,unsorted_card,17,0,17,0,1,,,,,,,,,,,,,,,,,,,,,,,,,,,,,,,,,,,,,,,,,,,,,,,,,,,,,,,,,,,,,,,,,,,,,,,,,,,,,,,,,
,,,,,,,,,,00001467057,2020-10-22_21h53.01.928,swahili,2020.2.4,MacIntel,60,,,,,,,,,,0.490890842,0.470616319,1,0,0,1.65031,study_pile,18,0,18,0,1,POEM - UTENZI,,,,,,,,,,,,,,,,,,,,,,,,,,,,,,,,,,,,,,,,,,,,,,,,,,,,,,,,,,,,,,,,,,,,,,,,,,,,,,,,
,,,,,,,,,,00001467057,2020-10-22_21h53.01.928,swahili,2020.2.4,MacIntel,60,,,,,,,,,,-0.136631944,-0.078315972,1,0,0,0.979445,unsorted_card,19,0,19,0,1,,,,,,,,,,,,,,,,,,,,,,,,,,,,,,,,,,,,,,,,,,,,,,,,,,,,,,,,,,,,,,,,,,,,,,,,,,,,,,,,,
,,,,,,,,,,00001467057,2020-10-22_21h53.01.928,swahili,2020.2.4,MacIntel,60,,,,,,,,,,0.487353516,0.474704861,1,0,0,5.432445,study_pile,20,0,20,0,1,TAILOR - MSHONI,,,,,,,,,,,,,,,,,,,,,,,,,,,,,,,,,,,,,,,,,,,,,,,,,,,,,,,,,,,,,,,,,,,,,,,,,,,,,,,,
,,,,,,,,,,00001467057,2020-10-22_21h53.01.928,swahili,2020.2.4,MacIntel,60,,,,,,,,,,-0.186398655,-0.0221875,1,0,0,0.728825,unsorted_card,21,0,21,0,1,,,,,,,,,,,,,,,,,,,,,,,,,,,,,,,,,,,,,,,,,,,,,,,,,,,,,,,,,,,,,,,,,,,,,,,,,,,,,,,,,
,,,,,,,,,,00001467057,2020-10-22_21h53.01.928,swahili,2020.2.4,MacIntel,60,,,,,,,,,,0.401991102,0.415017361,1,0,0,2.234605,study_pile,22,0,22,0,1,CHEESE - JIBINI,,,,,,,,,,,,,,,,,,,,,,,,,,,,,,,,,,,,,,,,,,,,,,,,,,,,,,,,,,,,,,,,,,,,,,,,,,,,,,,,
,,,,,,,,,,00001467057,2020-10-22_21h53.01.928,swahili,2020.2.4,MacIntel,60,,,,,,,,,,-0.227783203,-0.021753472,1,0,0,0.67885,unsorted_card,23,0,23,0,1,,,,,,,,,,,,,,,,,,,,,,,,,,,,,,,,,,,,,,,,,,,,,,,,,,,,,,,,,,,,,,,,,,,,,,,,,,,,,,,,,
,,,,,,,,,,00001467057,2020-10-22_21h53.01.928,swahili,2020.2.4,MacIntel,60,,,,,,,,,,0.453412543,0.464765625,1,0,0,4.034985,study_pile,24,0,24,0,1,GRAPES - ZABIBU,,,,,,,,,,,,,,,,,,,,,,,,,,,,,,,,,,,,,,,,,,,,,,,,,,,,,,,,,,,,,,,,,,,,,,,,,,,,,,,,
,,,,,,,,,,00001467057,2020-10-22_21h53.01.928,swahili,2020.2.4,MacIntel,60,,,,,,,,,,-0.175754123,-0.057630208,1,0,0,0.660185,unsorted_card,25,0,25,0,1,,,,,,,,,,,,,,,,,,,,,,,,,,,,,,,,,,,,,,,,,,,,,,,,,,,,,,,,,,,,,,,,,,,,,,,,,,,,,,,,,
,,,,,,,,,,00001467057,2020-10-22_21h53.01.928,swahili,2020.2.4,MacIntel,60,,,,,,,,,,0.436187066,0.470555556,1,0,0,4.59849,study_pile,26,0,26,0,1,GRAVE - KABURI,,,,,,,,,,,,,,,,,,,,,,,,,,,,,,,,,,,,,,,,,,,,,,,,,,,,,,,,,,,,,,,,,,,,,,,,,,,,,,,,
,,,,,,,,,,00001467057,2020-10-22_21h53.01.928,swahili,2020.2.4,MacIntel,60,,,,,,,,,,-0.160107422,-0.066857639,1,0,0,1.462185,unsorted_card,27,0,27,0,1,,,,,,,,,,,,,,,,,,,,,,,,,,,,,,,,,,,,,,,,,,,,,,,,,,,,,,,,,,,,,,,,,,,,,,,,,,,,,,,,,
,,,,,,,,,,00001467057,2020-10-22_21h53.01.928,swahili,2020.2.4,MacIntel,60,,,,,,,,,,0.577566189,0.555729167,1,0,0,4.670165,study_pile,28,0,28,0,1,MANURE - SAMADI,,,,,,,,,,,,,,,,,,,,,,,,,,,,,,,,,,,,,,,,,,,,,,,,,,,,,,,,,,,,,,,,,,,,,,,,,,,,,,,,
,,,,,,,,,,00001467057,2020-10-22_21h53.01.928,swahili,2020.2.4,MacIntel,60,,,,,,,,,,-0.165424262,-0.136397569,1,0,0,0.91073,unsorted_card,29,0,29,0,1,,,,,,,,,,,,,,,,,,,,,,,,,,,,,,,,,,,,,,,,,,,,,,,,,,,,,,,,,,,,,,,,,,,,,,,,,,,,,,,,,
,,,,,,,,,,00001467057,2020-10-22_21h53.01.928,swahili,2020.2.4,MacIntel,60,,,,,,,,,,0.429899089,0.491128472,1,0,0,3.250385,study_pile,30,0,30,0,1,AGENT - WAKILI,,,,,,,,,,,,,,,,,,,,,,,,,,,,,,,,,,,,,,,,,,,,,,,,,,,,,,,,,,,,,,,,,,,,,,,,,,,,,,,,
,,,,,,,,,,00001467057,2020-10-22_21h53.01.928,swahili,2020.2.4,MacIntel,60,,,,,,,,,,-0.228738064,-0.105008681,1,0,0,0.88091,unsorted_card,31,0,31,0,1,,,,,,,,,,,,,,,,,,,,,,,,,,,,,,,,,,,,,,,,,,,,,,,,,,,,,,,,,,,,,,,,,,,,,,,,,,,,,,,,,
,,,,,,,,,,00001467057,2020-10-22_21h53.01.928,swahili,2020.2.4,MacIntel,60,,,,,,,,,,0.365370009,0.438871528,1,0,0,3.79424,study_pile,32,0,32,0,1,BRIBE - RUSHWA,,,,,,,,,,,,,,,,,,,,,,,,,,,,,,,,,,,,,,,,,,,,,,,,,,,,,,,,,,,,,,,,,,,,,,,,,,,,,,,,
,,,,,,,,,,00001467057,2020-10-22_21h53.01.928,swahili,2020.2.4,MacIntel,60,,,,,,,,,,-0.261024306,-0.102560764,1,0,0,0.64914,unsorted_card,33,0,33,0,1,,,,,,,,,,,,,,,,,,,,,,,,,,,,,,,,,,,,,,,,,,,,,,,,,,,,,,,,,,,,,,,,,,,,,,,,,,,,,,,,,
,,,,,,,,,,00001467057,2020-10-22_21h53.01.928,swahili,2020.2.4,MacIntel,60,,,,,,,,,,0.434331597,0.464817708,1,0,0,3.866265,study_pile,34,0,34,0,1,ORPHAN - YATIMA,,,,,,,,,,,,,,,,,,,,,,,,,,,,,,,,,,,,,,,,,,,,,,,,,,,,,,,,,,,,,,,,,,,,,,,,,,,,,,,,
,,,,,,,,,,00001467057,2020-10-22_21h53.01.928,swahili,2020.2.4,MacIntel,60,,,,,,,,,,-0.138378906,-0.04015625,1,0,0,0.878765,unsorted_card,35,0,35,0,1,,,,,,,,,,,,,,,,,,,,,,,,,,,,,,,,,,,,,,,,,,,,,,,,,,,,,,,,,,,,,,,,,,,,,,,,,,,,,,,,,
,,,,,,,,,,00001467057,2020-10-22_21h53.01.928,swahili,2020.2.4,MacIntel,60,,,,,,,,,,0.41726888,0.414791667,1,0,0,3.5471,study_pile,36,0,36,0,1,DIVORCE - TALAKA,,,,,,,,,,,,,,,,,,,,,,,,,,,,,,,,,,,,,,,,,,,,,,,,,,,,,,,,,,,,,,,,,,,,,,,,,,,,,,,,
,,,,,,,,,,00001467057,2020-10-22_21h53.01.928,swahili,2020.2.4,MacIntel,60,,,,,,,,,,-0.219227431,-0.141875,1,0,0,0.915995,unsorted_card,37,0,37,0,1,,,,,,,,,,,,,,,,,,,,,,,,,,,,,,,,,,,,,,,,,,,,,,,,,,,,,,,,,,,,,,,,,,,,,,,,,,,,,,,,,
,,,,,,,,,,00001467057,2020-10-22_21h53.01.928,swahili,2020.2.4,MacIntel,60,,,,,,,,,,0.394590929,0.512309028,1,0,0,3.22921,study_pile,38,0,38,0,1,BOAT - MASHUA,,,,,,,,,,,,,,,,,,,,,,,,,,,,,,,,,,,,,,,,,,,,,,,,,,,,,,,,,,,,,,,,,,,,,,,,,,,,,,,,
,,,,,,,,,,00001467057,2020-10-22_21h53.01.928,swahili,2020.2.4,MacIntel,60,,,,,,,,,,-0.206152344,0.030651042,1,0,0,0.90064,unsorted_card,39,0,39,0,1,,,,,,,,,,,,,,,,,,,,,,,,,,,,,,,,,,,,,,,,,,,,,,,,,,,,,,,,,,,,,,,,,,,,,,,,,,,,,,,,,
,,,,,,,,,,00001467057,2020-10-22_21h53.01.928,swahili,2020.2.4,MacIntel,60,,,,,,,,,,0.35671658,0.444791667,1,0,0,2.48114,study_pile,40,0,40,0,1,TREASURE - DAFINA,,,,,,,,,,,,,,,,,,,,,,,,,,,,,,,,,,,,,,,,,,,,,,,,,,,,,,,,,,,,,,,,,,,,,,,,,,,,,,,,
,,,,,,,,,,00001467057,2020-10-22_21h53.01.928,swahili,2020.2.4,MacIntel,60,,,,,,,,,,,,,,,,,,,,,,OATH - YAMINI,,,,,,,,return,15.13847,return,7.17294,0,0,0,0,1,,,,,,,,,,,,,,,,,,,,,,,,,,,,,,,,,,,,,,,,,,,,,,,,,,,,,,,,,,,,,,,,
,,,,,,,,,,00001467057,2020-10-22_21h53.01.928,swahili,2020.2.4,MacIntel,60,,,,,,,,,,,,,,,,,,,,,,YEAST - HAMIRA,,,,,,,,,,return,23.43758,1,0,1,0,1,,,,,,,,,,,,,,,,,,,,,,,,,,,,,,,,,,,,,,,,,,,,,,,,,,,,,,,,,,,,,,,,
,,,,,,,,,,00001467057,2020-10-22_21h53.01.928,swahili,2020.2.4,MacIntel,60,,,,,,,,,,,,,,,,,,,,,,BULL - FAHILI,,,,,,,,,,return,6.801385,2,0,2,0,1,,,,,,,,,,,,,,,,,,,,,,,,,,,,,,,,,,,,,,,,,,,,,,,,,,,,,,,,,,,,,,,,
,,,,,,,,,,00001467057,2020-10-22_21h53.01.928,swahili,2020.2.4,MacIntel,60,,,,,,,,,,,,,,,,,,,,,,AGENT - WAKILI,,,,,,,,,,return,19.23708,3,0,3,0,1,,,,,,,,,,,,,,,,,,,,,,,,,,,,,,,,,,,,,,,,,,,,,,,,,,,,,,,,,,,,,,,,
,,,,,,,,,,00001467057,2020-10-22_21h53.01.928,swahili,2020.2.4,MacIntel,60,,,,,,,,,,,,,,,,,,,,,,PARROT - KASUKU,,,,,,,,,,return,6.53622,4,0,4,0,1,,,,,,,,,,,,,,,,,,,,,,,,,,,,,,,,,,,,,,,,,,,,,,,,,,,,,,,,,,,,,,,,
,,,,,,,,,,00001467057,2020-10-22_21h53.01.928,swahili,2020.2.4,MacIntel,60,,,,,,,,,,,,,,,,,,,,,,POEM - UTENZI,,,,,,,,,,return,7.330055,5,0,5,0,1,,,,,,,,,,,,,,,,,,,,,,,,,,,,,,,,,,,,,,,,,,,,,,,,,,,,,,,,,,,,,,,,
,,,,,,,,,,00001467057,2020-10-22_21h53.01.928,swahili,2020.2.4,MacIntel,60,,,,,,,,,,,,,,,,,,,,,,BLAME - LAWAMA,,,,,,,,,,return,4.627335,6,0,6,0,1,,,,,,,,,,,,,,,,,,,,,,,,,,,,,,,,,,,,,,,,,,,,,,,,,,,,,,,,,,,,,,,,
,,,,,,,,,,00001467057,2020-10-22_21h53.01.928,swahili,2020.2.4,MacIntel,60,,,,,,,,,,,,,,,,,,,,,,PLATE - SAHANI,,,,,,,,,,return,15.30192,7,0,7,0,1,,,,,,,,,,,,,,,,,,,,,,,,,,,,,,,,,,,,,,,,,,,,,,,,,,,,,,,,,,,,,,,,
,,,,,,,,,,00001467057,2020-10-22_21h53.01.928,swahili,2020.2.4,MacIntel,60,,,,,,,,,,,,,,,,,,,,,,CORN - NAFAKA,,,,,,,,,,return,8.31965,8,0,8,0,1,,,,,,,,,,,,,,,,,,,,,,,,,,,,,,,,,,,,,,,,,,,,,,,,,,,,,,,,,,,,,,,,
,,,,,,,,,,00001467057,2020-10-22_21h53.01.928,swahili,2020.2.4,MacIntel,60,,,,,,,,,,,,,,,,,,,,,,DIVORCE - TALAKA,,,,,,,,,,return,5.187145,9,0,9,0,1,,,,,,,,,,,,,,,,,,,,,,,,,,,,,,,,,,,,,,,,,,,,,,,,,,,,,,,,,,,,,,,,
,,,,,,,,,,00001467057,2020-10-22_21h53.01.928,swahili,2020.2.4,MacIntel,60,,,,,,,,,,,,,,,,,,,,,,TAILOR - MSHONI,,,,,,,,,,return,6.15507,10,0,10,0,1,,,,,,,,,,,,,,,,,,,,,,,,,,,,,,,,,,,,,,,,,,,,,,,,,,,,,,,,,,,,,,,,
,,,,,,,,,,00001467057,2020-10-22_21h53.01.928,swahili,2020.2.4,MacIntel,60,,,,,,,,,,,,,,,,,,,,,,BRIBE - RUSHWA,,,,,,,,,,return,8.698595,11,0,11,0,1,,,,,,,,,,,,,,,,,,,,,,,,,,,,,,,,,,,,,,,,,,,,,,,,,,,,,,,,,,,,,,,,
,,,,,,,,,,00001467057,2020-10-22_21h53.01.928,swahili,2020.2.4,MacIntel,60,,,,,,,,,,,,,,,,,,,,,,GRAPES - ZABIBU,,,,,,,,,,return,5.54193,12,0,12,0,1,,,,,,,,,,,,,,,,,,,,,,,,,,,,,,,,,,,,,,,,,,,,,,,,,,,,,,,,,,,,,,,,
,,,,,,,,,,00001467057,2020-10-22_21h53.01.928,swahili,2020.2.4,MacIntel,60,,,,,,,,,,,,,,,,,,,,,,CHEESE - JIBINI,,,,,,,,,,return,5.07628,13,0,13,0,1,,,,,,,,,,,,,,,,,,,,,,,,,,,,,,,,,,,,,,,,,,,,,,,,,,,,,,,,,,,,,,,,
,,,,,,,,,,00001467057,2020-10-22_21h53.01.928,swahili,2020.2.4,MacIntel,60,,,,,,,,,,,,,,,,,,,,,,GRAVE - KABURI,,,,,,,,,,return,7.21806,14,0,14,0,1,,,,,,,,,,,,,,,,,,,,,,,,,,,,,,,,,,,,,,,,,,,,,,,,,,,,,,,,,,,,,,,,
,,,,,,,,,,00001467057,2020-10-22_21h53.01.928,swahili,2020.2.4,MacIntel,60,,,,,,,,,,,,,,,,,,,,,,MANURE - SAMADI,,,,,,,,,,return,8.68703,15,0,15,0,1,,,,,,,,,,,,,,,,,,,,,,,,,,,,,,,,,,,,,,,,,,,,,,,,,,,,,,,,,,,,,,,,
,,,,,,,,,,00001467057,2020-10-22_21h53.01.928,swahili,2020.2.4,MacIntel,60,,,,,,,,,,,,,,,,,,,,,,TREASURE - DAFINA,,,,,,,,,,return,4.679565,16,0,16,0,1,,,,,,,,,,,,,,,,,,,,,,,,,,,,,,,,,,,,,,,,,,,,,,,,,,,,,,,,,,,,,,,,
,,,,,,,,,,00001467057,2020-10-22_21h53.01.928,swahili,2020.2.4,MacIntel,60,,,,,,,,,,,,,,,,,,,,,,ORPHAN - YATIMA,,,,,,,,,,return,6.11852,17,0,17,0,1,,,,,,,,,,,,,,,,,,,,,,,,,,,,,,,,,,,,,,,,,,,,,,,,,,,,,,,,,,,,,,,,
,,,,,,,,,,00001467057,2020-10-22_21h53.01.928,swahili,2020.2.4,MacIntel,60,,,,,,,,,,,,,,,,,,,,,,MERCHANT - TAJIRI,,,,,,,,,,return,3.65341,18,0,18,0,1,,,,,,,,,,,,,,,,,,,,,,,,,,,,,,,,,,,,,,,,,,,,,,,,,,,,,,,,,,,,,,,,
,,,,,,,,,,00001467057,2020-10-22_21h53.01.928,swahili,2020.2.4,MacIntel,60,,,,,,,,,,,,,,,,,,,,,,BOAT - MASHUA,,,,,,,,,,return,4.604165,19,0,19,0,1,,,,,,,,,,,,,,,,,,,,,,,,,,,,,,,,,,,,,,,,,,,,,,,,,,,,,,,,,,,,,,,,
,,,,,,,,,,00001467057,2020-10-22_21h53.01.928,swahili,2020.2.4,MacIntel,60,,,,,,,,,,,,,,,,,,,,,,,,,,,,,,,,,,,,,,,,0,0,0,0,1,,,,,,,,,,,,,,,,,,,,,,,,,,,,,,,,,,,,,,,,,,,,,,,,,,,,,,,,,,
,,,,,,,,,,00001467057,2020-10-22_21h53.01.928,swahili,2020.2.4,MacIntel,60,,,,,,,,,,,,,,,,,,,,,,,,,,,,,,,,,,,,,,,,1,0,1,0,1,,,,,,,,,,,,,,,,,,,,,,,,,,,,,,,,,,,,,,,,,,,,,,,,,,,,,,,,,,
,,,,,,,,,,00001467057,2020-10-22_21h53.01.928,swahili,2020.2.4,MacIntel,60,,,,,,,,,,,,,,,,,,,,,,,,,,,,,,,,,,,,,,,,,,,,,0,0,0,0,1,,,,,,,,,,,,,,,,,,,,,,,,,,,,,,,,,,,,,,,,,,,,,,,,,,,,,
,,,,,,,,,,00001467057,2020-10-22_21h53.01.928,swahili,2020.2.4,MacIntel,60,,,,,,,,,,-0.413286675,0.103055556,1,0,0,4.000095,unsorted_card,0,0,0,0,1,,,,,,,,,,,,,,,,,,,,,,,,,,,,,,,,,,,,,,,,,,,,,,,,,,,,,,,,,,,,,,,,,,,,,,,,,,,,,,,,,
,,,,,,,,,,00001467057,2020-10-22_21h53.01.928,swahili,2020.2.4,MacIntel,60,,,,,,,,,,-0.413286675,0.103055556,1,0,0,5.344065,unsorted_card,1,0,1,0,1,MERCHANT - TAJIRI,,,,,,,,,,,,,,,,,,,,,,,,,,,,,,,,,,,,,,,,,,,,,,,,,,,,,,,,,,,,,,,,,,,,,,,,,,,,,,,,
,,,,,,,,,,00001467057,2020-10-22_21h53.01.928,swahili,2020.2.4,MacIntel,60,,,,,,,,,,0.47218967,-0.015789931,1,0,0,0.91077,test_pile,2,0,2,0,1,MERCHANT - TAJIRI,,,,,,,,,,,,,,,,,,,,,,,,,,,,,,,,,,,,,,,,,,,,,,,,,,,,,,,,,,,,,,,,,,,,,,,,,,,,,,,,
,,,,,,,,,,00001467057,2020-10-22_21h53.01.928,swahili,2020.2.4,MacIntel,60,,,,,,,,,,-0.313151042,-0.16703125,1,0,0,0.798975,unsorted_card,3,0,3,0,1,,,,,,,,,,,,,,,,,,,,,,,,,,,,,,,,,,,,,,,,,,,,,,,,,,,,,,,,,,,,,,,,,,,,,,,,,,,,,,,,,
,,,,,,,,,,00001467057,2020-10-22_21h53.01.928,swahili,2020.2.4,MacIntel,60,,,,,,,,,,0.502392578,0.560598958,1,0,0,1.551325,study_pile,4,0,4,0,1,PARROT - KASUKU,,,,,,,,,,,,,,,,,,,,,,,,,,,,,,,,,,,,,,,,,,,,,,,,,,,,,,,,,,,,,,,,,,,,,,,,,,,,,,,,
,,,,,,,,,,00001467057,2020-10-22_21h53.01.928,swahili,2020.2.4,MacIntel,60,,,,,,,,,,-0.422444661,-0.198463542,1,0,0,0.627355,unsorted_card,5,0,5,0,1,,,,,,,,,,,,,,,,,,,,,,,,,,,,,,,,,,,,,,,,,,,,,,,,,,,,,,,,,,,,,,,,,,,,,,,,,,,,,,,,,
,,,,,,,,,,00001467057,2020-10-22_21h53.01.928,swahili,2020.2.4,MacIntel,60,,,,,,,,,,0.402490234,0.050538194,1,0,0,4.849695,test_pile,6,0,6,0,1,BULL - FAHILI,,,,,,,,,,,,,,,,,,,,,,,,,,,,,,,,,,,,,,,,,,,,,,,,,,,,,,,,,,,,,,,,,,,,,,,,,,,,,,,,
,,,,,,,,,,00001467057,2020-10-22_21h53.01.928,swahili,2020.2.4,MacIntel,60,,,,,,,,,,-0.374034288,0.060911458,1,0,0,0.74596,unsorted_card,7,0,7,0,1,,,,,,,,,,,,,,,,,,,,,,,,,,,,,,,,,,,,,,,,,,,,,,,,,,,,,,,,,,,,,,,,,,,,,,,,,,,,,,,,,
,,,,,,,,,,00001467057,2020-10-22_21h53.01.928,swahili,2020.2.4,MacIntel,60,,,,,,,,,,0.407573785,-0.032994792,1,0,0,2.28145,test_pile,8,0,8,0,1,PLATE - SAHANI,,,,,,,,,,,,,,,,,,,,,,,,,,,,,,,,,,,,,,,,,,,,,,,,,,,,,,,,,,,,,,,,,,,,,,,,,,,,,,,,
,,,,,,,,,,00001467057,2020-10-22_21h53.01.928,swahili,2020.2.4,MacIntel,60,,,,,,,,,,-0.382438151,-0.115460069,1,0,0,0.54756,unsorted_card,9,0,9,0,1,,,,,,,,,,,,,,,,,,,,,,,,,,,,,,,,,,,,,,,,,,,,,,,,,,,,,,,,,,,,,,,,,,,,,,,,,,,,,,,,,
,,,,,,,,,,00001467057,2020-10-22_21h53.01.928,swahili,2020.2.4,MacIntel,60,,,,,,,,,,0.408089193,0.022447917,1,0,0,2.01475,test_pile,10,0,10,0,1,YEAST - HAMIRA,,,,,,,,,,,,,,,,,,,,,,,,,,,,,,,,,,,,,,,,,,,,,,,,,,,,,,,,,,,,,,,,,,,,,,,,,,,,,,,,
,,,,,,,,,,00001467057,2020-10-22_21h53.01.928,swahili,2020.2.4,MacIntel,60,,,,,,,,,,-0.278738064,-0.089357639,1,0,0,0.600945,unsorted_card,11,0,11,0,1,,,,,,,,,,,,,,,,,,,,,,,,,,,,,,,,,,,,,,,,,,,,,,,,,,,,,,,,,,,,,,,,,,,,,,,,,,,,,,,,,
,,,,,,,,,,00001467057,2020-10-22_21h53.01.928,swahili,2020.2.4,MacIntel,60,,,,,,,,,,0.429307726,0.419409722,1,0,0,2.132075,study_pile,12,0,12,0,1,BLAME - LAWAMA,,,,,,,,,,,,,,,,,,,,,,,,,,,,,,,,,,,,,,,,,,,,,,,,,,,,,,,,,,,,,,,,,,,,,,,,,,,,,,,,
,,,,,,,,,,00001467057,2020-10-22_21h53.01.928,swahili,2020.2.4,MacIntel,60,,,,,,,,,,-0.471809896,-0.168012153,1,0,0,0.798955,unsorted_card,13,0,13,0,1,,,,,,,,,,,,,,,,,,,,,,,,,,,,,,,,,,,,,,,,,,,,,,,,,,,,,,,,,,,,,,,,,,,,,,,,,,,,,,,,,
,,,,,,,,,,00001467057,2020-10-22_21h53.01.928,swahili,2020.2.4,MacIntel,60,,,,,,,,,,0.418370226,0.048359375,1,0,0,1.96447,test_pile,14,0,14,0,1,OATH - YAMINI,,,,,,,,,,,,,,,,,,,,,,,,,,,,,,,,,,,,,,,,,,,,,,,,,,,,,,,,,,,,,,,,,,,,,,,,,,,,,,,,
,,,,,,,,,,00001467057,2020-10-22_21h53.01.928,swahili,2020.2.4,MacIntel,60,,,,,,,,,,-0.303548177,-0.082065972,1,0,0,0.614715,unsorted_card,15,0,15,0,1,,,,,,,,,,,,,,,,,,,,,,,,,,,,,,,,,,,,,,,,,,,,,,,,,,,,,,,,,,,,,,,,,,,,,,,,,,,,,,,,,
,,,,,,,,,,00001467057,2020-10-22_21h53.01.928,swahili,2020.2.4,MacIntel,60,,,,,,,,,,0.420372179,0.514166667,1,0,0,1.996755,study_pile,16,0,16,0,1,CORN - NAFAKA,,,,,,,,,,,,,,,,,,,,,,,,,,,,,,,,,,,,,,,,,,,,,,,,,,,,,,,,,,,,,,,,,,,,,,,,,,,,,,,,
,,,,,,,,,,00001467057,2020-10-22_21h53.01.928,swahili,2020.2.4,MacIntel,60,,,,,,,,,,-0.253727214,-0.165642361,1,0,0,0.56474,unsorted_card,17,0,17,0,1,,,,,,,,,,,,,,,,,,,,,,,,,,,,,,,,,,,,,,,,,,,,,,,,,,,,,,,,,,,,,,,,,,,,,,,,,,,,,,,,,
,,,,,,,,,,00001467057,2020-10-22_21h53.01.928,swahili,2020.2.4,MacIntel,60,,,,,,,,,,0.499571398,0.471727431,1,0,0,1.74593,study_pile,18,0,18,0,1,POEM - UTENZI,,,,,,,,,,,,,,,,,,,,,,,,,,,,,,,,,,,,,,,,,,,,,,,,,,,,,,,,,,,,,,,,,,,,,,,,,,,,,,,,
,,,,,,,,,,00001467057,2020-10-22_21h53.01.928,swahili,2020.2.4,MacIntel,60,,,,,,,,,,-0.211480035,-0.249461806,1,0,0,0.58619,unsorted_card,19,0,19,0,1,,,,,,,,,,,,,,,,,,,,,,,,,,,,,,,,,,,,,,,,,,,,,,,,,,,,,,,,,,,,,,,,,,,,,,,,,,,,,,,,,
,,,,,,,,,,00001467057,2020-10-22_21h53.01.928,swahili,2020.2.4,MacIntel,60,,,,,,,,,,0.402159288,0.076032986,1,0,0,1.51304,test_pile,20,0,20,0,1,TAILOR - MSHONI,,,,,,,,,,,,,,,,,,,,,,,,,,,,,,,,,,,,,,,,,,,,,,,,,,,,,,,,,,,,,,,,,,,,,,,,,,,,,,,,
,,,,,,,,,,00001467057,2020-10-22_21h53.01.928,swahili,2020.2.4,MacIntel,60,,,,,,,,,,-0.329475911,-0.153880208,1,0,0,0.664545,unsorted_card,21,0,21,0,1,,,,,,,,,,,,,,,,,,,,,,,,,,,,,,,,,,,,,,,,,,,,,,,,,,,,,,,,,,,,,,,,,,,,,,,,,,,,,,,,,
,,,,,,,,,,00001467057,2020-10-22_21h53.01.928,swahili,2020.2.4,MacIntel,60,,,,,,,,,,0.441465929,-0.041996528,1,0,0,1.818505,test_pile,22,0,22,0,1,CHEESE - JIBINI,,,,,,,,,,,,,,,,,,,,,,,,,,,,,,,,,,,,,,,,,,,,,,,,,,,,,,,,,,,,,,,,,,,,,,,,,,,,,,,,
,,,,,,,,,,00001467057,2020-10-22_21h53.01.928,swahili,2020.2.4,MacIntel,60,,,,,,,,,,-0.224934896,-0.242430556,1,0,0,0.529305,unsorted_card,23,0,23,0,1,,,,,,,,,,,,,,,,,,,,,,,,,,,,,,,,,,,,,,,,,,,,,,,,,,,,,,,,,,,,,,,,,,,,,,,,,,,,,,,,,
,,,,,,,,,,00001467057,2020-10-22_21h53.01.928,swahili,2020.2.4,MacIntel,60,,,,,,,,,,0.429676649,0.058220486,1,0,0,2.31696,test_pile,24,0,24,0,1,GRAPES - ZABIBU,,,,,,,,,,,,,,,,,,,,,,,,,,,,,,,,,,,,,,,,,,,,,,,,,,,,,,,,,,,,,,,,,,,,,,,,,,,,,,,,
,,,,,,,,,,00001467057,2020-10-22_21h53.01.928,swahili,2020.2.4,MacIntel,60,,,,,,,,,,-0.301893446,-0.087447917,1,0,0,0.531085,unsorted_card,25,0,25,0,1,,,,,,,,,,,,,,,,,,,,,,,,,,,,,,,,,,,,,,,,,,,,,,,,,,,,,,,,,,,,,,,,,,,,,,,,,,,,,,,,,
,,,,,,,,,,00001467057,2020-10-22_21h53.01.928,swahili,2020.2.4,MacIntel,60,,,,,,,,,,0.442664931,0.564930556,1,0,0,2.46366,study_pile,26,0,26,0,1,GRAVE - KABURI,,,,,,,,,,,,,,,,,,,,,,,,,,,,,,,,,,,,,,,,,,,,,,,,,,,,,,,,,,,,,,,,,,,,,,,,,,,,,,,,
,,,,,,,,,,00001467057,2020-10-22_21h53.01.928,swahili,2020.2.4,MacIntel,60,,,,,,,,,,-0.322851563,-0.098046875,1,0,0,0.68129,unsorted_card,27,0,27,0,1,,,,,,,,,,,,,,,,,,,,,,,,,,,,,,,,,,,,,,,,,,,,,,,,,,,,,,,,,,,,,,,,,,,,,,,,,,,,,,,,,
,,,,,,,,,,00001467057,2020-10-22_21h53.01.928,swahili,2020.2.4,MacIntel,60,,,,,,,,,,0.395458984,-0.009296875,1,0,0,2.3525,test_pile,28,0,28,0,1,MANURE - SAMADI,,,,,,,,,,,,,,,,,,,,,,,,,,,,,,,,,,,,,,,,,,,,,,,,,,,,,,,,,,,,,,,,,,,,,,,,,,,,,,,,
,,,,,,,,,,00001467057,2020-10-22_21h53.01.928,swahili,2020.2.4,MacIntel,60,,,,,,,,,,-0.325900608,-0.115147569,1,0,0,0.62876,unsorted_card,29,0,29,0,1,,,,,,,,,,,,,,,,,,,,,,,,,,,,,,,,,,,,,,,,,,,,,,,,,,,,,,,,,,,,,,,,,,,,,,,,,,,,,,,,,
,,,,,,,,,,00001467057,2020-10-22_21h53.01.928,swahili,2020.2.4,MacIntel,60,,,,,,,,,,0.418554688,-0.006545139,1,0,0,1.981575,test_pile,30,0,30,0,1,AGENT - WAKILI,,,,,,,,,,,,,,,,,,,,,,,,,,,,,,,,,,,,,,,,,,,,,,,,,,,,,,,,,,,,,,,,,,,,,,,,,,,,,,,,
,,,,,,,,,,00001467057,2020-10-22_21h53.01.928,swahili,2020.2.4,MacIntel,60,,,,,,,,,,-0.299576823,-0.099270833,1,0,0,0.61643,unsorted_card,31,0,31,0,1,,,,,,,,,,,,,,,,,,,,,,,,,,,,,,,,,,,,,,,,,,,,,,,,,,,,,,,,,,,,,,,,,,,,,,,,,,,,,,,,,
,,,,,,,,,,00001467057,2020-10-22_21h53.01.928,swahili,2020.2.4,MacIntel,60,,,,,,,,,,0.388270399,0.417890625,1,0,0,1.548955,study_pile,32,0,32,0,1,BRIBE - RUSHWA,,,,,,,,,,,,,,,,,,,,,,,,,,,,,,,,,,,,,,,,,,,,,,,,,,,,,,,,,,,,,,,,,,,,,,,,,,,,,,,,
,,,,,,,,,,00001467057,2020-10-22_21h53.01.928,swahili,2020.2.4,MacIntel,60,,,,,,,,,,-0.363232422,-0.137265625,1,0,0,0.548195,unsorted_card,33,0,33,0,1,,,,,,,,,,,,,,,,,,,,,,,,,,,,,,,,,,,,,,,,,,,,,,,,,,,,,,,,,,,,,,,,,,,,,,,,,,,,,,,,,
,,,,,,,,,,00001467057,2020-10-22_21h53.01.928,swahili,2020.2.4,MacIntel,60,,,,,,,,,,0.390370009,-0.032491319,1,0,0,4.312675,test_pile,34,0,34,0,1,ORPHAN - YATIMA,,,,,,,,,,,,,,,,,,,,,,,,,,,,,,,,,,,,,,,,,,,,,,,,,,,,,,,,,,,,,,,,,,,,,,,,,,,,,,,,
,,,,,,,,,,00001467057,2020-10-22_21h53.01.928,swahili,2020.2.4,MacIntel,60,,,,,,,,,,-0.491368273,-0.009166667,1,0,0,0.58315,unsorted_card,35,0,35,0,1,,,,,,,,,,,,,,,,,,,,,,,,,,,,,,,,,,,,,,,,,,,,,,,,,,,,,,,,,,,,,,,,,,,,,,,,,,,,,,,,,
,,,,,,,,,,00001467057,2020-10-22_21h53.01.928,swahili,2020.2.4,MacIntel,60,,,,,,,,,,0.349414063,-0.013541667,1,0,0,1.181995,test_pile,36,0,36,0,1,DIVORCE - TALAKA,,,,,,,,,,,,,,,,,,,,,,,,,,,,,,,,,,,,,,,,,,,,,,,,,,,,,,,,,,,,,,,,,,,,,,,,,,,,,,,,
,,,,,,,,,,00001467057,2020-10-22_21h53.01.928,swahili,2020.2.4,MacIntel,60,,,,,,,,,,-0.361149089,-0.029661458,1,0,0,0.51238,unsorted_card,37,0,37,0,1,,,,,,,,,,,,,,,,,,,,,,,,,,,,,,,,,,,,,,,,,,,,,,,,,,,,,,,,,,,,,,,,,,,,,,,,,,,,,,,,,
,,,,,,,,,,00001467057,2020-10-22_21h53.01.928,swahili,2020.2.4,MacIntel,60,,,,,,,,,,0.450987413,-0.049800347,1,0,0,2.163105,test_pile,38,0,38,0,1,BOAT - MASHUA,,,,,,,,,,,,,,,,,,,,,,,,,,,,,,,,,,,,,,,,,,,,,,,,,,,,,,,,,,,,,,,,,,,,,,,,,,,,,,,,
,,,,,,,,,,00001467057,2020-10-22_21h53.01.928,swahili,2020.2.4,MacIntel,60,,,,,,,,,,-0.318608941,-0.065052083,1,0,0,0.551255,unsorted_card,39,0,39,0,1,,,,,,,,,,,,,,,,,,,,,,,,,,,,,,,,,,,,,,,,,,,,,,,,,,,,,,,,,,,,,,,,,,,,,,,,,,,,,,,,,
,,,,,,,,,,00001467057,2020-10-22_21h53.01.928,swahili,2020.2.4,MacIntel,60,,,,,,,,,,0.431065538,-0.056119792,1,0,0,2.91519,test_pile,40,0,40,0,1,TREASURE - DAFINA,,,,,,,,,,,,,,,,,,,,,,,,,,,,,,,,,,,,,,,,,,,,,,,,,,,,,,,,,,,,,,,,,,,,,,,,,,,,,,,,
,,,,,,,,,,00001467057,2020-10-22_21h53.01.928,swahili,2020.2.4,MacIntel,60,,,,,,,,,,,,,,,,,,,,,,GRAVE - KABURI,-0.382248264,0.025182292,1,0,0,1.81428,study_first,return,1.920995,return,3.285265,0,0,0,0,1,,,,,,,,,,,,,,,,,,,,,,,,,,,,,,,,,,,,,,,,,,,,,,,,,,,,,,,,,,,,,,,,
,,,,,,,,,,00001467057,2020-10-22_21h53.01.928,swahili,2020.2.4,MacIntel,60,,,,,,,,,,,,,,,,,,,,,,POEM - UTENZI,,,,,,,,,,return,1.64568,1,0,1,0,1,,,,,,,,,,,,,,,,,,,,,,,,,,,,,,,,,,,,,,,,,,,,,,,,,,,,,,,,,,,,,,,,
,,,,,,,,,,00001467057,2020-10-22_21h53.01.928,swahili,2020.2.4,MacIntel,60,,,,,,,,,,,,,,,,,,,,,,BRIBE - RUSHWA,,,,,,,,,,return,1.49969,2,0,2,0,1,,,,,,,,,,,,,,,,,,,,,,,,,,,,,,,,,,,,,,,,,,,,,,,,,,,,,,,,,,,,,,,,
,,,,,,,,,,00001467057,2020-10-22_21h53.01.928,swahili,2020.2.4,MacIntel,60,,,,,,,,,,,,,,,,,,,,,,PARROT - KASUKU,,,,,,,,,,return,1.98952,3,0,3,0,1,,,,,,,,,,,,,,,,,,,,,,,,,,,,,,,,,,,,,,,,,,,,,,,,,,,,,,,,,,,,,,,,
,,,,,,,,,,00001467057,2020-10-22_21h53.01.928,swahili,2020.2.4,MacIntel,60,,,,,,,,,,,,,,,,,,,,,,BLAME - LAWAMA,,,,,,,,,,return,1.484735,4,0,4,0,1,,,,,,,,,,,,,,,,,,,,,,,,,,,,,,,,,,,,,,,,,,,,,,,,,,,,,,,,,,,,,,,,
,,,,,,,,,,00001467057,2020-10-22_21h53.01.928,swahili,2020.2.4,MacIntel,60,,,,,,,,,,,,,,,,,,,,,,CORN - NAFAKA,,,,,,,,,,return,2.28471,5,0,5,0,1,,,,,,,,,,,,,,,,,,,,,,,,,,,,,,,,,,,,,,,,,,,,,,,,,,,,,,,,,,,,,,,,
,,,,,,,,,,00001467057,2020-10-22_21h53.01.928,swahili,2020.2.4,MacIntel,60,,,,,,,,,,,,,,,,,,,,,,,,,,,,,,,,,,,,,,,,0,0,0,0,1,,,,,,,,,,,,,,,,,,,,,,,,,,,,,,,,,,,,,,,,,,,,,,,,,,,,,,,,,,
,,,,,,,,,,00001467057,2020-10-22_21h53.01.928,swahili,2020.2.4,MacIntel,60,,,,,,,,,,,,,,,,,,,,,,,,,,,,,,,,,,0,0,0,0,1,,,,,,,,,,,,,,,,,,,,,,,,,,,,,,,,,,,,,,,,,,,,,,,,,,,,,,,,,,,,,,,,
,,,,,,,,,,00001467057,2020-10-22_21h53.01.928,swahili,2020.2.4,MacIntel,60,,,,,,,,,,,,,,,,,,,,,,,,,,,,,,,,,,,,,,,return,,,,,,,,,,,1.59876,13.779525,0.562950304,-0.044548611,1,0,0,2.72193,yes,CHEESE,TAHIL,incorrect,0,0,0,0,1,,,,,,,,,,,,,,,,,,,,,,,,,,,,,,,,,,,,
,,,,,,,,,,00001467057,2020-10-22_21h53.01.928,swahili,2020.2.4,MacIntel,60,,,,,,,,,,,,,,,,,,,,,,,,,,,,,,,,,,,,,,,,,,,,,,,,,,,4.86658,0.331450738,0.008307292,1,0,0,0.95146,yes,TAILOR,MSHONI,incorrect,1,0,1,0,1,,,,,,,,,,,,,,,,,,,,,,,,,,,,,,,,,,,,
,,,,,,,,,,00001467057,2020-10-22_21h53.01.928,swahili,2020.2.4,MacIntel,60,,,,,,,,,,,,,,,,,,,,,,,,,,,,,,,,,,,,,,,,,,,,,,,,,,,8.41787,0.588682726,0.202725694,1,0,0,0.86711,yes,MERCHANT,BHILI,incorrect,2,0,2,0,1,,,,,,,,,,,,,,,,,,,,,,,,,,,,,,,,,,,,
,,,,,,,,,,00001467057,2020-10-22_21h53.01.928,swahili,2020.2.4,MacIntel,60,,,,,,,,,,,,,,,,,,,,,,,,,,,,,,,,,,,,,,,,,,,,,,,,,,,7.680945,0.521131727,0.067230903,1,0,0,0.614935,yes,BOAT,MANIHI,incorrect,3,0,3,0,1,,,,,,,,,,,,,,,,,,,,,,,,,,,,,,,,,,,,
,,,,,,,,,,00001467057,2020-10-22_21h53.01.928,swahili,2020.2.4,MacIntel,60,,,,,,,,,,,,,,,,,,,,,,,,,,,,,,,,,,,,,,,,,,,,,,,,,,,6.699535,0.387879774,-0.030260417,1,0,0,0.74756,yes,BULL,KASUAI,incorrect,4,0,4,0,1,,,,,,,,,,,,,,,,,,,,,,,,,,,,,,,,,,,,
,,,,,,,,,,00001467057,2020-10-22_21h53.01.928,swahili,2020.2.4,MacIntel,60,,,,,,,,,,,,,,,,,,,,,,,,,,,,,,,,,,,,,,,,,,,,,,,,,,,3.64841,0.484998915,0.050277778,1,0,0,0.700165,yes,AGENT,TAHILI,incorrect,5,0,5,0,1,,,,,,,,,,,,,,,,,,,,,,,,,,,,,,,,,,,,
,,,,,,,,,,00001467057,2020-10-22_21h53.01.928,swahili,2020.2.4,MacIntel,60,,,,,,,,,,,,,,,,,,,,,,,,,,,,,,,,,,,,,,,,,,,,,,,,,,,4.87838,0.322428385,-0.02171875,1,0,0,0.870045,yes,YEAST,HAMIRA,incorrect,6,0,6,0,1,,,,,,,,,,,,,,,,,,,,,,,,,,,,,,,,,,,,
,,,,,,,,,,00001467057,2020-10-22_21h53.01.928,swahili,2020.2.4,MacIntel,60,,,,,,,,,,,,,,,,,,,,,,,,,,,,,,,,,,,,,,,,,,,,,,,,,,,6.847765,0.466438802,-0.115199653,1,0,0,0.63558,yes,TREASURE,BAJILI,incorrect,7,0,7,0,1,,,,,,,,,,,,,,,,,,,,,,,,,,,,,,,,,,,,
,,,,,,,,,,00001467057,2020-10-22_21h53.01.928,swahili,2020.2.4,MacIntel,60,,,,,,,,,,,,,,,,,,,,,,,,,,,,,,,,,,,,,,,,,,,,,,,,,,,3.917345,0.488970269,0.019522569,1,0,0,0.583975,yes,OATH,YAMIRI,incorrect,8,0,8,0,1,,,,,,,,,,,,,,,,,,,,,,,,,,,,,,,,,,,,
,,,,,,,,,,00001467057,2020-10-22_21h53.01.928,swahili,2020.2.4,MacIntel,60,,,,,,,,,,,,,,,,,,,,,,,,,,,,,,,,,,,,,,,,,,,,,,,,,,,4.965885,0.304356554,-0.071527778,1,0,0,0.550935,yes,GRAPES,BANAHA,incorrect,9,0,9,0,1,,,,,,,,,,,,,,,,,,,,,,,,,,,,,,,,,,,,
,,,,,,,,,,00001467057,2020-10-22_21h53.01.928,swahili,2020.2.4,MacIntel,60,,,,,,,,,,,,,,,,,,,,,,,,,,,,,,,,,,,,,,,,,,,,,,,,,,,4.053825,0.404844835,-0.033637153,1,0,0,0.52756,yes,PLATE,TAKILI,incorrect,10,0,10,0,1,,,,,,,,,,,,,,,,,,,,,,,,,,,,,,,,,,,,
,,,,,,,,,,00001467057,2020-10-22_21h53.01.928,swahili,2020.2.4,MacIntel,60,,,,,,,,,,,,,,,,,,,,,,,,,,,,,,,,,,,,,,,,,,,,,,,,,,,4.56417,0.507611762,0.11046875,1,0,0,0.586515,yes,MANURE,SABANE,incorrect,11,0,11,0,1,,,,,,,,,,,,,,,,,,,,,,,,,,,,,,,,,,,,
,,,,,,,,,,00001467057,2020-10-22_21h53.01.928,swahili,2020.2.4,MacIntel,60,,,,,,,,,,,,,,,,,,,,,,,,,,,,,,,,,,,,,,,,,,,,,,,,,,,4.68211,0.392377387,-0.072126736,1,0,0,0.52101,yes,ORPHAN,TAKALI,incorrect,12,0,12,0,1,,,,,,,,,,,,,,,,,,,,,,,,,,,,,,,,,,,,
,,,,,,,,,,00001467057,2020-10-22_21h53.01.928,swahili,2020.2.4,MacIntel,60,,,,,,,,,,,,,,,,,,,,,,,,,,,,,,,,,,,,,,,,,,,,,,,,,,,4.932705,0.283322483,-0.080503472,1,0,0,0.498595,yes,DIVORCE,TAKALA,incorrect,13,0,13,0,1,,,,,,,,,,,,,,,,,,,,,,,,,,,,,,,,,,,,
,,,,,,,,,,00001467057,2020-10-22_21h53.01.928,swahili,2020.2.4,MacIntel,60,,,,,,,,,,,,,,,,,,,,,,,,,,,,,,,,,,,,,,,,1,0,1,0,1,,,,,,,,,,,,,,,,,,,,,,,,,,,,,,,,,,,,,,,,,,,,,,,,,,,,,,,,,,
,,,,,,,,,,00001467057,2020-10-22_21h53.01.928,swahili,2020.2.4,MacIntel,60,,,,,,,,,,,,,,,,,,,,,,,,,,,,,,,,,,,,,,,,,,,,,1,0,1,0,1,,,,,,,,,,,,,,,,,,,,,,,,,,,,,,,,,,,,,,,,,,,,,,,,,,,,,
,,,,,,,,,,00001467057,2020-10-22_21h53.01.928,swahili,2020.2.4,MacIntel,60,,,,,,,,,,-0.183246528,-0.061102431,1,0,0,1.902035,unsorted_card,0,0,0,0,1,,,,,,,,,,,,,,,,,,,,,,,,,,,,,,,,,,,,,,,,,,,,,,,,,,,,,,,,,,,,,,,,,,,,,,,,,,,,,,,,,
,,,,,,,,,,00001467057,2020-10-22_21h53.01.928,swahili,2020.2.4,MacIntel,60,,,,,,,,,,0.462391493,-0.088177083,1,0,0,7.96799,test_pile,1,0,1,0,1,MERCHANT - TAJIRI,,,,,,,,,,,,,,,,,,,,,,,,,,,,,,,,,,,,,,,,,,,,,,,,,,,,,,,,,,,,,,,,,,,,,,,,,,,,,,,,
,,,,,,,,,,00001467057,2020-10-22_21h53.01.928,swahili,2020.2.4,MacIntel,60,,,,,,,,,,-0.36961263,-0.091362847,1,0,0,0.61256,unsorted_card,2,0,2,0,1,,,,,,,,,,,,,,,,,,,,,,,,,,,,,,,,,,,,,,,,,,,,,,,,,,,,,,,,,,,,,,,,,,,,,,,,,,,,,,,,,
,,,,,,,,,,00001467057,2020-10-22_21h53.01.928,swahili,2020.2.4,MacIntel,60,,,,,,,,,,0.427490234,-0.004574653,1,0,0,3.595555,test_pile,3,0,3,0,1,PARROT - KASUKU,,,,,,,,,,,,,,,,,,,,,,,,,,,,,,,,,,,,,,,,,,,,,,,,,,,,,,,,,,,,,,,,,,,,,,,,,,,,,,,,
,,,,,,,,,,00001467057,2020-10-22_21h53.01.928,swahili,2020.2.4,MacIntel,60,,,,,,,,,,-0.458740234,-0.00390625,1,0,0,1.483225,unsorted_card,4,0,4,0,1,,,,,,,,,,,,,,,,,,,,,,,,,,,,,,,,,,,,,,,,,,,,,,,,,,,,,,,,,,,,,,,,,,,,,,,,,,,,,,,,,
,,,,,,,,,,00001467057,2020-10-22_21h53.01.928,swahili,2020.2.4,MacIntel,60,,,,,,,,,,0.48336046,0.015555556,1,0,0,1.232045,test_pile,5,0,5,0,1,BULL - FAHILI,,,,,,,,,,,,,,,,,,,,,,,,,,,,,,,,,,,,,,,,,,,,,,,,,,,,,,,,,,,,,,,,,,,,,,,,,,,,,,,,
,,,,,,,,,,00001467057,2020-10-22_21h53.01.928,swahili,2020.2.4,MacIntel,60,,,,,,,,,,-0.459635417,0.090659722,1,0,0,0.581765,unsorted_card,6,0,6,0,1,,,,,,,,,,,,,,,,,,,,,,,,,,,,,,,,,,,,,,,,,,,,,,,,,,,,,,,,,,,,,,,,,,,,,,,,,,,,,,,,,
,,,,,,,,,,00001467057,2020-10-22_21h53.01.928,swahili,2020.2.4,MacIntel,60,,,,,,,,,,0.509309896,-0.082213542,1,0,0,3.16406,test_pile,7,0,7,0,1,PLATE - SAHANI,,,,,,,,,,,,,,,,,,,,,,,,,,,,,,,,,,,,,,,,,,,,,,,,,,,,,,,,,,,,,,,,,,,,,,,,,,,,,,,,
,,,,,,,,,,00001467057,2020-10-22_21h53.01.928,swahili,2020.2.4,MacIntel,60,,,,,,,,,,-0.313069661,-0.010789931,1,0,0,0.682025,unsorted_card,8,0,8,0,1,,,,,,,,,,,,,,,,,,,,,,,,,,,,,,,,,,,,,,,,,,,,,,,,,,,,,,,,,,,,,,,,,,,,,,,,,,,,,,,,,
,,,,,,,,,,00001467057,2020-10-22_21h53.01.928,swahili,2020.2.4,MacIntel,60,,,,,,,,,,0.3925727,0.065217014,1,0,0,1.33393,test_pile,9,0,9,0,1,YEAST - HAMIRA,,,,,,,,,,,,,,,,,,,,,,,,,,,,,,,,,,,,,,,,,,,,,,,,,,,,,,,,,,,,,,,,,,,,,,,,,,,,,,,,
,,,,,,,,,,00001467057,2020-10-22_21h53.01.928,swahili,2020.2.4,MacIntel,60,,,,,,,,,,-0.271180556,-0.10078125,1,0,0,0.66429,unsorted_card,10,0,10,0,1,,,,,,,,,,,,,,,,,,,,,,,,,,,,,,,,,,,,,,,,,,,,,,,,,,,,,,,,,,,,,,,,,,,,,,,,,,,,,,,,,
,,,,,,,,,,00001467057,2020-10-22_21h53.01.928,swahili,2020.2.4,MacIntel,60,,,,,,,,,,0.450379774,-0.009722222,1,0,0,2.36617,test_pile,11,0,11,0,1,BLAME - LAWAMA,,,,,,,,,,,,,,,,,,,,,,,,,,,,,,,,,,,,,,,,,,,,,,,,,,,,,,,,,,,,,,,,,,,,,,,,,,,,,,,,
,,,,,,,,,,00001467057,2020-10-22_21h53.01.928,swahili,2020.2.4,MacIntel,60,,,,,,,,,,-0.202143012,-0.030807292,1,0,0,0.57903,unsorted_card,12,0,12,0,1,,,,,,,,,,,,,,,,,,,,,,,,,,,,,,,,,,,,,,,,,,,,,,,,,,,,,,,,,,,,,,,,,,,,,,,,,,,,,,,,,
,,,,,,,,,,00001467057,2020-10-22_21h53.01.928,swahili,2020.2.4,MacIntel,60,,,,,,,,,,0.444699436,-0.017864583,1,0,0,0.91822,test_pile,13,0,13,0,1,OATH - YAMINI,,,,,,,,,,,,,,,,,,,,,,,,,,,,,,,,,,,,,,,,,,,,,,,,,,,,,,,,,,,,,,,,,,,,,,,,,,,,,,,,
,,,,,,,,,,00001467057,2020-10-22_21h53.01.928,swahili,2020.2.4,MacIntel,60,,,,,,,,,,-0.213085937,0.046831597,1,0,0,0.494125,unsorted_card,14,0,14,0,1,,,,,,,,,,,,,,,,,,,,,,,,,,,,,,,,,,,,,,,,,,,,,,,,,,,,,,,,,,,,,,,,,,,,,,,,,,,,,,,,,
,,,,,,,,,,00001467057,2020-10-22_21h53.01.928,swahili,2020.2.4,MacIntel,60,,,,,,,,,,0.402457682,0.034800347,1,0,0,1.23503,test_pile,15,0,15,0,1,CORN - NAFAKA,,,,,,,,,,,,,,,,,,,,,,,,,,,,,,,,,,,,,,,,,,,,,,,,,,,,,,,,,,,,,,,,,,,,,,,,,,,,,,,,
,,,,,,,,,,00001467057,2020-10-22_21h53.01.928,swahili,2020.2.4,MacIntel,60,,,,,,,,,,-0.217925347,0.043315972,1,0,0,0.49882,unsorted_card,16,0,16,0,1,,,,,,,,,,,,,,,,,,,,,,,,,,,,,,,,,,,,,,,,,,,,,,,,,,,,,,,,,,,,,,,,,,,,,,,,,,,,,,,,,
,,,,,,,,,,00001467057,2020-10-22_21h53.01.928,swahili,2020.2.4,MacIntel,60,,,,,,,,,,0.474907769,-0.062586806,1,0,0,1.980295,test_pile,17,0,17,0,1,POEM - UTENZI,,,,,,,,,,,,,,,,,,,,,,,,,,,,,,,,,,,,,,,,,,,,,,,,,,,,,,,,,,,,,,,,,,,,,,,,,,,,,,,,
,,,,,,,,,,00001467057,2020-10-22_21h53.01.928,swahili,2020.2.4,MacIntel,60,,,,,,,,,,-0.225678168,0.032795139,1,0,0,0.565945,unsorted_card,18,0,18,0,1,,,,,,,,,,,,,,,,,,,,,,,,,,,,,,,,,,,,,,,,,,,,,,,,,,,,,,,,,,,,,,,,,,,,,,,,,,,,,,,,,
,,,,,,,,,,00001467057,2020-10-22_21h53.01.928,swahili,2020.2.4,MacIntel,60,,,,,,,,,,0.455056424,-0.011987847,1,0,0,1.6153,test_pile,19,0,19,0,1,TAILOR - MSHONI,,,,,,,,,,,,,,,,,,,,,,,,,,,,,,,,,,,,,,,,,,,,,,,,,,,,,,,,,,,,,,,,,,,,,,,,,,,,,,,,
,,,,,,,,,,00001467057,2020-10-22_21h53.01.928,swahili,2020.2.4,MacIntel,60,,,,,,,,,,-0.183235677,-0.06890625,1,0,0,0.53012,unsorted_card,20,0,20,0,1,,,,,,,,,,,,,,,,,,,,,,,,,,,,,,,,,,,,,,,,,,,,,,,,,,,,,,,,,,,,,,,,,,,,,,,,,,,,,,,,,
,,,,,,,,,,00001467057,2020-10-22_21h53.01.928,swahili,2020.2.4,MacIntel,60,,,,,,,,,,0.405078125,0.009461806,1,0,0,1.033265,test_pile,21,0,21,0,1,CHEESE - JIBINI,,,,,,,,,,,,,,,,,,,,,,,,,,,,,,,,,,,,,,,,,,,,,,,,,,,,,,,,,,,,,,,,,,,,,,,,,,,,,,,,
,,,,,,,,,,00001467057,2020-10-22_21h53.01.928,swahili,2020.2.4,MacIntel,60,,,,,,,,,,-0.155837674,-0.00390625,1,0,0,0.54638,unsorted_card,22,0,22,0,1,,,,,,,,,,,,,,,,,,,,,,,,,,,,,,,,,,,,,,,,,,,,,,,,,,,,,,,,,,,,,,,,,,,,,,,,,,,,,,,,,
,,,,,,,,,,00001467057,2020-10-22_21h53.01.928,swahili,2020.2.4,MacIntel,60,,,,,,,,,,0.408322483,-0.085434028,1,0,0,3.116225,test_pile,23,0,23,0,1,GRAPES - ZABIBU,,,,,,,,,,,,,,,,,,,,,,,,,,,,,,,,,,,,,,,,,,,,,,,,,,,,,,,,,,,,,,,,,,,,,,,,,,,,,,,,
,,,,,,,,,,00001467057,2020-10-22_21h53.01.928,swahili,2020.2.4,MacIntel,60,,,,,,,,,,-0.154280599,-0.035512153,1,0,0,0.530275,unsorted_card,24,0,24,0,1,,,,,,,,,,,,,,,,,,,,,,,,,,,,,,,,,,,,,,,,,,,,,,,,,,,,,,,,,,,,,,,,,,,,,,,,,,,,,,,,,
,,,,,,,,,,00001467057,2020-10-22_21h53.01.928,swahili,2020.2.4,MacIntel,60,,,,,,,,,,0.484678819,-0.013480903,1,0,0,2.48508,test_pile,25,0,25,0,1,GRAVE - KABURI,,,,,,,,,,,,,,,,,,,,,,,,,,,,,,,,,,,,,,,,,,,,,,,,,,,,,,,,,,,,,,,,,,,,,,,,,,,,,,,,
,,,,,,,,,,00001467057,2020-10-22_21h53.01.928,swahili,2020.2.4,MacIntel,60,,,,,,,,,,-0.253493924,-0.022074653,1,0,0,0.582805,unsorted_card,26,0,26,0,1,,,,,,,,,,,,,,,,,,,,,,,,,,,,,,,,,,,,,,,,,,,,,,,,,,,,,,,,,,,,,,,,,,,,,,,,,,,,,,,,,
,,,,,,,,,,00001467057,2020-10-22_21h53.01.928,swahili,2020.2.4,MacIntel,60,,,,,,,,,,0.437548828,0.053072917,1,0,0,3.110795,test_pile,27,0,27,0,1,MANURE - SAMADI,,,,,,,,,,,,,,,,,,,,,,,,,,,,,,,,,,,,,,,,,,,,,,,,,,,,,,,,,,,,,,,,,,,,,,,,,,,,,,,,
,,,,,,,,,,00001467057,2020-10-22_21h53.01.928,swahili,2020.2.4,MacIntel,60,,,,,,,,,,-0.31077474,0.006727431,1,0,0,0.50289,unsorted_card,28,0,28,0,1,,,,,,,,,,,,,,,,,,,,,,,,,,,,,,,,,,,,,,,,,,,,,,,,,,,,,,,,,,,,,,,,,,,,,,,,,,,,,,,,,
,,,,,,,,,,00001467057,2020-10-22_21h53.01.928,swahili,2020.2.4,MacIntel,60,,,,,,,,,,0.551936849,-0.006866319,1,0,0,5.31232,test_pile,29,0,29,0,1,AGENT - WAKILI,,,,,,,,,,,,,,,,,,,,,,,,,,,,,,,,,,,,,,,,,,,,,,,,,,,,,,,,,,,,,,,,,,,,,,,,,,,,,,,,
,,,,,,,,,,00001467057,2020-10-22_21h53.01.928,swahili,2020.2.4,MacIntel,60,,,,,,,,,,-0.061073134,-0.036605903,1,0,0,0.680155,unsorted_card,30,0,30,0,1,,,,,,,,,,,,,,,,,,,,,,,,,,,,,,,,,,,,,,,,,,,,,,,,,,,,,,,,,,,,,,,,,,,,,,,,,,,,,,,,,
,,,,,,,,,,00001467057,2020-10-22_21h53.01.928,swahili,2020.2.4,MacIntel,60,,,,,,,,,,0.47585178,0.018151042,1,0,0,2.11206,test_pile,31,0,31,0,1,BRIBE - RUSHWA,,,,,,,,,,,,,,,,,,,,,,,,,,,,,,,,,,,,,,,,,,,,,,,,,,,,,,,,,,,,,,,,,,,,,,,,,,,,,,,,
,,,,,,,,,,00001467057,2020-10-22_21h53.01.928,swahili,2020.2.4,MacIntel,60,,,,,,,,,,-0.241368273,0.006258681,1,0,0,0.53447,unsorted_card,32,0,32,0,1,,,,,,,,,,,,,,,,,,,,,,,,,,,,,,,,,,,,,,,,,,,,,,,,,,,,,,,,,,,,,,,,,,,,,,,,,,,,,,,,,
,,,,,,,,,,00001467057,2020-10-22_21h53.01.928,swahili,2020.2.4,MacIntel,60,,,,,,,,,,0.422374132,-0.008489583,1,0,0,1.53144,test_pile,33,0,33,0,1,ORPHAN - YATIMA,,,,,,,,,,,,,,,,,,,,,,,,,,,,,,,,,,,,,,,,,,,,,,,,,,,,,,,,,,,,,,,,,,,,,,,,,,,,,,,,
,,,,,,,,,,00001467057,2020-10-22_21h53.01.928,swahili,2020.2.4,MacIntel,60,,,,,,,,,,-0.204958767,-0.094088542,1,0,0,0.912625,unsorted_card,34,0,34,0,1,,,,,,,,,,,,,,,,,,,,,,,,,,,,,,,,,,,,,,,,,,,,,,,,,,,,,,,,,,,,,,,,,,,,,,,,,,,,,,,,,
,,,,,,,,,,00001467057,2020-10-22_21h53.01.928,swahili,2020.2.4,MacIntel,60,,,,,,,,,,0.431347656,0.023975694,1,0,0,1.00102,test_pile,35,0,35,0,1,DIVORCE - TALAKA,,,,,,,,,,,,,,,,,,,,,,,,,,,,,,,,,,,,,,,,,,,,,,,,,,,,,,,,,,,,,,,,,,,,,,,,,,,,,,,,
,,,,,,,,,,00001467057,2020-10-22_21h53.01.928,swahili,2020.2.4,MacIntel,60,,,,,,,,,,-0.18453776,-0.103012153,1,0,0,0.49655,unsorted_card,36,0,36,0,1,,,,,,,,,,,,,,,,,,,,,,,,,,,,,,,,,,,,,,,,,,,,,,,,,,,,,,,,,,,,,,,,,,,,,,,,,,,,,,,,,
,,,,,,,,,,00001467057,2020-10-22_21h53.01.928,swahili,2020.2.4,MacIntel,60,,,,,,,,,,0.529665799,0.038793403,1,0,0,1.981915,test_pile,37,0,37,0,1,BOAT - MASHUA,,,,,,,,,,,,,,,,,,,,,,,,,,,,,,,,,,,,,,,,,,,,,,,,,,,,,,,,,,,,,,,,,,,,,,,,,,,,,,,,
,,,,,,,,,,00001467057,2020-10-22_21h53.01.928,swahili,2020.2.4,MacIntel,60,,,,,,,,,,-0.145307075,0.029184028,1,0,0,0.515465,unsorted_card,38,0,38,0,1,,,,,,,,,,,,,,,,,,,,,,,,,,,,,,,,,,,,,,,,,,,,,,,,,,,,,,,,,,,,,,,,,,,,,,,,,,,,,,,,,
,,,,,,,,,,00001467057,2020-10-22_21h53.01.928,swahili,2020.2.4,MacIntel,60,,,,,,,,,,0.443684896,0.0184375,1,0,0,0.998755,test_pile,39,0,39,0,1,TREASURE - DAFINA,,,,,,,,,,,,,,,,,,,,,,,,,,,,,,,,,,,,,,,,,,,,,,,,,,,,,,,,,,,,,,,,,,,,,,,,,,,,,,,,
,,,,,,,,,,00001467057,2020-10-22_21h53.01.928,swahili,2020.2.4,MacIntel,60,,,,,,,,,,,,,,,,,,,,,,,,,,,,,,,,,,0,0,0,0,1,,,,,,,,,,,,,,,,,,,,,,,,,,,,,,,,,,,,,,,,,,,,,,,,,,,,,,,,,,,,,,,,
,,,,,,,,,,00001467057,2020-10-22_21h53.01.928,swahili,2020.2.4,MacIntel,60,,,,,,,,,,,,,,,,,,,,,,,,,,,,,,,,,,,,,,,return,,,,,,,,,,,1.45685,12.13103,0.521744792,0.0890625,1,0,0,0.602525,yes,BLAME,JIBINI,incorrect,0,0,0,0,1,,,,,,,,,,,,,,,,,,,,,,,,,,,,,,,,,,,,
,,,,,,,,,,00001467057,2020-10-22_21h53.01.928,swahili,2020.2.4,MacIntel,60,,,,,,,,,,,,,,,,,,,,,,,,,,,,,,,,,,,,,,,,,,,,,,,,,,,14.71445,0.481667752,-0.046032986,1,0,0,0.567495,yes,GRAPES,MASUA,incorrect,1,0,1,0,1,,,,,,,,,,,,,,,,,,,,,,,,,,,,,,,,,,,,
,,,,,,,,,,00001467057,2020-10-22_21h53.01.928,swahili,2020.2.4,MacIntel,60,,,,,,,,,,,,,,,,,,,,,,,,,,,,,,,,,,,,,,,,,,,,,,,,,,,5.96509,0.388037109,-0.046154514,1,0,0,0.61887,yes,MANURE,SAMADI,incorrect,2,0,2,0,1,,,,,,,,,,,,,,,,,,,,,,,,,,,,,,,,,,,,
,,,,,,,,,,00001467057,2020-10-22_21h53.01.928,swahili,2020.2.4,MacIntel,60,,,,,,,,,,,,,,,,,,,,,,,,,,,,,,,,,,,,,,,,,,,,,,,,,,,15.649715,0.395589193,-0.075885417,1,0,0,0.50003,yes,ORPHAN,FANIBI,incorrect,3,0,3,0,1,,,,,,,,,,,,,,,,,,,,,,,,,,,,,,,,,,,,
,,,,,,,,,,00001467057,2020-10-22_21h53.01.928,swahili,2020.2.4,MacIntel,60,,,,,,,,,,,,,,,,,,,,,,,,,,,,,,,,,,,,,,,,,,,,,,,,,,,5.91544,0.452821181,0.146918403,1,0,0,0.601735,yes,YEAST,HAMIRA,incorrect,4,0,4,0,1,,,,,,,,,,,,,,,,,,,,,,,,,,,,,,,,,,,,
,,,,,,,,,,00001467057,2020-10-22_21h53.01.928,swahili,2020.2.4,MacIntel,60,,,,,,,,,,,,,,,,,,,,,,,,,,,,,,,,,,,,,,,,,,,,,,,,,,,7.953065,0.453271484,-0.060494792,1,0,0,0.595705,yes,BULL,TAKILI,incorrect,5,0,5,0,1,,,,,,,,,,,,,,,,,,,,,,,,,,,,,,,,,,,,
,,,,,,,,,,00001467057,2020-10-22_21h53.01.928,swahili,2020.2.4,MacIntel,60,,,,,,,,,,,,,,,,,,,,,,,,,,,,,,,,,,,,,,,,,,,,,,,,,,,4.61381,0.416590712,-0.023585069,1,0,0,0.52088,yes,GRAVE,ZABIBU,incorrect,6,0,6,0,1,,,,,,,,,,,,,,,,,,,,,,,,,,,,,,,,,,,,
,,,,,,,,,,00001467057,2020-10-22_21h53.01.928,swahili,2020.2.4,MacIntel,60,,,,,,,,,,,,,,,,,,,,,,,,,,,,,,,,,,,,,,,,,,,,,,,,,,,2.86682,0.486121962,-0.036449653,1,0,0,0.49738,yes,CHEESE,JIBINI,incorrect,7,0,7,0,1,,,,,,,,,,,,,,,,,,,,,,,,,,,,,,,,,,,,
,,,,,,,,,,00001467057,2020-10-22_21h53.01.928,swahili,2020.2.4,MacIntel,60,,,,,,,,,,,,,,,,,,,,,,,,,,,,,,,,,,,,,,,,,,,,,,,,,,,3.645605,0.431190321,0.074427083,1,0,0,0.51581,yes,DIVORCE,TALAKA,incorrect,8,0,8,0,1,,,,,,,,,,,,,,,,,,,,,,,,,,,,,,,,,,,,
,,,,,,,,,,00001467057,2020-10-22_21h53.01.928,swahili,2020.2.4,MacIntel,60,,,,,,,,,,,,,,,,,,,,,,,,,,,,,,,,,,,,,,,,,,,,,,,,,,,5.03271,0.372184245,-0.134557292,1,0,0,0.484695,yes,POEM,JOENO,incorrect,9,0,9,0,1,,,,,,,,,,,,,,,,,,,,,,,,,,,,,,,,,,,,
,,,,,,,,,,00001467057,2020-10-22_21h53.01.928,swahili,2020.2.4,MacIntel,60,,,,,,,,,,,,,,,,,,,,,,,,,,,,,,,,,,,,,,,,,,,,,,,,,,,5.948235,0.40023329,-0.101085069,1,0,0,0.470125,yes,CORN,KALIHI,incorrect,10,0,10,0,1,,,,,,,,,,,,,,,,,,,,,,,,,,,,,,,,,,,,
,,,,,,,,,,00001467057,2020-10-22_21h53.01.928,swahili,2020.2.4,MacIntel,60,,,,,,,,,,,,,,,,,,,,,,,,,,,,,,,,,,,,,,,,,,,,,,,,,,,3.611875,0.474663628,-0.053810764,1,0,0,0.488035,yes,TREASURE,BORK,incorrect,11,0,11,0,1,,,,,,,,,,,,,,,,,,,,,,,,,,,,,,,,,,,,
,,,,,,,,,,00001467057,2020-10-22_21h53.01.928,swahili,2020.2.4,MacIntel,60,,,,,,,,,,,,,,,,,,,,,,,,,,,,,,,,,,,,,,,,,,,,,,,,,,,3.88192,0.361941189,0.041675347,1,0,0,0.464565,yes,BOAT,FHILI,incorrect,12,0,12,0,1,,,,,,,,,,,,,,,,,,,,,,,,,,,,,,,,,,,,
,,,,,,,,,,00001467057,2020-10-22_21h53.01.928,swahili,2020.2.4,MacIntel,60,,,,,,,,,,,,,,,,,,,,,,,,,,,,,,,,,,,,,,,,,,,,,,,,,,,6.28551,0.365700955,-0.034852431,1,0,0,0.446375,yes,AGENT,ZIKILI,incorrect,13,0,13,0,1,,,,,,,,,,,,,,,,,,,,,,,,,,,,,,,,,,,,
,,,,,,,,,,00001467057,2020-10-22_21h53.01.928,swahili,2020.2.4,MacIntel,60,,,,,,,,,,,,,,,,,,,,,,,,,,,,,,,,,,,,,,,,,,,,,,,,,,,7.380245,0.347368707,-0.069019097,1,0,0,0.534505,yes,BRIBE,TAMUA,incorrect,14,0,14,0,1,,,,,,,,,,,,,,,,,,,,,,,,,,,,,,,,,,,,
,,,,,,,,,,00001467057,2020-10-22_21h53.01.928,swahili,2020.2.4,MacIntel,60,,,,,,,,,,,,,,,,,,,,,,,,,,,,,,,,,,,,,,,,,,,,,,,,,,,4.41379,0.353157552,0.040963542,1,0,0,0.498865,yes,PARROT,SIKILI,incorrect,15,0,15,0,1,,,,,,,,,,,,,,,,,,,,,,,,,,,,,,,,,,,,
,,,,,,,,,,00001467057,2020-10-22_21h53.01.928,swahili,2020.2.4,MacIntel,60,,,,,,,,,,,,,,,,,,,,,,,,,,,,,,,,,,,,,,,,,,,,,,,,,,,6.399965,0.281532118,-0.169322917,1,0,0,0.465795,yes,MERCHANT,SIJIL,incorrect,16,0,16,0,1,,,,,,,,,,,,,,,,,,,,,,,,,,,,,,,,,,,,
,,,,,,,,,,00001467057,2020-10-22_21h53.01.928,swahili,2020.2.4,MacIntel,60,,,,,,,,,,,,,,,,,,,,,,,,,,,,,,,,,,,,,,,,,,,,,,,,,,,10.781925,0.349142795,-0.128046875,1,0,0,0.480285,yes,OATH,YAMIRA,incorrect,17,0,17,0,1,,,,,,,,,,,,,,,,,,,,,,,,,,,,,,,,,,,,
,,,,,,,,,,00001467057,2020-10-22_21h53.01.928,swahili,2020.2.4,MacIntel,60,,,,,,,,,,,,,,,,,,,,,,,,,,,,,,,,,,,,,,,,,,,,,,,,,,,5.93194,0.172683377,-0.160598958,1,0,0,0.46795,yes,TAILOR,ZAKILI,incorrect,18,0,18,0,1,,,,,,,,,,,,,,,,,,,,,,,,,,,,,,,,,,,,
,,,,,,,,,,00001467057,2020-10-22_21h53.01.928,swahili,2020.2.4,MacIntel,60,,,,,,,,,,,,,,,,,,,,,,,,,,,,,,,,,,,,,,,,,,,,,,,,,,,5.08151,0.451806641,0.048420139,1,0,0,0.466855,yes,PLATE,FAKILI,incorrect,19,0,19,0,1,,,,,,,,,,,,,,,,,,,,,,,,,,,,,,,,,,,,
,,,,,,,,,,00001467057,2020-10-22_21h53.01.928,swahili,2020.2.4,MacIntel,60,,,,,,,,,,,,,,,,,,,,,,,,,,,,,,,,,,,,,,,,0,0,0,0,1,,,,,,,,,,,,,,,,,,,,,,,,,,,,,,,,,,,,,,,,,,,,,,,,,,,,,,,,,,
,,,,,,,,,,00001467057,2020-10-22_21h53.01.928,swahili,2020.2.4,MacIntel,60,,,,,,,,,,,,,,,,,,,,,,,,,,,,,,,,,,,,,,,,1,0,1,0,1,,,,,,,,,,,,,,,,,,,,,,,,,,,,,,,,,,,,,,,,,,,,,,,,,,,,,,,,,,
,,,,,,,,,,00001467057,2020-10-22_21h53.01.928,swahili,2020.2.4,MacIntel,60,,,,,,,,,,,,,,,,,,,,,,,,,,,,,,,,,,,,,,,,,,,,,2,0,2,0,1,,,,,,,,,,,,,,,,,,,,,,,,,,,,,,,,,,,,,,,,,,,,,,,,,,,,,
,,,,,,,,,,00001467057,2020-10-22_21h53.01.928,swahili,2020.2.4,MacIntel,60,,,,,,,,,,-0.28264974,-0.045590278,1,0,0,1.15371,unsorted_card,0,0,0,0,1,,,,,,,,,,,,,,,,,,,,,,,,,,,,,,,,,,,,,,,,,,,,,,,,,,,,,,,,,,,,,,,,,,,,,,,,,,,,,,,,,
,,,,,,,,,,00001467057,2020-10-22_21h53.01.928,swahili,2020.2.4,MacIntel,60,,,,,,,,,,0.538243273,-0.021927083,1,0,0,1.81179,test_pile,1,0,1,0,1,MERCHANT - TAJIRI,,,,,,,,,,,,,,,,,,,,,,,,,,,,,,,,,,,,,,,,,,,,,,,,,,,,,,,,,,,,,,,,,,,,,,,,,,,,,,,,
,,,,,,,,,,00001467057,2020-10-22_21h53.01.928,swahili,2020.2.4,MacIntel,60,,,,,,,,,,-0.117643229,0.046354167,1,0,0,0.53471,unsorted_card,2,0,2,0,1,,,,,,,,,,,,,,,,,,,,,,,,,,,,,,,,,,,,,,,,,,,,,,,,,,,,,,,,,,,,,,,,,,,,,,,,,,,,,,,,,
,,,,,,,,,,00001467057,2020-10-22_21h53.01.928,swahili,2020.2.4,MacIntel,60,,,,,,,,,,0.45249566,0.453732639,1,0,0,1.69695,study_pile,3,0,3,0,1,PARROT - KASUKU,,,,,,,,,,,,,,,,,,,,,,,,,,,,,,,,,,,,,,,,,,,,,,,,,,,,,,,,,,,,,,,,,,,,,,,,,,,,,,,,
,,,,,,,,,,00001467057,2020-10-22_21h53.01.928,swahili,2020.2.4,MacIntel,60,,,,,,,,,,-0.313731554,0.059991319,1,0,0,0.48369,unsorted_card,4,0,4,0,1,,,,,,,,,,,,,,,,,,,,,,,,,,,,,,,,,,,,,,,,,,,,,,,,,,,,,,,,,,,,,,,,,,,,,,,,,,,,,,,,,
,,,,,,,,,,00001467057,2020-10-22_21h53.01.928,swahili,2020.2.4,MacIntel,60,,,,,,,,,,0.452663845,0.027309028,1,0,0,2.414075,test_pile,5,0,5,0,1,BULL - FAHILI,,,,,,,,,,,,,,,,,,,,,,,,,,,,,,,,,,,,,,,,,,,,,,,,,,,,,,,,,,,,,,,,,,,,,,,,,,,,,,,,
,,,,,,,,,,00001467057,2020-10-22_21h53.01.928,swahili,2020.2.4,MacIntel,60,,,,,,,,,,-0.231933594,0.028932292,1,0,0,0.497225,unsorted_card,6,0,6,0,1,,,,,,,,,,,,,,,,,,,,,,,,,,,,,,,,,,,,,,,,,,,,,,,,,,,,,,,,,,,,,,,,,,,,,,,,,,,,,,,,,
,,,,,,,,,,00001467057,2020-10-22_21h53.01.928,swahili,2020.2.4,MacIntel,60,,,,,,,,,,0.453233507,-0.002977431,1,0,0,1.43448,test_pile,7,0,7,0,1,PLATE - SAHANI,,,,,,,,,,,,,,,,,,,,,,,,,,,,,,,,,,,,,,,,,,,,,,,,,,,,,,,,,,,,,,,,,,,,,,,,,,,,,,,,
,,,,,,,,,,00001467057,2020-10-22_21h53.01.928,swahili,2020.2.4,MacIntel,60,,,,,,,,,,-0.219943576,-0.063871528,1,0,0,0.549485,unsorted_card,8,0,8,0,1,,,,,,,,,,,,,,,,,,,,,,,,,,,,,,,,,,,,,,,,,,,,,,,,,,,,,,,,,,,,,,,,,,,,,,,,,,,,,,,,,
,,,,,,,,,,00001467057,2020-10-22_21h53.01.928,swahili,2020.2.4,MacIntel,60,,,,,,,,,,0.523415799,-0.070217014,1,0,0,3.2014,test_pile,9,0,9,0,1,YEAST - HAMIRA,,,,,,,,,,,,,,,,,,,,,,,,,,,,,,,,,,,,,,,,,,,,,,,,,,,,,,,,,,,,,,,,,,,,,,,,,,,,,,,,
,,,,,,,,,,00001467057,2020-10-22_21h53.01.928,swahili,2020.2.4,MacIntel,60,,,,,,,,,,-0.295122613,0.038142361,1,0,0,0.51075,unsorted_card,10,0,10,0,1,,,,,,,,,,,,,,,,,,,,,,,,,,,,,,,,,,,,,,,,,,,,,,,,,,,,,,,,,,,,,,,,,,,,,,,,,,,,,,,,,
,,,,,,,,,,00001467057,2020-10-22_21h53.01.928,swahili,2020.2.4,MacIntel,60,,,,,,,,,,0.398920356,-0.010789931,1,0,0,1.15197,test_pile,11,0,11,0,1,BLAME - LAWAMA,,,,,,,,,,,,,,,,,,,,,,,,,,,,,,,,,,,,,,,,,,,,,,,,,,,,,,,,,,,,,,,,,,,,,,,,,,,,,,,,
,,,,,,,,,,00001467057,2020-10-22_21h53.01.928,swahili,2020.2.4,MacIntel,60,,,,,,,,,,-0.413275825,-0.123993056,1,0,0,0.48279,unsorted_card,12,0,12,0,1,,,,,,,,,,,,,,,,,,,,,,,,,,,,,,,,,,,,,,,,,,,,,,,,,,,,,,,,,,,,,,,,,,,,,,,,,,,,,,,,,
,,,,,,,,,,00001467057,2020-10-22_21h53.01.928,swahili,2020.2.4,MacIntel,60,,,,,,,,,,0.306537543,-0.042369792,1,0,0,1.6156,test_pile,13,0,13,0,1,OATH - YAMINI,,,,,,,,,,,,,,,,,,,,,,,,,,,,,,,,,,,,,,,,,,,,,,,,,,,,,,,,,,,,,,,,,,,,,,,,,,,,,,,,
,,,,,,,,,,00001467057,2020-10-22_21h53.01.928,swahili,2020.2.4,MacIntel,60,,,,,,,,,,-0.321034071,-0.076371528,1,0,0,0.478165,unsorted_card,14,0,14,0,1,,,,,,,,,,,,,,,,,,,,,,,,,,,,,,,,,,,,,,,,,,,,,,,,,,,,,,,,,,,,,,,,,,,,,,,,,,,,,,,,,
,,,,,,,,,,00001467057,2020-10-22_21h53.01.928,swahili,2020.2.4,MacIntel,60,,,,,,,,,,0.476649306,0.401805556,1,0,0,2.19735,study_pile,15,0,15,0,1,CORN - NAFAKA,,,,,,,,,,,,,,,,,,,,,,,,,,,,,,,,,,,,,,,,,,,,,,,,,,,,,,,,,,,,,,,,,,,,,,,,,,,,,,,,
,,,,,,,,,,00001467057,2020-10-22_21h53.01.928,swahili,2020.2.4,MacIntel,60,,,,,,,,,,-0.387852648,-0.087083333,1,0,0,0.518295,unsorted_card,16,0,16,0,1,,,,,,,,,,,,,,,,,,,,,,,,,,,,,,,,,,,,,,,,,,,,,,,,,,,,,,,,,,,,,,,,,,,,,,,,,,,,,,,,,
,,,,,,,,,,00001467057,2020-10-22_21h53.01.928,swahili,2020.2.4,MacIntel,60,,,,,,,,,,0.446733941,0.461953125,1,0,0,1.198545,study_pile,17,0,17,0,1,POEM - UTENZI,,,,,,,,,,,,,,,,,,,,,,,,,,,,,,,,,,,,,,,,,,,,,,,,,,,,,,,,,,,,,,,,,,,,,,,,,,,,,,,,
,,,,,,,,,,00001467057,2020-10-22_21h53.01.928,swahili,2020.2.4,MacIntel,60,,,,,,,,,,-0.485194227,0.008038194,1,0,0,0.498985,unsorted_card,18,0,18,0,1,,,,,,,,,,,,,,,,,,,,,,,,,,,,,,,,,,,,,,,,,,,,,,,,,,,,,,,,,,,,,,,,,,,,,,,,,,,,,,,,,
,,,,,,,,,,00001467057,2020-10-22_21h53.01.928,swahili,2020.2.4,MacIntel,60,,,,,,,,,,0.373014323,-0.013585069,1,0,0,1.59557,test_pile,19,0,19,0,1,TAILOR - MSHONI,,,,,,,,,,,,,,,,,,,,,,,,,,,,,,,,,,,,,,,,,,,,,,,,,,,,,,,,,,,,,,,,,,,,,,,,,,,,,,,,
,,,,,,,,,,00001467057,2020-10-22_21h53.01.928,swahili,2020.2.4,MacIntel,60,,,,,,,,,,-0.242041016,-0.044210069,1,0,0,0.49874,unsorted_card,20,0,20,0,1,,,,,,,,,,,,,,,,,,,,,,,,,,,,,,,,,,,,,,,,,,,,,,,,,,,,,,,,,,,,,,,,,,,,,,,,,,,,,,,,,
,,,,,,,,,,00001467057,2020-10-22_21h53.01.928,swahili,2020.2.4,MacIntel,60,,,,,,,,,,0.436827257,-0.512612847,1,0,0,1.896255,done_pile,21,0,21,0,1,CHEESE - JIBINI,,,,,,,,,,,,,,,,,,,,,,,,,,,,,,,,,,,,,,,,,,,,,,,,,,,,,,,,,,,,,,,,,,,,,,,,,,,,,,,,
,,,,,,,,,,00001467057,2020-10-22_21h53.01.928,swahili,2020.2.4,MacIntel,60,,,,,,,,,,-0.268766276,-0.043168403,1,0,0,0.783555,unsorted_card,22,0,22,0,1,,,,,,,,,,,,,,,,,,,,,,,,,,,,,,,,,,,,,,,,,,,,,,,,,,,,,,,,,,,,,,,,,,,,,,,,,,,,,,,,,
,,,,,,,,,,00001467057,2020-10-22_21h53.01.928,swahili,2020.2.4,MacIntel,60,,,,,,,,,,0.442719184,0.048480903,1,0,0,2.365955,test_pile,23,0,23,0,1,GRAPES - ZABIBU,,,,,,,,,,,,,,,,,,,,,,,,,,,,,,,,,,,,,,,,,,,,,,,,,,,,,,,,,,,,,,,,,,,,,,,,,,,,,,,,
,,,,,,,,,,00001467057,2020-10-22_21h53.01.928,swahili,2020.2.4,MacIntel,60,,,,,,,,,,-0.355794271,0.045182292,1,0,0,0.49808,unsorted_card,24,0,24,0,1,,,,,,,,,,,,,,,,,,,,,,,,,,,,,,,,,,,,,,,,,,,,,,,,,,,,,,,,,,,,,,,,,,,,,,,,,,,,,,,,,
,,,,,,,,,,00001467057,2020-10-22_21h53.01.928,swahili,2020.2.4,MacIntel,60,,,,,,,,,,0.47624783,-0.001805556,1,0,0,1.11489,test_pile,25,0,25,0,1,GRAVE - KABURI,,,,,,,,,,,,,,,,,,,,,,,,,,,,,,,,,,,,,,,,,,,,,,,,,,,,,,,,,,,,,,,,,,,,,,,,,,,,,,,,
,,,,,,,,,,00001467057,2020-10-22_21h53.01.928,swahili,2020.2.4,MacIntel,60,,,,,,,,,,-0.183289931,0.033020833,1,0,0,0.5304,unsorted_card,26,0,26,0,1,,,,,,,,,,,,,,,,,,,,,,,,,,,,,,,,,,,,,,,,,,,,,,,,,,,,,,,,,,,,,,,,,,,,,,,,,,,,,,,,,
,,,,,,,,,,00001467057,2020-10-22_21h53.01.928,swahili,2020.2.4,MacIntel,60,,,,,,,,,,0.437543403,-0.025755208,1,0,0,2.21695,test_pile,27,0,27,0,1,MANURE - SAMADI,,,,,,,,,,,,,,,,,,,,,,,,,,,,,,,,,,,,,,,,,,,,,,,,,,,,,,,,,,,,,,,,,,,,,,,,,,,,,,,,
,,,,,,,,,,00001467057,2020-10-22_21h53.01.928,swahili,2020.2.4,MacIntel,60,,,,,,,,,,-0.195247396,-0.002144097,1,0,0,0.48221,unsorted_card,28,0,28,0,1,,,,,,,,,,,,,,,,,,,,,,,,,,,,,,,,,,,,,,,,,,,,,,,,,,,,,,,,,,,,,,,,,,,,,,,,,,,,,,,,,
,,,,,,,,,,00001467057,2020-10-22_21h53.01.928,swahili,2020.2.4,MacIntel,60,,,,,,,,,,0.487679036,-0.023498264,1,0,0,1.413745,test_pile,29,0,29,0,1,AGENT - WAKILI,,,,,,,,,,,,,,,,,,,,,,,,,,,,,,,,,,,,,,,,,,,,,,,,,,,,,,,,,,,,,,,,,,,,,,,,,,,,,,,,
,,,,,,,,,,00001467057,2020-10-22_21h53.01.928,swahili,2020.2.4,MacIntel,60,,,,,,,,,,-0.292144097,-0.100859375,1,0,0,0.50157,unsorted_card,30,0,30,0,1,,,,,,,,,,,,,,,,,,,,,,,,,,,,,,,,,,,,,,,,,,,,,,,,,,,,,,,,,,,,,,,,,,,,,,,,,,,,,,,,,
,,,,,,,,,,00001467057,2020-10-22_21h53.01.928,swahili,2020.2.4,MacIntel,60,,,,,,,,,,0.463373481,-0.047977431,1,0,0,1.09492,test_pile,31,0,31,0,1,BRIBE - RUSHWA,,,,,,,,,,,,,,,,,,,,,,,,,,,,,,,,,,,,,,,,,,,,,,,,,,,,,,,,,,,,,,,,,,,,,,,,,,,,,,,,
,,,,,,,,,,00001467057,2020-10-22_21h53.01.928,swahili,2020.2.4,MacIntel,60,,,,,,,,,,-0.214350043,-0.076501736,1,0,0,0.50055,unsorted_card,32,0,32,0,1,,,,,,,,,,,,,,,,,,,,,,,,,,,,,,,,,,,,,,,,,,,,,,,,,,,,,,,,,,,,,,,,,,,,,,,,,,,,,,,,,
,,,,,,,,,,00001467057,2020-10-22_21h53.01.928,swahili,2020.2.4,MacIntel,60,,,,,,,,,,0.470806207,-0.056267361,1,0,0,2.528475,test_pile,33,0,33,0,1,ORPHAN - YATIMA,,,,,,,,,,,,,,,,,,,,,,,,,,,,,,,,,,,,,,,,,,,,,,,,,,,,,,,,,,,,,,,,,,,,,,,,,,,,,,,,
,,,,,,,,,,00001467057,2020-10-22_21h53.01.928,swahili,2020.2.4,MacIntel,60,,,,,,,,,,-0.497157118,-0.006987847,1,0,0,0.53586,unsorted_card,34,0,34,0,1,,,,,,,,,,,,,,,,,,,,,,,,,,,,,,,,,,,,,,,,,,,,,,,,,,,,,,,,,,,,,,,,,,,,,,,,,,,,,,,,,
,,,,,,,,,,00001467057,2020-10-22_21h53.01.928,swahili,2020.2.4,MacIntel,60,,,,,,,,,,0.451752387,-0.472335069,1,0,0,1.67796,done_pile,35,0,35,0,1,DIVORCE - TALAKA,,,,,,,,,,,,,,,,,,,,,,,,,,,,,,,,,,,,,,,,,,,,,,,,,,,,,,,,,,,,,,,,,,,,,,,,,,,,,,,,
,,,,,,,,,,00001467057,2020-10-22_21h53.01.928,swahili,2020.2.4,MacIntel,60,,,,,,,,,,-0.316449653,0.001137153,1,0,0,0.515675,unsorted_card,36,0,36,0,1,,,,,,,,,,,,,,,,,,,,,,,,,,,,,,,,,,,,,,,,,,,,,,,,,,,,,,,,,,,,,,,,,,,,,,,,,,,,,,,,,
,,,,,,,,,,00001467057,2020-10-22_21h53.01.928,swahili,2020.2.4,MacIntel,60,,,,,,,,,,0.440207248,-0.035217014,1,0,0,1.78219,test_pile,37,0,37,0,1,BOAT - MASHUA,,,,,,,,,,,,,,,,,,,,,,,,,,,,,,,,,,,,,,,,,,,,,,,,,,,,,,,,,,,,,,,,,,,,,,,,,,,,,,,,
,,,,,,,,,,00001467057,2020-10-22_21h53.01.928,swahili,2020.2.4,MacIntel,60,,,,,,,,,,-0.420985243,-0.113784722,1,0,0,0.50073,unsorted_card,38,0,38,0,1,,,,,,,,,,,,,,,,,,,,,,,,,,,,,,,,,,,,,,,,,,,,,,,,,,,,,,,,,,,,,,,,,,,,,,,,,,,,,,,,,
,,,,,,,,,,00001467057,2020-10-22_21h53.01.928,swahili,2020.2.4,MacIntel,60,,,,,,,,,,0.396853299,-0.027447917,1,0,0,1.06377,test_pile,39,0,39,0,1,TREASURE - DAFINA,,,,,,,,,,,,,,,,,,,,,,,,,,,,,,,,,,,,,,,,,,,,,,,,,,,,,,,,,,,,,,,,,,,,,,,,,,,,,,,,
,,,,,,,,,,00001467057,2020-10-22_21h53.01.928,swahili,2020.2.4,MacIntel,60,,,,,,,,,,,,,,,,,,,,,,POEM - UTENZI,-0.355045573,-0.122395833,1,0,0,1.250975,study_first,return,0.98725,return,3.25207,0,0,0,0,1,,,,,,,,,,,,,,,,,,,,,,,,,,,,,,,,,,,,,,,,,,,,,,,,,,,,,,,,,,,,,,,,
,,,,,,,,,,00001467057,2020-10-22_21h53.01.928,swahili,2020.2.4,MacIntel,60,,,,,,,,,,,,,,,,,,,,,,PARROT - KASUKU,,,,,,,,,,return,3.37035,1,0,1,0,1,,,,,,,,,,,,,,,,,,,,,,,,,,,,,,,,,,,,,,,,,,,,,,,,,,,,,,,,,,,,,,,,
,,,,,,,,,,00001467057,2020-10-22_21h53.01.928,swahili,2020.2.4,MacIntel,60,,,,,,,,,,,,,,,,,,,,,,CORN - NAFAKA,,,,,,,,,,return,5.482915,2,0,2,0,1,,,,,,,,,,,,,,,,,,,,,,,,,,,,,,,,,,,,,,,,,,,,,,,,,,,,,,,,,,,,,,,,
,,,,,,,,,,00001467057,2020-10-22_21h53.01.928,swahili,2020.2.4,MacIntel,60,,,,,,,,,,,,,,,,,,,,,,,,,,,,,,,,,,,,,,,,0,0,0,0,1,,,,,,,,,,,,,,,,,,,,,,,,,,,,,,,,,,,,,,,,,,,,,,,,,,,,,,,,,,
,,,,,,,,,,00001467057,2020-10-22_21h53.01.928,swahili,2020.2.4,MacIntel,60,,,,,,,,,,,,,,,,,,,,,,,,,,,,,,,,,,0,0,0,0,1,,,,,,,,,,,,,,,,,,,,,,,,,,,,,,,,,,,,,,,,,,,,,,,,,,,,,,,,,,,,,,,,
,,,,,,,,,,00001467057,2020-10-22_21h53.01.928,swahili,2020.2.4,MacIntel,60,,,,,,,,,,,,,,,,,,,,,,,,,,,,,,,,,,,,,,,return,,,,,,,,,,,0.65515,7.0959,0.601307509,0.084036458,1,0,0,0.832555,yes,YEAST,HAMIRA,incorrect,0,0,0,0,1,,,,,,,,,,,,,,,,,,,,,,,,,,,,,,,,,,,,
,,,,,,,,,,00001467057,2020-10-22_21h53.01.928,swahili,2020.2.4,MacIntel,60,,,,,,,,,,,,,,,,,,,,,,,,,,,,,,,,,,,,,,,,,,,,,,,,,,,7.07707,0.454394531,0.006909722,1,0,0,0.468985,yes,BOAT,FAHILI,incorrect,1,0,1,0,1,,,,,,,,,,,,,,,,,,,,,,,,,,,,,,,,,,,,
,,,,,,,,,,00001467057,2020-10-22_21h53.01.928,swahili,2020.2.4,MacIntel,60,,,,,,,,,,,,,,,,,,,,,,,,,,,,,,,,,,,,,,,,,,,,,,,,,,,4.817525,0.315500217,-0.048081597,1,0,0,0.45066,yes,TAILOR,FAHILI,incorrect,2,0,2,0,1,,,,,,,,,,,,,,,,,,,,,,,,,,,,,,,,,,,,
,,,,,,,,,,00001467057,2020-10-22_21h53.01.928,swahili,2020.2.4,MacIntel,60,,,,,,,,,,,,,,,,,,,,,,,,,,,,,,,,,,,,,,,,,,,,,,,,,,,6.64688,0.557969835,0.014114583,1,0,0,0.4351,yes,PLATE,FAHILI,incorrect,3,0,3,0,1,,,,,,,,,,,,,,,,,,,,,,,,,,,,,,,,,,,,
,,,,,,,,,,00001467057,2020-10-22_21h53.01.928,swahili,2020.2.4,MacIntel,60,,,,,,,,,,,,,,,,,,,,,,,,,,,,,,,,,,,,,,,,,,,,,,,,,,,5.964485,0.463498264,0.048619792,1,0,0,0.46407,yes,AGENT,FAHILI,incorrect,4,0,4,0,1,,,,,,,,,,,,,,,,,,,,,,,,,,,,,,,,,,,,
,,,,,,,,,,00001467057,2020-10-22_21h53.01.928,swahili,2020.2.4,MacIntel,60,,,,,,,,,,,,,,,,,,,,,,,,,,,,,,,,,,,,,,,,,,,,,,,,,,,6.198855,0.639870877,0.028828125,1,0,0,0.44945,yes,MERCHANT,FAHILI,incorrect,5,0,5,0,1,,,,,,,,,,,,,,,,,,,,,,,,,,,,,,,,,,,,
,,,,,,,,,,00001467057,2020-10-22_21h53.01.928,swahili,2020.2.4,MacIntel,60,,,,,,,,,,,,,,,,,,,,,,,,,,,,,,,,,,,,,,,,,,,,,,,,,,,4.465005,0.337809245,-0.224088542,1,0,0,0.434495,yes,ORPHAN,FAHILI,incorrect,6,0,6,0,1,,,,,,,,,,,,,,,,,,,,,,,,,,,,,,,,,,,,
,,,,,,,,,,00001467057,2020-10-22_21h53.01.928,swahili,2020.2.4,MacIntel,60,,,,,,,,,,,,,,,,,,,,,,,,,,,,,,,,,,,,,,,,,,,,,,,,,,,3.23047,0.404193793,-0.071388889,1,0,0,0.45067,yes,TREASURE,DAFINA,incorrect,7,0,7,0,1,,,,,,,,,,,,,,,,,,,,,,,,,,,,,,,,,,,,
,,,,,,,,,,00001467057,2020-10-22_21h53.01.928,swahili,2020.2.4,MacIntel,60,,,,,,,,,,,,,,,,,,,,,,,,,,,,,,,,,,,,,,,,,,,,,,,,,,,2.811185,0.358105469,-0.165347222,1,0,0,0.435195,yes,BULL,FAHILI,incorrect,8,0,8,0,1,,,,,,,,,,,,,,,,,,,,,,,,,,,,,,,,,,,,
,,,,,,,,,,00001467057,2020-10-22_21h53.01.928,swahili,2020.2.4,MacIntel,60,,,,,,,,,,,,,,,,,,,,,,,,,,,,,,,,,,,,,,,,,,,,,,,,,,,4.431325,0.443646918,-0.105694444,1,0,0,0.549945,yes,OATH,YAMIRA,incorrect,9,0,9,0,1,,,,,,,,,,,,,,,,,,,,,,,,,,,,,,,,,,,,
,,,,,,,,,,00001467057,2020-10-22_21h53.01.928,swahili,2020.2.4,MacIntel,60,,,,,,,,,,,,,,,,,,,,,,,,,,,,,,,,,,,,,,,,,,,,,,,,,,,8.33256,0.472281901,0.023871528,1,0,0,0.53391,yes,BLAME,JALIKI,incorrect,10,0,10,0,1,,,,,,,,,,,,,,,,,,,,,,,,,,,,,,,,,,,,
,,,,,,,,,,00001467057,2020-10-22_21h53.01.928,swahili,2020.2.4,MacIntel,60,,,,,,,,,,,,,,,,,,,,,,,,,,,,,,,,,,,,,,,,,,,,,,,,,,,5.264145,0.259342448,-0.180980903,1,0,0,0.482945,yes,GRAVE,KILIA,incorrect,11,0,11,0,1,,,,,,,,,,,,,,,,,,,,,,,,,,,,,,,,,,,,
,,,,,,,,,,00001467057,2020-10-22_21h53.01.928,swahili,2020.2.4,MacIntel,60,,,,,,,,,,,,,,,,,,,,,,,,,,,,,,,,,,,,,,,,,,,,,,,,,,,2.86383,0.373969184,-0.140572917,1,0,0,0.466305,yes,MANURE,SAMADI,incorrect,12,0,12,0,1,,,,,,,,,,,,,,,,,,,,,,,,,,,,,,,,,,,,
,,,,,,,,,,00001467057,2020-10-22_21h53.01.928,swahili,2020.2.4,MacIntel,60,,,,,,,,,,,,,,,,,,,,,,,,,,,,,,,,,,,,,,,,,,,,,,,,,,,10.449225,0.349631076,-0.043689236,1,0,0,0.466175,yes,BRIBE,LAWAKA,incorrect,13,0,13,0,1,,,,,,,,,,,,,,,,,,,,,,,,,,,,,,,,,,,,
,,,,,,,,,,00001467057,2020-10-22_21h53.01.928,swahili,2020.2.4,MacIntel,60,,,,,,,,,,,,,,,,,,,,,,,,,,,,,,,,,,,,,,,,,,,,,,,,,,,6.663595,0.463840061,0.078203125,1,0,0,0.450175,yes,GRAPES,FAJINI,incorrect,14,0,14,0,1,,,,,,,,,,,,,,,,,,,,,,,,,,,,,,,,,,,,
,,,,,,,,,,00001467057,2020-10-22_21h53.01.928,swahili,2020.2.4,MacIntel,60,,,,,,,,,,,,,,,,,,,,,,,,,,,,,,,,,,,,,,,,1,0,1,0,1,,,,,,,,,,,,,,,,,,,,,,,,,,,,,,,,,,,,,,,,,,,,,,,,,,,,,,,,,,
,,,,,,,,,,00001467057,2020-10-22_21h53.01.928,swahili,2020.2.4,MacIntel,60,,,,,,,,,,,,,,,,,,,,,,,,,,,,,,,,,,,,,,,,,,,,,3,0,3,0,1,,,,,,,,,,,,,,,,,,,,,,,,,,,,,,,,,,,,,,,,,,,,,,,,,,,,,
,,,,,,,,,,00001467057,2020-10-22_21h53.01.928,swahili,2020.2.4,MacIntel,60,,,,,,,,,,-0.340836589,0.155060764,1,0,0,2.205265,unsorted_card,0,0,0,0,1,,,,,,,,,,,,,,,,,,,,,,,,,,,,,,,,,,,,,,,,,,,,,,,,,,,,,,,,,,,,,,,,,,,,,,,,,,,,,,,,,
,,,,,,,,,,00001467057,2020-10-22_21h53.01.928,swahili,2020.2.4,MacIntel,60,,,,,,,,,,0.424560547,0.007013889,1,0,0,1.53018,test_pile,1,0,1,0,1,MERCHANT - TAJIRI,,,,,,,,,,,,,,,,,,,,,,,,,,,,,,,,,,,,,,,,,,,,,,,,,,,,,,,,,,,,,,,,,,,,,,,,,,,,,,,,
,,,,,,,,,,00001467057,2020-10-22_21h53.01.928,swahili,2020.2.4,MacIntel,60,,,,,,,,,,-0.343560113,-0.107465278,1,0,0,0.511245,unsorted_card,2,0,2,0,1,,,,,,,,,,,,,,,,,,,,,,,,,,,,,,,,,,,,,,,,,,,,,,,,,,,,,,,,,,,,,,,,,,,,,,,,,,,,,,,,,
,,,,,,,,,,00001467057,2020-10-22_21h53.01.928,swahili,2020.2.4,MacIntel,60,,,,,,,,,,0.480441623,-0.028715278,1,0,0,1.567785,test_pile,3,0,3,0,1,PARROT - KASUKU,,,,,,,,,,,,,,,,,,,,,,,,,,,,,,,,,,,,,,,,,,,,,,,,,,,,,,,,,,,,,,,,,,,,,,,,,,,,,,,,
,,,,,,,,,,00001467057,2020-10-22_21h53.01.928,swahili,2020.2.4,MacIntel,60,,,,,,,,,,-0.33976237,-0.081545139,1,0,0,0.44646,unsorted_card,4,0,4,0,1,,,,,,,,,,,,,,,,,,,,,,,,,,,,,,,,,,,,,,,,,,,,,,,,,,,,,,,,,,,,,,,,,,,,,,,,,,,,,,,,,
,,,,,,,,,,00001467057,2020-10-22_21h53.01.928,swahili,2020.2.4,MacIntel,60,,,,,,,,,,0.507845052,0.031727431,1,0,0,0.967715,test_pile,5,0,5,0,1,BULL - FAHILI,,,,,,,,,,,,,,,,,,,,,,,,,,,,,,,,,,,,,,,,,,,,,,,,,,,,,,,,,,,,,,,,,,,,,,,,,,,,,,,,
,,,,,,,,,,00001467057,2020-10-22_21h53.01.928,swahili,2020.2.4,MacIntel,60,,,,,,,,,,-0.277289497,0.025355903,1,0,0,0.49716,unsorted_card,6,0,6,0,1,,,,,,,,,,,,,,,,,,,,,,,,,,,,,,,,,,,,,,,,,,,,,,,,,,,,,,,,,,,,,,,,,,,,,,,,,,,,,,,,,
,,,,,,,,,,00001467057,2020-10-22_21h53.01.928,swahili,2020.2.4,MacIntel,60,,,,,,,,,,0.48866645,-0.030190972,1,0,0,1.88145,test_pile,7,0,7,0,1,PLATE - SAHANI,,,,,,,,,,,,,,,,,,,,,,,,,,,,,,,,,,,,,,,,,,,,,,,,,,,,,,,,,,,,,,,,,,,,,,,,,,,,,,,,
,,,,,,,,,,00001467057,2020-10-22_21h53.01.928,swahili,2020.2.4,MacIntel,60,,,,,,,,,,-0.231152344,-0.139383681,1,0,0,0.463695,unsorted_card,8,0,8,0,1,,,,,,,,,,,,,,,,,,,,,,,,,,,,,,,,,,,,,,,,,,,,,,,,,,,,,,,,,,,,,,,,,,,,,,,,,,,,,,,,,
,,,,,,,,,,00001467057,2020-10-22_21h53.01.928,swahili,2020.2.4,MacIntel,60,,,,,,,,,,0.553846571,-0.555286458,1,0,0,3.06514,done_pile,9,0,9,0,1,YEAST - HAMIRA,,,,,,,,,,,,,,,,,,,,,,,,,,,,,,,,,,,,,,,,,,,,,,,,,,,,,,,,,,,,,,,,,,,,,,,,,,,,,,,,
,,,,,,,,,,00001467057,2020-10-22_21h53.01.928,swahili,2020.2.4,MacIntel,60,,,,,,,,,,-0.179389106,-0.042300347,1,0,0,0.76638,unsorted_card,10,0,10,0,1,,,,,,,,,,,,,,,,,,,,,,,,,,,,,,,,,,,,,,,,,,,,,,,,,,,,,,,,,,,,,,,,,,,,,,,,,,,,,,,,,
,,,,,,,,,,00001467057,2020-10-22_21h53.01.928,swahili,2020.2.4,MacIntel,60,,,,,,,,,,0.46946072,-0.043168403,1,0,0,1.713955,test_pile,11,0,11,0,1,BLAME - LAWAMA,,,,,,,,,,,,,,,,,,,,,,,,,,,,,,,,,,,,,,,,,,,,,,,,,,,,,,,,,,,,,,,,,,,,,,,,,,,,,,,,
,,,,,,,,,,00001467057,2020-10-22_21h53.01.928,swahili,2020.2.4,MacIntel,60,,,,,,,,,,-0.322195095,-0.042803819,1,0,0,0.562915,unsorted_card,12,0,12,0,1,,,,,,,,,,,,,,,,,,,,,,,,,,,,,,,,,,,,,,,,,,,,,,,,,,,,,,,,,,,,,,,,,,,,,,,,,,,,,,,,,
,,,,,,,,,,00001467057,2020-10-22_21h53.01.928,swahili,2020.2.4,MacIntel,60,,,,,,,,,,0.409483507,-0.062855903,1,0,0,1.91702,test_pile,13,0,13,0,1,OATH - YAMINI,,,,,,,,,,,,,,,,,,,,,,,,,,,,,,,,,,,,,,,,,,,,,,,,,,,,,,,,,,,,,,,,,,,,,,,,,,,,,,,,
,,,,,,,,,,00001467057,2020-10-22_21h53.01.928,swahili,2020.2.4,MacIntel,60,,,,,,,,,,-0.423361545,-0.056727431,1,0,0,0.499145,unsorted_card,14,0,14,0,1,,,,,,,,,,,,,,,,,,,,,,,,,,,,,,,,,,,,,,,,,,,,,,,,,,,,,,,,,,,,,,,,,,,,,,,,,,,,,,,,,
,,,,,,,,,,00001467057,2020-10-22_21h53.01.928,swahili,2020.2.4,MacIntel,60,,,,,,,,,,0.334988064,0.002196181,1,0,0,1.281795,test_pile,15,0,15,0,1,CORN - NAFAKA,,,,,,,,,,,,,,,,,,,,,,,,,,,,,,,,,,,,,,,,,,,,,,,,,,,,,,,,,,,,,,,,,,,,,,,,,,,,,,,,
,,,,,,,,,,00001467057,2020-10-22_21h53.01.928,swahili,2020.2.4,MacIntel,60,,,,,,,,,,-0.454947917,0.055329861,1,0,0,0.448635,unsorted_card,16,0,16,0,1,,,,,,,,,,,,,,,,,,,,,,,,,,,,,,,,,,,,,,,,,,,,,,,,,,,,,,,,,,,,,,,,,,,,,,,,,,,,,,,,,
,,,,,,,,,,00001467057,2020-10-22_21h53.01.928,swahili,2020.2.4,MacIntel,60,,,,,,,,,,0.428092448,0.002578125,1,0,0,1.21707,test_pile,17,0,17,0,1,POEM - UTENZI,,,,,,,,,,,,,,,,,,,,,,,,,,,,,,,,,,,,,,,,,,,,,,,,,,,,,,,,,,,,,,,,,,,,,,,,,,,,,,,,
,,,,,,,,,,00001467057,2020-10-22_21h53.01.928,swahili,2020.2.4,MacIntel,60,,,,,,,,,,-0.253580729,0.037803819,1,0,0,0.445625,unsorted_card,18,0,18,0,1,,,,,,,,,,,,,,,,,,,,,,,,,,,,,,,,,,,,,,,,,,,,,,,,,,,,,,,,,,,,,,,,,,,,,,,,,,,,,,,,,
,,,,,,,,,,00001467057,2020-10-22_21h53.01.928,swahili,2020.2.4,MacIntel,60,,,,,,,,,,0.426161024,0.011623264,1,0,0,1.15093,test_pile,19,0,19,0,1,TAILOR - MSHONI,,,,,,,,,,,,,,,,,,,,,,,,,,,,,,,,,,,,,,,,,,,,,,,,,,,,,,,,,,,,,,,,,,,,,,,,,,,,,,,,
,,,,,,,,,,00001467057,2020-10-22_21h53.01.928,swahili,2020.2.4,MacIntel,60,,,,,,,,,,-0.369786241,0.055946181,1,0,0,0.479475,unsorted_card,20,0,20,0,1,,,,,,,,,,,,,,,,,,,,,,,,,,,,,,,,,,,,,,,,,,,,,,,,,,,,,,,,,,,,,,,,,,,,,,,,,,,,,,,,,
,,,,,,,,,,00001467057,2020-10-22_21h53.01.928,swahili,2020.2.4,MacIntel,60,,,,,,,,,,0.49828559,-0.031501736,1,0,0,0.78367,test_pile,21,0,21,0,1,GRAPES - ZABIBU,,,,,,,,,,,,,,,,,,,,,,,,,,,,,,,,,,,,,,,,,,,,,,,,,,,,,,,,,,,,,,,,,,,,,,,,,,,,,,,,
,,,,,,,,,,00001467057,2020-10-22_21h53.01.928,swahili,2020.2.4,MacIntel,60,,,,,,,,,,-0.219314236,-0.018758681,1,0,0,0.4628,unsorted_card,22,0,22,0,1,,,,,,,,,,,,,,,,,,,,,,,,,,,,,,,,,,,,,,,,,,,,,,,,,,,,,,,,,,,,,,,,,,,,,,,,,,,,,,,,,
,,,,,,,,,,00001467057,2020-10-22_21h53.01.928,swahili,2020.2.4,MacIntel,60,,,,,,,,,,0.500645616,-0.013984375,1,0,0,1.54764,test_pile,23,0,23,0,1,GRAVE - KABURI,,,,,,,,,,,,,,,,,,,,,,,,,,,,,,,,,,,,,,,,,,,,,,,,,,,,,,,,,,,,,,,,,,,,,,,,,,,,,,,,
,,,,,,,,,,00001467057,2020-10-22_21h53.01.928,swahili,2020.2.4,MacIntel,60,,,,,,,,,,-0.242784288,-0.037769097,1,0,0,0.44953,unsorted_card,24,0,24,0,1,,,,,,,,,,,,,,,,,,,,,,,,,,,,,,,,,,,,,,,,,,,,,,,,,,,,,,,,,,,,,,,,,,,,,,,,,,,,,,,,,
,,,,,,,,,,00001467057,2020-10-22_21h53.01.928,swahili,2020.2.4,MacIntel,60,,,,,,,,,,0.399446615,-0.536657986,1,0,0,1.382325,done_pile,25,0,25,0,1,MANURE - SAMADI,,,,,,,,,,,,,,,,,,,,,,,,,,,,,,,,,,,,,,,,,,,,,,,,,,,,,,,,,,,,,,,,,,,,,,,,,,,,,,,,
,,,,,,,,,,00001467057,2020-10-22_21h53.01.928,swahili,2020.2.4,MacIntel,60,,,,,,,,,,-0.205772569,-0.069409722,1,0,0,0.564215,unsorted_card,26,0,26,0,1,,,,,,,,,,,,,,,,,,,,,,,,,,,,,,,,,,,,,,,,,,,,,,,,,,,,,,,,,,,,,,,,,,,,,,,,,,,,,,,,,
,,,,,,,,,,00001467057,2020-10-22_21h53.01.928,swahili,2020.2.4,MacIntel,60,,,,,,,,,,0.514724392,-0.032743056,1,0,0,1.58311,test_pile,27,0,27,0,1,AGENT - WAKILI,,,,,,,,,,,,,,,,,,,,,,,,,,,,,,,,,,,,,,,,,,,,,,,,,,,,,,,,,,,,,,,,,,,,,,,,,,,,,,,,
,,,,,,,,,,00001467057,2020-10-22_21h53.01.928,swahili,2020.2.4,MacIntel,60,,,,,,,,,,-0.271717665,-0.064296875,1,0,0,0.481425,unsorted_card,28,0,28,0,1,,,,,,,,,,,,,,,,,,,,,,,,,,,,,,,,,,,,,,,,,,,,,,,,,,,,,,,,,,,,,,,,,,,,,,,,,,,,,,,,,
,,,,,,,,,,00001467057,2020-10-22_21h53.01.928,swahili,2020.2.4,MacIntel,60,,,,,,,,,,0.497140842,-0.033776042,1,0,0,1.134245,test_pile,29,0,29,0,1,BRIBE - RUSHWA,,,,,,,,,,,,,,,,,,,,,,,,,,,,,,,,,,,,,,,,,,,,,,,,,,,,,,,,,,,,,,,,,,,,,,,,,,,,,,,,
,,,,,,,,,,00001467057,2020-10-22_21h53.01.928,swahili,2020.2.4,MacIntel,60,,,,,,,,,,-0.230642361,-0.044131944,1,0,0,0.479775,unsorted_card,30,0,30,0,1,,,,,,,,,,,,,,,,,,,,,,,,,,,,,,,,,,,,,,,,,,,,,,,,,,,,,,,,,,,,,,,,,,,,,,,,,,,,,,,,,
,,,,,,,,,,00001467057,2020-10-22_21h53.01.928,swahili,2020.2.4,MacIntel,60,,,,,,,,,,0.446267361,0.010060764,1,0,0,3.33268,test_pile,31,0,31,0,1,ORPHAN - YATIMA,,,,,,,,,,,,,,,,,,,,,,,,,,,,,,,,,,,,,,,,,,,,,,,,,,,,,,,,,,,,,,,,,,,,,,,,,,,,,,,,
,,,,,,,,,,00001467057,2020-10-22_21h53.01.928,swahili,2020.2.4,MacIntel,60,,,,,,,,,,-0.240348307,0.031710069,1,0,0,0.449505,unsorted_card,32,0,32,0,1,,,,,,,,,,,,,,,,,,,,,,,,,,,,,,,,,,,,,,,,,,,,,,,,,,,,,,,,,,,,,,,,,,,,,,,,,,,,,,,,,
,,,,,,,,,,00001467057,2020-10-22_21h53.01.928,swahili,2020.2.4,MacIntel,60,,,,,,,,,,0.430723741,0.006857639,1,0,0,1.782975,test_pile,33,0,33,0,1,BOAT - MASHUA,,,,,,,,,,,,,,,,,,,,,,,,,,,,,,,,,,,,,,,,,,,,,,,,,,,,,,,,,,,,,,,,,,,,,,,,,,,,,,,,
,,,,,,,,,,00001467057,2020-10-22_21h53.01.928,swahili,2020.2.4,MacIntel,60,,,,,,,,,,-0.316037326,0.013385417,1,0,0,0.45094,unsorted_card,34,0,34,0,1,,,,,,,,,,,,,,,,,,,,,,,,,,,,,,,,,,,,,,,,,,,,,,,,,,,,,,,,,,,,,,,,,,,,,,,,,,,,,,,,,
,,,,,,,,,,00001467057,2020-10-22_21h53.01.928,swahili,2020.2.4,MacIntel,60,,,,,,,,,,0.430441623,-0.549947917,1,0,0,1.594215,done_pile,35,0,35,0,1,TREASURE - DAFINA,,,,,,,,,,,,,,,,,,,,,,,,,,,,,,,,,,,,,,,,,,,,,,,,,,,,,,,,,,,,,,,,,,,,,,,,,,,,,,,,
,,,,,,,,,,00001467057,2020-10-22_21h53.01.928,swahili,2020.2.4,MacIntel,60,,,,,,,,,,,,,,,,,,,,,,,,,,,,,,,,,,0,0,0,0,1,,,,,,,,,,,,,,,,,,,,,,,,,,,,,,,,,,,,,,,,,,,,,,,,,,,,,,,,,,,,,,,,
,,,,,,,,,,00001467057,2020-10-22_21h53.01.928,swahili,2020.2.4,MacIntel,60,,,,,,,,,,,,,,,,,,,,,,,,,,,,,,,,,,,,,,,return,,,,,,,,,,,1.0089,12.76884,0.441590712,-0.077039931,1,0,0,0.568165,yes,BRIBE,BUSHWA,incorrect,0,0,0,0,1,,,,,,,,,,,,,,,,,,,,,,,,,,,,,,,,,,,,
,,,,,,,,,,00001467057,2020-10-22_21h53.01.928,swahili,2020.2.4,MacIntel,60,,,,,,,,,,,,,,,,,,,,,,,,,,,,,,,,,,,,,,,,,,,,,,,,,,,7.53009,0.411859809,0.030607639,1,0,0,0.45025,yes,CORN,HABILI,incorrect,1,0,1,0,1,,,,,,,,,,,,,,,,,,,,,,,,,,,,,,,,,,,,
,,,,,,,,,,00001467057,2020-10-22_21h53.01.928,swahili,2020.2.4,MacIntel,60,,,,,,,,,,,,,,,,,,,,,,,,,,,,,,,,,,,,,,,,,,,,,,,,,,,3.18008,0.418500434,-0.026041667,1,0,0,0.4668,yes,OATH,YAMINI,incorrect,2,0,2,0,1,,,,,,,,,,,,,,,,,,,,,,,,,,,,,,,,,,,,
,,,,,,,,,,00001467057,2020-10-22_21h53.01.928,swahili,2020.2.4,MacIntel,60,,,,,,,,,,,,,,,,,,,,,,,,,,,,,,,,,,,,,,,,,,,,,,,,,,,7.297245,0.422976345,-0.020503472,1,0,0,0.463365,yes,PLATE,SABINI,incorrect,3,0,3,0,1,,,,,,,,,,,,,,,,,,,,,,,,,,,,,,,,,,,,
,,,,,,,,,,00001467057,2020-10-22_21h53.01.928,swahili,2020.2.4,MacIntel,60,,,,,,,,,,,,,,,,,,,,,,,,,,,,,,,,,,,,,,,,,,,,,,,,,,,4.6443,0.306217448,-0.19828125,1,0,0,0.518325,yes,TAILOR,SABINN,incorrect,4,0,4,0,1,,,,,,,,,,,,,,,,,,,,,,,,,,,,,,,,,,,,
,,,,,,,,,,00001467057,2020-10-22_21h53.01.928,swahili,2020.2.4,MacIntel,60,,,,,,,,,,,,,,,,,,,,,,,,,,,,,,,,,,,,,,,,,,,,,,,,,,,4.098355,0.44703776,-0.015373264,1,0,0,0.686995,yes,MERCHANT,TAKALI,incorrect,5,0,5,0,1,,,,,,,,,,,,,,,,,,,,,,,,,,,,,,,,,,,,
,,,,,,,,,,00001467057,2020-10-22_21h53.01.928,swahili,2020.2.4,MacIntel,60,,,,,,,,,,,,,,,,,,,,,,,,,,,,,,,,,,,,,,,,,,,,,,,,,,,3.16457,0.429774306,-0.016979167,1,0,0,0.48393,yes,BOAT,FAJILI,incorrect,6,0,6,0,1,,,,,,,,,,,,,,,,,,,,,,,,,,,,,,,,,,,,
,,,,,,,,,,00001467057,2020-10-22_21h53.01.928,swahili,2020.2.4,MacIntel,60,,,,,,,,,,,,,,,,,,,,,,,,,,,,,,,,,,,,,,,,,,,,,,,,,,,4.24804,0.55633138,-0.004053819,1,0,0,0.48349,yes,BULL,MUSHIA,incorrect,7,0,7,0,1,,,,,,,,,,,,,,,,,,,,,,,,,,,,,,,,,,,,
,,,,,,,,,,00001467057,2020-10-22_21h53.01.928,swahili,2020.2.4,MacIntel,60,,,,,,,,,,,,,,,,,,,,,,,,,,,,,,,,,,,,,,,,,,,,,,,,,,,9.015535,0.487125651,0.025555556,1,0,0,0.46869,yes,BLAME,LAWA,incorrect,8,0,8,0,1,,,,,,,,,,,,,,,,,,,,,,,,,,,,,,,,,,,,
,,,,,,,,,,00001467057,2020-10-22_21h53.01.928,swahili,2020.2.4,MacIntel,60,,,,,,,,,,,,,,,,,,,,,,,,,,,,,,,,,,,,,,,,,,,,,,,,,,,7.79863,0.471169705,0.020199653,1,0,0,0.44763,yes,AGENT,HABILI,incorrect,9,0,9,0,1,,,,,,,,,,,,,,,,,,,,,,,,,,,,,,,,,,,,
,,,,,,,,,,00001467057,2020-10-22_21h53.01.928,swahili,2020.2.4,MacIntel,60,,,,,,,,,,,,,,,,,,,,,,,,,,,,,,,,,,,,,,,,,,,,,,,,,,,4.601875,0.506515842,0.040894097,1,0,0,0.48491,yes,PARROT,KASUKU,incorrect,10,0,10,0,1,,,,,,,,,,,,,,,,,,,,,,,,,,,,,,,,,,,,
,,,,,,,,,,00001467057,2020-10-22_21h53.01.928,swahili,2020.2.4,MacIntel,60,,,,,,,,,,,,,,,,,,,,,,,,,,,,,,,,,,,,,,,,,,,,,,,,,,,3.89963,0.340022786,-0.131649306,1,0,0,0.44824,yes,ORPHAN,YAMIRA,incorrect,11,0,11,0,1,,,,,,,,,,,,,,,,,,,,,,,,,,,,,,,,,,,,
,,,,,,,,,,00001467057,2020-10-22_21h53.01.928,swahili,2020.2.4,MacIntel,60,,,,,,,,,,,,,,,,,,,,,,,,,,,,,,,,,,,,,,,,,,,,,,,,,,,3.78063,0.320524089,-0.119878472,1,0,0,0.44903,yes,GRAVE,SJD,incorrect,12,0,12,0,1,,,,,,,,,,,,,,,,,,,,,,,,,,,,,,,,,,,,
,,,,,,,,,,00001467057,2020-10-22_21h53.01.928,swahili,2020.2.4,MacIntel,60,,,,,,,,,,,,,,,,,,,,,,,,,,,,,,,,,,,,,,,,,,,,,,,,,,,8.40007,0.337879774,-0.093116319,1,0,0,0.50069,yes,POEM,UTENZI,incorrect,13,0,13,0,1,,,,,,,,,,,,,,,,,,,,,,,,,,,,,,,,,,,,
,,,,,,,,,,00001467057,2020-10-22_21h53.01.928,swahili,2020.2.4,MacIntel,60,,,,,,,,,,,,,,,,,,,,,,,,,,,,,,,,,,,,,,,,,,,,,,,,,,,7.80058,0.33804796,-0.193255208,1,0,0,0.434305,yes,GRAPES,FABILI,incorrect,14,0,14,0,1,,,,,,,,,,,,,,,,,,,,,,,,,,,,,,,,,,,,
,,,,,,,,,,00001467057,2020-10-22_21h53.01.928,swahili,2020.2.4,MacIntel,60,,,,,,,,,,,,,,,,,,,,,,,,,,,,,,,,,,,,,,,,0,0,0,0,1,,,,,,,,,,,,,,,,,,,,,,,,,,,,,,,,,,,,,,,,,,,,,,,,,,,,,,,,,,
,,,,,,,,,,00001467057,2020-10-22_21h53.01.928,swahili,2020.2.4,MacIntel,60,,,,,,,,,,,,,,,,,,,,,,,,,,,,,,,,,,,,,,,,1,0,1,0,1,,,,,,,,,,,,,,,,,,,,,,,,,,,,,,,,,,,,,,,,,,,,,,,,,,,,,,,,,,
,,,,,,,,,,00001467057,2020-10-22_21h53.01.928,swahili,2020.2.4,MacIntel,60,,,,,,,,,,,,,,,,,,,,,,,,,,,,,,,,,,,,,,,,,,,,,4,0,4,0,1,,,,,,,,,,,,,,,,,,,,,,,,,,,,,,,,,,,,,,,,,,,,,,,,,,,,,
,,,,,,,,,,00001467057,2020-10-22_21h53.01.928,swahili,2020.2.4,MacIntel,60,,,,,,,,,,-0.331776259,-0.030477431,1,0,0,1.050485,unsorted_card,0,0,0,0,1,,,,,,,,,,,,,,,,,,,,,,,,,,,,,,,,,,,,,,,,,,,,,,,,,,,,,,,,,,,,,,,,,,,,,,,,,,,,,,,,,
,,,,,,,,,,00001467057,2020-10-22_21h53.01.928,swahili,2020.2.4,MacIntel,60,,,,,,,,,,0.392849392,0.435885417,1,0,0,1.451135,study_pile,1,0,1,0,1,MERCHANT - TAJIRI,,,,,,,,,,,,,,,,,,,,,,,,,,,,,,,,,,,,,,,,,,,,,,,,,,,,,,,,,,,,,,,,,,,,,,,,,,,,,,,,
,,,,,,,,,,00001467057,2020-10-22_21h53.01.928,swahili,2020.2.4,MacIntel,60,,,,,,,,,,-0.355615234,0.081675347,1,0,0,0.532535,unsorted_card,2,0,2,0,1,,,,,,,,,,,,,,,,,,,,,,,,,,,,,,,,,,,,,,,,,,,,,,,,,,,,,,,,,,,,,,,,,,,,,,,,,,,,,,,,,
,,,,,,,,,,00001467057,2020-10-22_21h53.01.928,swahili,2020.2.4,MacIntel,60,,,,,,,,,,0.390261502,0.607361111,1,0,0,0.48198,study_pile,3,0,3,0,1,PARROT - KASUKU,,,,,,,,,,,,,,,,,,,,,,,,,,,,,,,,,,,,,,,,,,,,,,,,,,,,,,,,,,,,,,,,,,,,,,,,,,,,,,,,
,,,,,,,,,,00001467057,2020-10-22_21h53.01.928,swahili,2020.2.4,MacIntel,60,,,,,,,,,,-0.176334635,0.192256944,1,0,0,0.46578,unsorted_card,4,0,4,0,1,,,,,,,,,,,,,,,,,,,,,,,,,,,,,,,,,,,,,,,,,,,,,,,,,,,,,,,,,,,,,,,,,,,,,,,,,,,,,,,,,
,,,,,,,,,,00001467057,2020-10-22_21h53.01.928,swahili,2020.2.4,MacIntel,60,,,,,,,,,,0.433902995,0.531258681,1,0,0,0.432845,study_pile,5,0,5,0,1,BULL - FAHILI,,,,,,,,,,,,,,,,,,,,,,,,,,,,,,,,,,,,,,,,,,,,,,,,,,,,,,,,,,,,,,,,,,,,,,,,,,,,,,,,
,,,,,,,,,,00001467057,2020-10-22_21h53.01.928,swahili,2020.2.4,MacIntel,60,,,,,,,,,,-0.146538628,0.084809028,1,0,0,0.428995,unsorted_card,6,0,6,0,1,,,,,,,,,,,,,,,,,,,,,,,,,,,,,,,,,,,,,,,,,,,,,,,,,,,,,,,,,,,,,,,,,,,,,,,,,,,,,,,,,
,,,,,,,,,,00001467057,2020-10-22_21h53.01.928,swahili,2020.2.4,MacIntel,60,,,,,,,,,,0.51078559,0.456779514,1,0,0,0.86459,study_pile,7,0,7,0,1,PLATE - SAHANI,,,,,,,,,,,,,,,,,,,,,,,,,,,,,,,,,,,,,,,,,,,,,,,,,,,,,,,,,,,,,,,,,,,,,,,,,,,,,,,,
,,,,,,,,,,00001467057,2020-10-22_21h53.01.928,swahili,2020.2.4,MacIntel,60,,,,,,,,,,-0.376453993,0.043723958,1,0,0,0.41858,unsorted_card,8,0,8,0,1,,,,,,,,,,,,,,,,,,,,,,,,,,,,,,,,,,,,,,,,,,,,,,,,,,,,,,,,,,,,,,,,,,,,,,,,,,,,,,,,,
,,,,,,,,,,00001467057,2020-10-22_21h53.01.928,swahili,2020.2.4,MacIntel,60,,,,,,,,,,0.400086806,0.540399306,1,0,0,0.72963,study_pile,9,0,9,0,1,BLAME - LAWAMA,,,,,,,,,,,,,,,,,,,,,,,,,,,,,,,,,,,,,,,,,,,,,,,,,,,,,,,,,,,,,,,,,,,,,,,,,,,,,,,,
,,,,,,,,,,00001467057,2020-10-22_21h53.01.928,swahili,2020.2.4,MacIntel,60,,,,,,,,,,-0.297916667,0.15640625,1,0,0,0.41785,unsorted_card,10,0,10,0,1,,,,,,,,,,,,,,,,,,,,,,,,,,,,,,,,,,,,,,,,,,,,,,,,,,,,,,,,,,,,,,,,,,,,,,,,,,,,,,,,,
,,,,,,,,,,00001467057,2020-10-22_21h53.01.928,swahili,2020.2.4,MacIntel,60,,,,,,,,,,0.417605252,0.477265625,1,0,0,1.862895,study_pile,11,0,11,0,1,OATH - YAMINI,,,,,,,,,,,,,,,,,,,,,,,,,,,,,,,,,,,,,,,,,,,,,,,,,,,,,,,,,,,,,,,,,,,,,,,,,,,,,,,,
,,,,,,,,,,00001467057,2020-10-22_21h53.01.928,swahili,2020.2.4,MacIntel,60,,,,,,,,,,-0.246451823,0.102560764,1,0,0,0.46623,unsorted_card,12,0,12,0,1,,,,,,,,,,,,,,,,,,,,,,,,,,,,,,,,,,,,,,,,,,,,,,,,,,,,,,,,,,,,,,,,,,,,,,,,,,,,,,,,,
,,,,,,,,,,00001467057,2020-10-22_21h53.01.928,swahili,2020.2.4,MacIntel,60,,,,,,,,,,0.460281033,0.530625,1,0,0,0.898895,study_pile,13,0,13,0,1,CORN - NAFAKA,,,,,,,,,,,,,,,,,,,,,,,,,,,,,,,,,,,,,,,,,,,,,,,,,,,,,,,,,,,,,,,,,,,,,,,,,,,,,,,,
,,,,,,,,,,00001467057,2020-10-22_21h53.01.928,swahili,2020.2.4,MacIntel,60,,,,,,,,,,-0.360655382,0.029175347,1,0,0,0.446415,unsorted_card,14,0,14,0,1,,,,,,,,,,,,,,,,,,,,,,,,,,,,,,,,,,,,,,,,,,,,,,,,,,,,,,,,,,,,,,,,,,,,,,,,,,,,,,,,,
,,,,,,,,,,00001467057,2020-10-22_21h53.01.928,swahili,2020.2.4,MacIntel,60,,,,,,,,,,0.393717448,0.030677083,1,0,0,1.16669,test_pile,15,0,15,0,1,POEM - UTENZI,,,,,,,,,,,,,,,,,,,,,,,,,,,,,,,,,,,,,,,,,,,,,,,,,,,,,,,,,,,,,,,,,,,,,,,,,,,,,,,,
,,,,,,,,,,00001467057,2020-10-22_21h53.01.928,swahili,2020.2.4,MacIntel,60,,,,,,,,,,-0.22273763,0.055,1,0,0,0.40118,unsorted_card,16,0,16,0,1,,,,,,,,,,,,,,,,,,,,,,,,,,,,,,,,,,,,,,,,,,,,,,,,,,,,,,,,,,,,,,,,,,,,,,,,,,,,,,,,,
,,,,,,,,,,00001467057,2020-10-22_21h53.01.928,swahili,2020.2.4,MacIntel,60,,,,,,,,,,0.390136719,0.020190972,1,0,0,1.01478,test_pile,17,0,17,0,1,TAILOR - MSHONI,,,,,,,,,,,,,,,,,,,,,,,,,,,,,,,,,,,,,,,,,,,,,,,,,,,,,,,,,,,,,,,,,,,,,,,,,,,,,,,,
,,,,,,,,,,00001467057,2020-10-22_21h53.01.928,swahili,2020.2.4,MacIntel,60,,,,,,,,,,-0.357080078,-0.008932292,1,0,0,0.395565,unsorted_card,18,0,18,0,1,,,,,,,,,,,,,,,,,,,,,,,,,,,,,,,,,,,,,,,,,,,,,,,,,,,,,,,,,,,,,,,,,,,,,,,,,,,,,,,,,
,,,,,,,,,,00001467057,2020-10-22_21h53.01.928,swahili,2020.2.4,MacIntel,60,,,,,,,,,,0.367957899,-0.029461806,1,0,0,0.93576,test_pile,19,0,19,0,1,GRAPES - ZABIBU,,,,,,,,,,,,,,,,,,,,,,,,,,,,,,,,,,,,,,,,,,,,,,,,,,,,,,,,,,,,,,,,,,,,,,,,,,,,,,,,
,,,,,,,,,,00001467057,2020-10-22_21h53.01.928,swahili,2020.2.4,MacIntel,60,,,,,,,,,,-0.330902778,0.030755208,1,0,0,0.38047,unsorted_card,20,0,20,0,1,,,,,,,,,,,,,,,,,,,,,,,,,,,,,,,,,,,,,,,,,,,,,,,,,,,,,,,,,,,,,,,,,,,,,,,,,,,,,,,,,
,,,,,,,,,,00001467057,2020-10-22_21h53.01.928,swahili,2020.2.4,MacIntel,60,,,,,,,,,,0.350992839,0.490494792,1,0,0,1.668425,study_pile,21,0,21,0,1,GRAVE - KABURI,,,,,,,,,,,,,,,,,,,,,,,,,,,,,,,,,,,,,,,,,,,,,,,,,,,,,,,,,,,,,,,,,,,,,,,,,,,,,,,,
,,,,,,,,,,00001467057,2020-10-22_21h53.01.928,swahili,2020.2.4,MacIntel,60,,,,,,,,,,-0.486111111,0.139548611,1,0,0,0.38071,unsorted_card,22,0,22,0,1,,,,,,,,,,,,,,,,,,,,,,,,,,,,,,,,,,,,,,,,,,,,,,,,,,,,,,,,,,,,,,,,,,,,,,,,,,,,,,,,,
,,,,,,,,,,00001467057,2020-10-22_21h53.01.928,swahili,2020.2.4,MacIntel,60,,,,,,,,,,0.331814236,0.483784722,1,0,0,0.949185,study_pile,23,0,23,0,1,AGENT - WAKILI,,,,,,,,,,,,,,,,,,,,,,,,,,,,,,,,,,,,,,,,,,,,,,,,,,,,,,,,,,,,,,,,,,,,,,,,,,,,,,,,
,,,,,,,,,,00001467057,2020-10-22_21h53.01.928,swahili,2020.2.4,MacIntel,60,,,,,,,,,,-0.341780599,0.091649306,1,0,0,0.39743,unsorted_card,24,0,24,0,1,,,,,,,,,,,,,,,,,,,,,,,,,,,,,,,,,,,,,,,,,,,,,,,,,,,,,,,,,,,,,,,,,,,,,,,,,,,,,,,,,
,,,,,,,,,,00001467057,2020-10-22_21h53.01.928,swahili,2020.2.4,MacIntel,60,,,,,,,,,,0.386474609,0.067717014,1,0,0,1.53049,test_pile,25,0,25,0,1,BRIBE - RUSHWA,,,,,,,,,,,,,,,,,,,,,,,,,,,,,,,,,,,,,,,,,,,,,,,,,,,,,,,,,,,,,,,,,,,,,,,,,,,,,,,,
,,,,,,,,,,00001467057,2020-10-22_21h53.01.928,swahili,2020.2.4,MacIntel,60,,,,,,,,,,-0.312179905,0.054184028,1,0,0,0.43493,unsorted_card,26,0,26,0,1,,,,,,,,,,,,,,,,,,,,,,,,,,,,,,,,,,,,,,,,,,,,,,,,,,,,,,,,,,,,,,,,,,,,,,,,,,,,,,,,,
,,,,,,,,,,00001467057,2020-10-22_21h53.01.928,swahili,2020.2.4,MacIntel,60,,,,,,,,,,0.41156684,0.033203125,1,0,0,1.34574,test_pile,27,0,27,0,1,ORPHAN - YATIMA,,,,,,,,,,,,,,,,,,,,,,,,,,,,,,,,,,,,,,,,,,,,,,,,,,,,,,,,,,,,,,,,,,,,,,,,,,,,,,,,
,,,,,,,,,,00001467057,2020-10-22_21h53.01.928,swahili,2020.2.4,MacIntel,60,,,,,,,,,,-0.27727322,-0.052552083,1,0,0,0.399275,unsorted_card,28,0,28,0,1,,,,,,,,,,,,,,,,,,,,,,,,,,,,,,,,,,,,,,,,,,,,,,,,,,,,,,,,,,,,,,,,,,,,,,,,,,,,,,,,,
,,,,,,,,,,00001467057,2020-10-22_21h53.01.928,swahili,2020.2.4,MacIntel,60,,,,,,,,,,0.319390191,0.431371528,1,0,0,1.64888,study_pile,29,0,29,0,1,BOAT - MASHUA,,,,,,,,,,,,,,,,,,,,,,,,,,,,,,,,,,,,,,,,,,,,,,,,,,,,,,,,,,,,,,,,,,,,,,,,,,,,,,,,
,,,,,,,,,,00001467057,2020-10-22_21h53.01.928,swahili,2020.2.4,MacIntel,60,,,,,,,,,,,,,,,,,,,,,,BLAME - LAWAMA,-0.372325304,0.050755208,1,0,0,0.683985,study_first,return,0.887385,return,2.28781,0,0,0,0,1,,,,,,,,,,,,,,,,,,,,,,,,,,,,,,,,,,,,,,,,,,,,,,,,,,,,,,,,,,,,,,,,
,,,,,,,,,,00001467057,2020-10-22_21h53.01.928,swahili,2020.2.4,MacIntel,60,,,,,,,,,,,,,,,,,,,,,,PLATE - SAHANI,,,,,,,,,,return,2.377135,1,0,1,0,1,,,,,,,,,,,,,,,,,,,,,,,,,,,,,,,,,,,,,,,,,,,,,,,,,,,,,,,,,,,,,,,,
,,,,,,,,,,00001467057,2020-10-22_21h53.01.928,swahili,2020.2.4,MacIntel,60,,,,,,,,,,,,,,,,,,,,,,BULL - FAHILI,,,,,,,,,,return,2.176265,2,0,2,0,1,,,,,,,,,,,,,,,,,,,,,,,,,,,,,,,,,,,,,,,,,,,,,,,,,,,,,,,,,,,,,,,,
,,,,,,,,,,00001467057,2020-10-22_21h53.01.928,swahili,2020.2.4,MacIntel,60,,,,,,,,,,,,,,,,,,,,,,OATH - YAMINI,,,,,,,,,,return,1.783735,3,0,3,0,1,,,,,,,,,,,,,,,,,,,,,,,,,,,,,,,,,,,,,,,,,,,,,,,,,,,,,,,,,,,,,,,,
,,,,,,,,,,00001467057,2020-10-22_21h53.01.928,swahili,2020.2.4,MacIntel,60,,,,,,,,,,,,,,,,,,,,,,GRAVE - KABURI,,,,,,,,,,return,1.94116,4,0,4,0,1,,,,,,,,,,,,,,,,,,,,,,,,,,,,,,,,,,,,,,,,,,,,,,,,,,,,,,,,,,,,,,,,
,,,,,,,,,,00001467057,2020-10-22_21h53.01.928,swahili,2020.2.4,MacIntel,60,,,,,,,,,,,,,,,,,,,,,,PARROT - KASUKU,,,,,,,,,,return,1.954495,5,0,5,0,1,,,,,,,,,,,,,,,,,,,,,,,,,,,,,,,,,,,,,,,,,,,,,,,,,,,,,,,,,,,,,,,,
,,,,,,,,,,00001467057,2020-10-22_21h53.01.928,swahili,2020.2.4,MacIntel,60,,,,,,,,,,,,,,,,,,,,,,AGENT - WAKILI,,,,,,,,,,return,1.75094,6,0,6,0,1,,,,,,,,,,,,,,,,,,,,,,,,,,,,,,,,,,,,,,,,,,,,,,,,,,,,,,,,,,,,,,,,
,,,,,,,,,,00001467057,2020-10-22_21h53.01.928,swahili,2020.2.4,MacIntel,60,,,,,,,,,,,,,,,,,,,,,,BOAT - MASHUA,,,,,,,,,,return,2.149425,7,0,7,0,1,,,,,,,,,,,,,,,,,,,,,,,,,,,,,,,,,,,,,,,,,,,,,,,,,,,,,,,,,,,,,,,,
,,,,,,,,,,00001467057,2020-10-22_21h53.01.928,swahili,2020.2.4,MacIntel,60,,,,,,,,,,,,,,,,,,,,,,MERCHANT - TAJIRI,,,,,,,,,,return,1.73103,8,0,8,0,1,,,,,,,,,,,,,,,,,,,,,,,,,,,,,,,,,,,,,,,,,,,,,,,,,,,,,,,,,,,,,,,,
,,,,,,,,,,00001467057,2020-10-22_21h53.01.928,swahili,2020.2.4,MacIntel,60,,,,,,,,,,,,,,,,,,,,,,CORN - NAFAKA,,,,,,,,,,return,2.33398,9,0,9,0,1,,,,,,,,,,,,,,,,,,,,,,,,,,,,,,,,,,,,,,,,,,,,,,,,,,,,,,,,,,,,,,,,
,,,,,,,,,,00001467057,2020-10-22_21h53.01.928,swahili,2020.2.4,MacIntel,60,,,,,,,,,,,,,,,,,,,,,,,,,,,,,,,,,,,,,,,,0,0,0,0,1,,,,,,,,,,,,,,,,,,,,,,,,,,,,,,,,,,,,,,,,,,,,,,,,,,,,,,,,,,
,,,,,,,,,,00001467057,2020-10-22_21h53.01.928,swahili,2020.2.4,MacIntel,60,,,,,,,,,,,,,,,,,,,,,,,,,,,,,,,,,,0,0,0,0,1,,,,,,,,,,,,,,,,,,,,,,,,,,,,,,,,,,,,,,,,,,,,,,,,,,,,,,,,,,,,,,,,
,,,,,,,,,,00001467057,2020-10-22_21h53.01.928,swahili,2020.2.4,MacIntel,60,,,,,,,,,,,,,,,,,,,,,,,,,,,,,,,,,,,,,,,return,,,,,,,,,,,0.603225,5.29351,0.616894531,0.119913194,1,0,0,0.653045,yes,BRIBE,RUSHWA,incorrect,0,0,0,0,1,,,,,,,,,,,,,,,,,,,,,,,,,,,,,,,,,,,,
,,,,,,,,,,00001467057,2020-10-22_21h53.01.928,swahili,2020.2.4,MacIntel,60,,,,,,,,,,,,,,,,,,,,,,,,,,,,,,,,,,,,,,,,,,,,,,,,,,,7.301385,0.369102648,-0.081336806,1,0,0,0.479535,yes,TAILOR,TAJIBI,incorrect,1,0,1,0,1,,,,,,,,,,,,,,,,,,,,,,,,,,,,,,,,,,,,
,,,,,,,,,,00001467057,2020-10-22_21h53.01.928,swahili,2020.2.4,MacIntel,60,,,,,,,,,,,,,,,,,,,,,,,,,,,,,,,,,,,,,,,,,,,,,,,,,,,3.930045,0.297672526,-0.146032986,1,0,0,0.486275,yes,GRAPES,ZABIBU,incorrect,2,0,2,0,1,,,,,,,,,,,,,,,,,,,,,,,,,,,,,,,,,,,,
,,,,,,,,,,00001467057,2020-10-22_21h53.01.928,swahili,2020.2.4,MacIntel,60,,,,,,,,,,,,,,,,,,,,,,,,,,,,,,,,,,,,,,,,,,,,,,,,,,,2.45064,0.319840495,-0.161276042,1,0,0,0.499315,yes,POEM,UTENZI,incorrect,3,0,3,0,1,,,,,,,,,,,,,,,,,,,,,,,,,,,,,,,,,,,,
,,,,,,,,,,00001467057,2020-10-22_21h53.01.928,swahili,2020.2.4,MacIntel,60,,,,,,,,,,,,,,,,,,,,,,,,,,,,,,,,,,,,,,,,,,,,,,,,,,,4.71374,0.268701172,-0.193923611,1,0,0,0.45033,yes,ORPHAN,YAMINI,incorrect,4,0,4,0,1,,,,,,,,,,,,,,,,,,,,,,,,,,,,,,,,,,,,
,,,,,,,,,,00001467057,2020-10-22_21h53.01.928,swahili,2020.2.4,MacIntel,60,,,,,,,,,,,,,,,,,,,,,,,,,,,,,,,,,,,,,,,,1,0,1,0,1,,,,,,,,,,,,,,,,,,,,,,,,,,,,,,,,,,,,,,,,,,,,,,,,,,,,,,,,,,
,,,,,,,,,,00001467057,2020-10-22_21h53.01.928,swahili,2020.2.4,MacIntel,60,,,,,,,,,,,,,,,,,,,,,,,,,,,,,,,,,,,,,,,,,,,,,5,0,5,0,1,,,,,,,,,,,,,,,,,,,,,,,,,,,,,,,,,,,,,,,,,,,,,,,,,,,,,
,,,,,,,,,,00001467057,2020-10-22_21h53.01.928,swahili,2020.2.4,MacIntel,60,,,,,,,,,,-0.249761285,-0.038142361,1,0,0,1.70511,unsorted_card,0,0,0,0,1,,,,,,,,,,,,,,,,,,,,,,,,,,,,,,,,,,,,,,,,,,,,,,,,,,,,,,,,,,,,,,,,,,,,,,,,,,,,,,,,,
,,,,,,,,,,00001467057,2020-10-22_21h53.01.928,swahili,2020.2.4,MacIntel,60,,,,,,,,,,0.414366319,0.013463542,1,0,0,3.00115,test_pile,1,0,1,0,1,MERCHANT - TAJIRI,,,,,,,,,,,,,,,,,,,,,,,,,,,,,,,,,,,,,,,,,,,,,,,,,,,,,,,,,,,,,,,,,,,,,,,,,,,,,,,,
,,,,,,,,,,00001467057,2020-10-22_21h53.01.928,swahili,2020.2.4,MacIntel,60,,,,,,,,,,-0.426681858,0.045763889,1,0,0,0.58048,unsorted_card,2,0,2,0,1,,,,,,,,,,,,,,,,,,,,,,,,,,,,,,,,,,,,,,,,,,,,,,,,,,,,,,,,,,,,,,,,,,,,,,,,,,,,,,,,,
,,,,,,,,,,00001467057,2020-10-22_21h53.01.928,swahili,2020.2.4,MacIntel,60,,,,,,,,,,0.45875651,-0.064270833,1,0,0,1.01482,test_pile,3,0,3,0,1,PARROT - KASUKU,,,,,,,,,,,,,,,,,,,,,,,,,,,,,,,,,,,,,,,,,,,,,,,,,,,,,,,,,,,,,,,,,,,,,,,,,,,,,,,,
,,,,,,,,,,00001467057,2020-10-22_21h53.01.928,swahili,2020.2.4,MacIntel,60,,,,,,,,,,-0.370876736,-0.165972222,1,0,0,0.43146,unsorted_card,4,0,4,0,1,,,,,,,,,,,,,,,,,,,,,,,,,,,,,,,,,,,,,,,,,,,,,,,,,,,,,,,,,,,,,,,,,,,,,,,,,,,,,,,,,
,,,,,,,,,,00001467057,2020-10-22_21h53.01.928,swahili,2020.2.4,MacIntel,60,,,,,,,,,,0.427696398,0.469800347,1,0,0,1.683855,study_pile,5,0,5,0,1,BULL - FAHILI,,,,,,,,,,,,,,,,,,,,,,,,,,,,,,,,,,,,,,,,,,,,,,,,,,,,,,,,,,,,,,,,,,,,,,,,,,,,,,,,
,,,,,,,,,,00001467057,2020-10-22_21h53.01.928,swahili,2020.2.4,MacIntel,60,,,,,,,,,,-0.289252387,0.053350694,1,0,0,0.44588,unsorted_card,6,0,6,0,1,,,,,,,,,,,,,,,,,,,,,,,,,,,,,,,,,,,,,,,,,,,,,,,,,,,,,,,,,,,,,,,,,,,,,,,,,,,,,,,,,
,,,,,,,,,,00001467057,2020-10-22_21h53.01.928,swahili,2020.2.4,MacIntel,60,,,,,,,,,,0.391297743,0.460138889,1,0,0,1.400955,study_pile,7,0,7,0,1,PLATE - SAHANI,,,,,,,,,,,,,,,,,,,,,,,,,,,,,,,,,,,,,,,,,,,,,,,,,,,,,,,,,,,,,,,,,,,,,,,,,,,,,,,,
,,,,,,,,,,00001467057,2020-10-22_21h53.01.928,swahili,2020.2.4,MacIntel,60,,,,,,,,,,-0.276850043,0.054409722,1,0,0,0.431665,unsorted_card,8,0,8,0,1,,,,,,,,,,,,,,,,,,,,,,,,,,,,,,,,,,,,,,,,,,,,,,,,,,,,,,,,,,,,,,,,,,,,,,,,,,,,,,,,,
,,,,,,,,,,00001467057,2020-10-22_21h53.01.928,swahili,2020.2.4,MacIntel,60,,,,,,,,,,0.43507487,0.047647569,1,0,0,1.446265,test_pile,9,0,9,0,1,BLAME - LAWAMA,,,,,,,,,,,,,,,,,,,,,,,,,,,,,,,,,,,,,,,,,,,,,,,,,,,,,,,,,,,,,,,,,,,,,,,,,,,,,,,,
,,,,,,,,,,00001467057,2020-10-22_21h53.01.928,swahili,2020.2.4,MacIntel,60,,,,,,,,,,-0.255349392,-0.002847222,1,0,0,0.414455,unsorted_card,10,0,10,0,1,,,,,,,,,,,,,,,,,,,,,,,,,,,,,,,,,,,,,,,,,,,,,,,,,,,,,,,,,,,,,,,,,,,,,,,,,,,,,,,,,
,,,,,,,,,,00001467057,2020-10-22_21h53.01.928,swahili,2020.2.4,MacIntel,60,,,,,,,,,,0.413943142,0.046032986,1,0,0,0.865685,test_pile,11,0,11,0,1,OATH - YAMINI,,,,,,,,,,,,,,,,,,,,,,,,,,,,,,,,,,,,,,,,,,,,,,,,,,,,,,,,,,,,,,,,,,,,,,,,,,,,,,,,
,,,,,,,,,,00001467057,2020-10-22_21h53.01.928,swahili,2020.2.4,MacIntel,60,,,,,,,,,,-0.344986979,-0.109574653,1,0,0,0.433,unsorted_card,12,0,12,0,1,,,,,,,,,,,,,,,,,,,,,,,,,,,,,,,,,,,,,,,,,,,,,,,,,,,,,,,,,,,,,,,,,,,,,,,,,,,,,,,,,
,,,,,,,,,,00001467057,2020-10-22_21h53.01.928,swahili,2020.2.4,MacIntel,60,,,,,,,,,,0.382134332,0.544079861,1,0,0,1.098435,study_pile,13,0,13,0,1,CORN - NAFAKA,,,,,,,,,,,,,,,,,,,,,,,,,,,,,,,,,,,,,,,,,,,,,,,,,,,,,,,,,,,,,,,,,,,,,,,,,,,,,,,,
,,,,,,,,,,00001467057,2020-10-22_21h53.01.928,swahili,2020.2.4,MacIntel,60,,,,,,,,,,-0.229313151,0.038289931,1,0,0,0.43302,unsorted_card,14,0,14,0,1,,,,,,,,,,,,,,,,,,,,,,,,,,,,,,,,,,,,,,,,,,,,,,,,,,,,,,,,,,,,,,,,,,,,,,,,,,,,,,,,,
,,,,,,,,,,00001467057,2020-10-22_21h53.01.928,swahili,2020.2.4,MacIntel,60,,,,,,,,,,0.423735894,-0.079696181,1,0,0,0.96077,test_pile,15,0,15,0,1,POEM - UTENZI,,,,,,,,,,,,,,,,,,,,,,,,,,,,,,,,,,,,,,,,,,,,,,,,,,,,,,,,,,,,,,,,,,,,,,,,,,,,,,,,
,,,,,,,,,,00001467057,2020-10-22_21h53.01.928,swahili,2020.2.4,MacIntel,60,,,,,,,,,,-0.308056641,-0.123489583,1,0,0,0.46547,unsorted_card,16,0,16,0,1,,,,,,,,,,,,,,,,,,,,,,,,,,,,,,,,,,,,,,,,,,,,,,,,,,,,,,,,,,,,,,,,,,,,,,,,,,,,,,,,,
,,,,,,,,,,00001467057,2020-10-22_21h53.01.928,swahili,2020.2.4,MacIntel,60,,,,,,,,,,0.329041884,0.003463542,1,0,0,0.902275,test_pile,17,0,17,0,1,TAILOR - MSHONI,,,,,,,,,,,,,,,,,,,,,,,,,,,,,,,,,,,,,,,,,,,,,,,,,,,,,,,,,,,,,,,,,,,,,,,,,,,,,,,,
,,,,,,,,,,00001467057,2020-10-22_21h53.01.928,swahili,2020.2.4,MacIntel,60,,,,,,,,,,-0.285617405,-0.029201389,1,0,0,0.42969,unsorted_card,18,0,18,0,1,,,,,,,,,,,,,,,,,,,,,,,,,,,,,,,,,,,,,,,,,,,,,,,,,,,,,,,,,,,,,,,,,,,,,,,,,,,,,,,,,
,,,,,,,,,,00001467057,2020-10-22_21h53.01.928,swahili,2020.2.4,MacIntel,60,,,,,,,,,,0.444308811,-0.024236111,1,0,0,0.901635,test_pile,19,0,19,0,1,GRAPES - ZABIBU,,,,,,,,,,,,,,,,,,,,,,,,,,,,,,,,,,,,,,,,,,,,,,,,,,,,,,,,,,,,,,,,,,,,,,,,,,,,,,,,
,,,,,,,,,,00001467057,2020-10-22_21h53.01.928,swahili,2020.2.4,MacIntel,60,,,,,,,,,,-0.210818142,-0.058012153,1,0,0,0.41416,unsorted_card,20,0,20,0,1,,,,,,,,,,,,,,,,,,,,,,,,,,,,,,,,,,,,,,,,,,,,,,,,,,,,,,,,,,,,,,,,,,,,,,,,,,,,,,,,,
,,,,,,,,,,00001467057,2020-10-22_21h53.01.928,swahili,2020.2.4,MacIntel,60,,,,,,,,,,0.429578993,0.029869792,1,0,0,1.9781,test_pile,21,0,21,0,1,GRAVE - KABURI,,,,,,,,,,,,,,,,,,,,,,,,,,,,,,,,,,,,,,,,,,,,,,,,,,,,,,,,,,,,,,,,,,,,,,,,,,,,,,,,
,,,,,,,,,,00001467057,2020-10-22_21h53.01.928,swahili,2020.2.4,MacIntel,60,,,,,,,,,,-0.314089627,-0.124192708,1,0,0,0.416445,unsorted_card,22,0,22,0,1,,,,,,,,,,,,,,,,,,,,,,,,,,,,,,,,,,,,,,,,,,,,,,,,,,,,,,,,,,,,,,,,,,,,,,,,,,,,,,,,,
,,,,,,,,,,00001467057,2020-10-22_21h53.01.928,swahili,2020.2.4,MacIntel,60,,,,,,,,,,0.389946832,0.528168403,1,0,0,1.268065,study_pile,23,0,23,0,1,AGENT - WAKILI,,,,,,,,,,,,,,,,,,,,,,,,,,,,,,,,,,,,,,,,,,,,,,,,,,,,,,,,,,,,,,,,,,,,,,,,,,,,,,,,
,,,,,,,,,,00001467057,2020-10-22_21h53.01.928,swahili,2020.2.4,MacIntel,60,,,,,,,,,,-0.49742296,-0.241475694,1,0,0,0.412145,unsorted_card,24,0,24,0,1,,,,,,,,,,,,,,,,,,,,,,,,,,,,,,,,,,,,,,,,,,,,,,,,,,,,,,,,,,,,,,,,,,,,,,,,,,,,,,,,,
,,,,,,,,,,00001467057,2020-10-22_21h53.01.928,swahili,2020.2.4,MacIntel,60,,,,,,,,,,0.436767578,-0.038446181,1,0,0,0.98383,test_pile,25,0,25,0,1,BRIBE - RUSHWA,,,,,,,,,,,,,,,,,,,,,,,,,,,,,,,,,,,,,,,,,,,,,,,,,,,,,,,,,,,,,,,,,,,,,,,,,,,,,,,,
,,,,,,,,,,00001467057,2020-10-22_21h53.01.928,swahili,2020.2.4,MacIntel,60,,,,,,,,,,-0.268012153,-0.079956597,1,0,0,0.399135,unsorted_card,26,0,26,0,1,,,,,,,,,,,,,,,,,,,,,,,,,,,,,,,,,,,,,,,,,,,,,,,,,,,,,,,,,,,,,,,,,,,,,,,,,,,,,,,,,
,,,,,,,,,,00001467057,2020-10-22_21h53.01.928,swahili,2020.2.4,MacIntel,60,,,,,,,,,,0.424690755,-0.014184028,1,0,0,1.782155,test_pile,27,0,27,0,1,ORPHAN - YATIMA,,,,,,,,,,,,,,,,,,,,,,,,,,,,,,,,,,,,,,,,,,,,,,,,,,,,,,,,,,,,,,,,,,,,,,,,,,,,,,,,
,,,,,,,,,,00001467057,2020-10-22_21h53.01.928,swahili,2020.2.4,MacIntel,60,,,,,,,,,,-0.333311632,-0.06171875,1,0,0,0.497835,unsorted_card,28,0,28,0,1,,,,,,,,,,,,,,,,,,,,,,,,,,,,,,,,,,,,,,,,,,,,,,,,,,,,,,,,,,,,,,,,,,,,,,,,,,,,,,,,,
,,,,,,,,,,00001467057,2020-10-22_21h53.01.928,swahili,2020.2.4,MacIntel,60,,,,,,,,,,0.310384115,-0.036319444,1,0,0,1.08171,test_pile,29,0,29,0,1,BOAT - MASHUA,,,,,,,,,,,,,,,,,,,,,,,,,,,,,,,,,,,,,,,,,,,,,,,,,,,,,,,,,,,,,,,,,,,,,,,,,,,,,,,,
,,,,,,,,,,00001467057,2020-10-22_21h53.01.928,swahili,2020.2.4,MacIntel,60,,,,,,,,,,,,,,,,,,,,,,AGENT - WAKILI,-0.416107856,-0.154331597,1,0,0,0.963515,study_first,return,0.868325,return,2.115225,0,0,0,0,1,,,,,,,,,,,,,,,,,,,,,,,,,,,,,,,,,,,,,,,,,,,,,,,,,,,,,,,,,,,,,,,,
,,,,,,,,,,00001467057,2020-10-22_21h53.01.928,swahili,2020.2.4,MacIntel,60,,,,,,,,,,,,,,,,,,,,,,PLATE - SAHANI,,,,,,,,,,return,1.985085,1,0,1,0,1,,,,,,,,,,,,,,,,,,,,,,,,,,,,,,,,,,,,,,,,,,,,,,,,,,,,,,,,,,,,,,,,
,,,,,,,,,,00001467057,2020-10-22_21h53.01.928,swahili,2020.2.4,MacIntel,60,,,,,,,,,,,,,,,,,,,,,,CORN - NAFAKA,,,,,,,,,,return,1.905305,2,0,2,0,1,,,,,,,,,,,,,,,,,,,,,,,,,,,,,,,,,,,,,,,,,,,,,,,,,,,,,,,,,,,,,,,,
,,,,,,,,,,00001467057,2020-10-22_21h53.01.928,swahili,2020.2.4,MacIntel,60,,,,,,,,,,,,,,,,,,,,,,BULL - FAHILI,,,,,,,,,,return,1.664275,3,0,3,0,1,,,,,,,,,,,,,,,,,,,,,,,,,,,,,,,,,,,,,,,,,,,,,,,,,,,,,,,,,,,,,,,,
,,,,,,,,,,00001467057,2020-10-22_21h53.01.928,swahili,2020.2.4,MacIntel,60,,,,,,,,,,,,,,,,,,,,,,,,,,,,,,,,,,,,,,,,0,0,0,0,1,,,,,,,,,,,,,,,,,,,,,,,,,,,,,,,,,,,,,,,,,,,,,,,,,,,,,,,,,,
,,,,,,,,,,00001467057,2020-10-22_21h53.01.928,swahili,2020.2.4,MacIntel,60,,,,,,,,,,,,,,,,,,,,,,,,,,,,,,,,,,0,0,0,0,1,,,,,,,,,,,,,,,,,,,,,,,,,,,,,,,,,,,,,,,,,,,,,,,,,,,,,,,,,,,,,,,,
,,,,,,,,,,00001467057,2020-10-22_21h53.01.928,swahili,2020.2.4,MacIntel,60,,,,,,,,,,,,,,,,,,,,,,,,,,,,,,,,,,,,,,,return,,,,,,,,,,,0.939115,6.5313,0.351253255,-0.074366319,1,0,0,0.78168,yes,BOAT,JABINI,incorrect,0,0,0,0,1,,,,,,,,,,,,,,,,,,,,,,,,,,,,,,,,,,,,
,,,,,,,,,,00001467057,2020-10-22_21h53.01.928,swahili,2020.2.4,MacIntel,60,,,,,,,,,,,,,,,,,,,,,,,,,,,,,,,,,,,,,,,,,,,,,,,,,,,2.24717,0.553759766,0.043385417,1,0,0,0.482885,yes,POEM,UTENZI,incorrect,1,0,1,0,1,,,,,,,,,,,,,,,,,,,,,,,,,,,,,,,,,,,,
,,,,,,,,,,00001467057,2020-10-22_21h53.01.928,swahili,2020.2.4,MacIntel,60,,,,,,,,,,,,,,,,,,,,,,,,,,,,,,,,,,,,,,,,,,,,,,,,,,,3.38369,0.449994575,-0.18296875,1,0,0,0.48081,yes,BRIBE,RUSHWA,incorrect,2,0,2,0,1,,,,,,,,,,,,,,,,,,,,,,,,,,,,,,,,,,,,
,,,,,,,,,,00001467057,2020-10-22_21h53.01.928,swahili,2020.2.4,MacIntel,60,,,,,,,,,,,,,,,,,,,,,,,,,,,,,,,,,,,,,,,,,,,,,,,,,,,2.96464,0.3421875,-0.192638889,1,0,0,0.48515,yes,GRAPES,ZABIBU,incorrect,3,0,3,0,1,,,,,,,,,,,,,,,,,,,,,,,,,,,,,,,,,,,,
,,,,,,,,,,00001467057,2020-10-22_21h53.01.928,swahili,2020.2.4,MacIntel,60,,,,,,,,,,,,,,,,,,,,,,,,,,,,,,,,,,,,,,,,,,,,,,,,,,,7.215135,0.452256944,0.000642361,1,0,0,0.43359,yes,PARROT,SAWAKA,incorrect,4,0,4,0,1,,,,,,,,,,,,,,,,,,,,,,,,,,,,,,,,,,,,
,,,,,,,,,,00001467057,2020-10-22_21h53.01.928,swahili,2020.2.4,MacIntel,60,,,,,,,,,,,,,,,,,,,,,,,,,,,,,,,,,,,,,,,,,,,,,,,,,,,3.614525,0.469574653,-0.107743056,1,0,0,0.46397,yes,MERCHANT,SAMADI,incorrect,5,0,5,0,1,,,,,,,,,,,,,,,,,,,,,,,,,,,,,,,,,,,,
,,,,,,,,,,00001467057,2020-10-22_21h53.01.928,swahili,2020.2.4,MacIntel,60,,,,,,,,,,,,,,,,,,,,,,,,,,,,,,,,,,,,,,,,,,,,,,,,,,,4.117805,0.344590929,-0.126232639,1,0,0,0.44755,yes,BLAME,LAWAKA,incorrect,6,0,6,0,1,,,,,,,,,,,,,,,,,,,,,,,,,,,,,,,,,,,,
,,,,,,,,,,00001467057,2020-10-22_21h53.01.928,swahili,2020.2.4,MacIntel,60,,,,,,,,,,,,,,,,,,,,,,,,,,,,,,,,,,,,,,,,,,,,,,,,,,,4.947255,0.481342231,-0.056623264,1,0,0,0.452925,yes,ORPHAN,YAMITA,incorrect,7,0,7,0,1,,,,,,,,,,,,,,,,,,,,,,,,,,,,,,,,,,,,
